Folder: NiFe_MOF_catalyst_paper/XRD (part 59)

File: Ni3Fe_FD0307.xy
TT I
1.27165 7.49539
1.45013 6.44372
1.62863 5.75013
1.80712 5.00967
1.98562 4.57703
2.16411 5.28892
2.34263 5.5214
2.52115 5.84413
2.69965 7.42931
2.87818 8.69865
3.05672 11.3387
3.23527 15.1684
3.4138 19.5528
3.59237 25.1141
3.77094 26.8433
3.9495 30.6408
4.12809 36.1026
4.30669 325.426
4.4853 78.6902
4.6639 56.6678
4.84253 68.8526
5.02118 90.024
5.19981 480.801
5.37848 254.586
5.55716 106.883
5.73586 95.6936
5.91455 99.6562
6.09328 3662.01
6.27201 89.6594
6.45075 70.3473
6.62952 65.9148
6.8083 61.8212
6.98711 58.2142
7.16591 57.6291
7.34475 117.019
7.5236 56.9699
7.70247 58.5553
7.88135 59.6052
8.06026 64.276
8.23919 72.1485
8.41812 89.4661
8.59709 961.325
8.77609 107.854
8.9551 98.4085
9.13412 84.7084
9.31318 85.3452
9.49226 87.2948
9.67134 106.712
9.85047 103.329
10.0296 366.478
10.2088 589.661
10.388 110.78
10.5672 441.423
10.7465 90.7026
10.9257 81.9975
11.105 74.7104
11.2844 74.3712
11.4637 67.1102
11.6431 65.9549
11.8225 64.78
12.002 65.8316
12.1814 134.675
12.3609 78.2874
12.5405 67.0955
12.72 74.7632
12.8996 73.1635
13.0792 81.527
13.2589 208.325
13.4386 150.263
13.6183 210.087
13.7981 112.156
13.9779 78.4076
14.1577 75.5268
14.3376 75.4745
14.5175 70.946
14.6974 72.9206
14.8774 107.715
15.0574 175.495
15.2374 75.1753
15.4175 68.7994
15.5976 67.869
15.7778 94.3762
15.958 182.649
16.1382 66.4321
16.3185 61.5438
16.4988 57.5133
16.6792 56.5324
16.8596 57.3135
17.04 57.875
17.2205 66.8636
17.401 77.5214
17.5815 61.2068
17.7622 63.4473
17.9428 76.3777
18.1237 137.026
18.3044 88.1801
18.4852 85.8058
18.666 62.7022
18.8469 60.1986
19.0278 58.9725
19.2088 61.8257
19.3898 78.4909
19.5709 56.4366
19.752 55.0661
19.9332 57.8328
20.1144 71.1031
20.2957 63.4702
20.477 57.05
20.6586 51.4662
20.84 50.5727
21.0215 50.356
21.203 52.1939
21.3846 51.0394
21.5662 50.4861
21.7479 53.8231
21.9297 66.0872
22.1115 57.443
22.2933 52.0311
22.4753 50.9365
22.6572 50.6029
22.8393 52.8094
23.0214 59.7839
23.2037 50.6715
23.3859 51.5478
23.5682 57.1434
23.7505 51.0099
23.9329 46.8392
24.1154 45.6954
24.2979 45.0065
24.4805 44.4056
24.6631 44.376
24.8458 43.8267
25.0286 44.206
25.2114 45.8259
25.3943 46.4174
25.5773 42.456
25.7605 41.935
25.9436 42.0016
26.1268 43.1904
26.31 41.5052
26.4933 41.9808
26.6767 43.5294
26.8601 41.9641
27.0437 40.2206
27.2272 39.8742
27.4109 39.6486
27.5946 39.7908
27.7784 39.3111
27.9623 39.457
28.1462 40.2409
28.3304 38.7422
28.5145 37.2271
28.6987 36.873
28.8829 36.6278
29.0673 35.8811
29.2517 35.5362
29.4361 35.3288
29.6207 34.4356
29.8053 34.103
29.99 33.7828
30.1748 33.5111
30.3597 33.433
30.5447 33.2005
30.7297 33.2466
30.915 32.7902
31.1002 32.1945
31.2855 31.8937
31.4708 31.8805
31.6563 31.5398
31.8418 31.1496
32.0275 30.9812
32.2132 30.401
32.399 29.907
32.5848 29.4473
32.7708 29.2874
32.9569 28.9712
33.143 28.7186
33.3293 28.3578
33.5158 28.0712
33.7022 27.5459
33.8887 27.3186
34.0753 26.9682
34.262 26.5461
34.4488 26.1691
34.6357 25.9011
34.8227 25.5066
35.0098 25.2816
35.1969 25.0397
35.3842 24.8045
35.5716 24.6416
35.759 24.2712
35.9468 24.0342
36.1345 23.7329
36.3222 23.4793
36.5101 23.2047
36.6981 22.8568
36.8861 22.5743
37.0743 22.2651
37.2626 22.0433
37.451 21.755
37.6395 21.5952
37.8281 21.2357
38.0168 21.0073
38.2056 20.6589
38.3945 20.3778
38.5837 20.1291
38.7728 19.9395
38.9621 19.6822
39.1514 19.3546
39.3409 19.1449
39.5304 18.8924
39.7201 18.6299
39.9099 18.4939
40.0999 18.2203
40.2899 17.971
40.48 17.68
40.6703 17.5305
40.8607 17.2943
41.0512 17.1373
41.242 16.9289
41.4327 16.6524
41.6236 16.4251
41.8146 16.2391
42.0057 16.0194
42.1969 15.787
42.3882 15.5542
42.5797 15.3775
42.7713 15.1733
42.963 14.939
43.1549 14.7533
43.3468 14.4812
43.5389 14.3145
43.7312 14.1289
43.9237 13.9758
44.1162 13.6943
44.3088 13.5654
44.5016 13.3923
44.6945 13.1961
44.8875 13.0273
45.0806 12.7824
45.2739 12.6185
45.4673 12.4929
45.6609 12.2569
45.8546 12.0939
46.0484 11.9975
46.2424 11.7459
46.4365 11.6126
46.631 11.4023
46.8254 11.2482
47.0199 11.1175
47.2146 10.9439
47.4095 10.757
47.6044 10.6157
47.7996 10.433
47.9948 10.2897
48.1902 10.1528
48.3858 10.029
48.5815 9.86192
48.7774 9.71147
48.9734 9.61712
49.1696 9.4187
49.3661 9.33087
49.5626 9.14612
49.7592 9.01484
49.956 8.86929
50.153 8.73705
50.3501 8.57426
50.5474 8.45086
50.7448 8.34343
50.9424 8.17681
51.1402 8.07857
51.3381 7.93573
51.5362 7.81215
51.7344 7.71715
51.9328 7.55746
52.1316 7.4462
52.3304 7.28578
52.5293 7.19939
52.7284 7.1219
52.9276 6.96563
53.1271 6.85865
53.3267 6.73475
53.5265 6.57857
53.7264 6.51777
53.9266 6.36162
54.1269 6.28182
54.3274 6.1545
54.528 6.01885
54.7289 5.82212
54.9301 5.6739
55.1314 5.6056
55.3328 5.27211
55.5344 5.13403
55.7361 4.98532

File: Ni3Fe_FD0308.xy
TT I
1.27165 7.93021
1.45013 6.27542
1.62863 5.90018
1.80712 4.86061
1.98562 4.88283
2.16411 5.09967
2.34263 5.08881
2.52115 5.75306
2.69965 7.00942
2.87818 8.21395
3.05672 11.0919
3.23527 15.4191
3.4138 19.4363
3.59237 25.4186
3.77094 27.1302
3.9495 30.5261
4.12809 36.0533
4.30669 330.175
4.4853 78.757
4.6639 56.9267
4.84253 68.4343
5.02118 90.4149
5.19981 479.747
5.37848 254.609
5.55716 106.334
5.73586 95.508
5.91455 99.1078
6.09328 3606.04
6.27201 89.9326
6.45075 70.1134
6.62952 65.7223
6.8083 61.6402
6.98711 57.8539
7.16591 57.85
7.34475 118.554
7.5236 56.9145
7.70247 58.0238
7.88135 60.0716
8.06026 64.1862
8.23919 71.7905
8.41812 89.3215
8.59709 953.481
8.77609 107.701
8.9551 98.4892
9.13412 84.375
9.31318 85.3466
9.49226 86.7058
9.67134 106.959
9.85047 103.211
10.0296 365.545
10.2088 593.117
10.388 110.417
10.5672 442.695
10.7465 90.4734
10.9257 82.0935
11.105 74.5485
11.2844 74.535
11.4637 67.3874
11.6431 65.7267
11.8225 64.7364
12.002 65.7629
12.1814 134.728
12.3609 78.2729
12.5405 67.0247
12.72 74.7067
12.8996 73.0421
13.0792 81.2574
13.2589 207.369
13.4386 150.297
13.6183 209.254
13.7981 111.721
13.9779 78.3625
14.1577 75.3903
14.3376 75.2812
14.5175 71.1258
14.6974 72.9597
14.8774 107.428
15.0574 176.382
15.2374 74.7969
15.4175 68.4311
15.5976 67.9979
15.7778 93.8798
15.958 182.623
16.1382 66.6462
16.3185 61.3741
16.4988 57.4756
16.6792 56.5155
16.8596 57.3638
17.04 57.7082
17.2205 66.8201
17.401 77.4199
17.5815 61.1775
17.7622 63.169
17.9428 76.167
18.1237 137.23
18.3044 88.1906
18.4852 86.0398
18.666 62.6844
18.8469 60.0752
19.0278 58.9361
19.2088 61.6415
19.3898 78.2975
19.5709 56.4325
19.752 55.1317
19.9332 57.9764
20.1144 71.1594
20.2957 63.8373
20.477 57.0864
20.6586 51.5159
20.84 50.6857
21.0215 50.3632
21.203 52.156
21.3846 51.1055
21.5662 50.465
21.7479 53.9061
21.9297 66.3447
22.1115 57.3226
22.2933 52.1501
22.4753 50.7448
22.6572 50.6881
22.8393 52.9064
23.0214 60.1118
23.2037 50.6144
23.3859 51.3434
23.5682 57.0082
23.7505 51.1178
23.9329 46.7799
24.1154 45.7185
24.2979 45.0402
24.4805 44.5085
24.6631 44.4888
24.8458 43.7954
25.0286 44.143
25.2114 46.02
25.3943 46.4657
25.5773 42.4036
25.7605 41.9547
25.9436 42.0963
26.1268 43.0913
26.31 41.6091
26.4933 42.0416
26.6767 43.5066
26.8601 41.8901
27.0437 40.4157
27.2272 39.9051
27.4109 39.5817
27.5946 39.7738
27.7784 39.1961
27.9623 39.407
28.1462 40.2433
28.3304 38.799
28.5145 37.2083
28.6987 36.7969
28.8829 36.625
29.0673 35.8642
29.2517 35.502
29.4361 35.3341
29.6207 34.3467
29.8053 34.0262
29.99 33.7342
30.1748 33.5121
30.3597 33.4932
30.5447 33.2463
30.7297 33.3472
30.915 32.7882
31.1002 32.2838
31.2855 32.011
31.4708 31.7754
31.6563 31.5014
31.8418 31.206
32.0275 30.8724
32.2132 30.4737
32.399 29.9246
32.5848 29.5158
32.7708 29.2419
32.9569 29.0342
33.143 28.7296
33.3293 28.319
33.5158 27.997
33.7022 27.6168
33.8887 27.2366
34.0753 26.8986
34.262 26.5695
34.4488 26.2615
34.6357 25.8351
34.8227 25.5557
35.0098 25.2668
35.1969 25.0135
35.3842 24.8211
35.5716 24.6012
35.759 24.2806
35.9468 23.88
36.1345 23.7706
36.3222 23.5034
36.5101 23.2505
36.6981 22.9203
36.8861 22.5762
37.0743 22.2746
37.2626 21.968
37.451 21.7351
37.6395 21.6019
37.8281 21.3025
38.0168 20.9487
38.2056 20.6564
38.3945 20.435
38.5837 20.1408
38.7728 19.928
38.9621 19.656
39.1514 19.3745
39.3409 19.0706
39.5304 18.9339
39.7201 18.7007
39.9099 18.4025
40.0999 18.2399
40.2899 18.0229
40.48 17.7033
40.6703 17.5666
40.8607 17.3717
41.0512 17.1438
41.242 16.8796
41.4327 16.6852
41.6236 16.4363
41.8146 16.2303
42.0057 16.0003
42.1969 15.7884
42.3882 15.575
42.5797 15.331
42.7713 15.131
42.963 14.8924
43.1549 14.7113
43.3468 14.4844
43.5389 14.2989
43.7312 14.1235
43.9237 13.8926
44.1162 13.7608
44.3088 13.4973
44.5016 13.3625
44.6945 13.1922
44.8875 13.0402
45.0806 12.7618
45.2739 12.585
45.4673 12.4807
45.6609 12.2693
45.8546 12.116
46.0484 11.9528
46.2424 11.7804
46.4365 11.6024
46.631 11.4387
46.8254 11.2998
47.0199 11.0544
47.2146 10.9587
47.4095 10.7655
47.6044 10.6121
47.7996 10.4618
47.9948 10.2839
48.1902 10.1688
48.3858 10.0194
48.5815 9.86743
48.7774 9.72147
48.9734 9.56618
49.1696 9.41628
49.3661 9.30308
49.5626 9.15584
49.7592 9.01965
49.956 8.88067
50.153 8.71921
50.3501 8.59375
50.5474 8.47967
50.7448 8.37667
50.9424 8.22421
51.1402 8.04779
51.3381 7.94
51.5362 7.8006
51.7344 7.69734
51.9328 7.58041
52.1316 7.42255
52.3304 7.31756
52.5293 7.18517
52.7284 7.07591
52.9276 6.97335
53.1271 6.86064
53.3267 6.74344
53.5265 6.63469
53.7264 6.49148
53.9266 6.40284
54.1269 6.25896
54.3274 6.17618
54.528 6.02834
54.7289 5.83377
54.9301 5.64084
55.1314 5.57877
55.3328 5.31279
55.5344 5.12353
55.7361 4.97124

File: Ni3Fe_FD0309.xy
TT I
1.27165 7.76824
1.45013 6.42665
1.62863 5.22854
1.80712 5.38294
1.98562 4.71905
2.16411 5.11154
2.34263 4.85782
2.52115 5.89999
2.69965 6.52998
2.87818 8.22991
3.05672 11.2343
3.23527 14.905
3.4138 19.4587
3.59237 25.4597
3.77094 27.3685
3.9495 30.5569
4.12809 36.2611
4.30669 332.786
4.4853 79.213
4.6639 56.6631
4.84253 68.6087
5.02118 90.2223
5.19981 479.292
5.37848 254.599
5.55716 106.389
5.73586 95.2905
5.91455 99.1369
6.09328 3587.14
6.27201 89.7536
6.45075 70.3113
6.62952 65.9044
6.8083 61.6081
6.98711 58.2369
7.16591 58.0849
7.34475 119.561
7.5236 57.0738
7.70247 58.3049
7.88135 59.8505
8.06026 64.2152
8.23919 71.9255
8.41812 89.3855
8.59709 950.495
8.77609 107.592
8.9551 98.549
9.13412 84.0474
9.31318 84.9944
9.49226 86.323
9.67134 107.081
9.85047 102.94
10.0296 363.631
10.2088 597.895
10.388 110.992
10.5672 441.018
10.7465 90.6715
10.9257 82.0034
11.105 74.4206
11.2844 74.5161
11.4637 67.2788
11.6431 65.8039
11.8225 64.6435
12.002 65.8936
12.1814 135.101
12.3609 78.1624
12.5405 66.9701
12.72 74.7205
12.8996 73.1509
13.0792 81.3747
13.2589 206.538
13.4386 150.924
13.6183 208.476
13.7981 112.014
13.9779 78.3923
14.1577 75.4645
14.3376 75.1976
14.5175 70.8602
14.6974 72.7456
14.8774 107.272
15.0574 177.002
15.2374 74.9725
15.4175 68.72
15.5976 67.8131
15.7778 93.6905
15.958 182.488
16.1382 66.7303
16.3185 61.5084
16.4988 57.5035
16.6792 56.36
16.8596 57.2555
17.04 57.8257
17.2205 66.6781
17.401 77.6676
17.5815 61.2124
17.7622 63.2721
17.9428 76.3386
18.1237 137.073
18.3044 87.9081
18.4852 86.2681
18.666 62.5538
18.8469 60.0169
19.0278 59.1391
19.2088 61.7132
19.3898 78.0983
19.5709 56.5058
19.752 55.098
19.9332 57.9162
20.1144 71.1777
20.2957 63.4632
20.477 56.9704
20.6586 51.568
20.84 50.5491
21.0215 50.3059
21.203 51.9639
21.3846 50.9798
21.5662 50.5686
21.7479 53.9457
21.9297 66.2493
22.1115 57.2023
22.2933 52.1259
22.4753 50.8696
22.6572 50.3865
22.8393 52.9326
23.0214 60.0533
23.2037 50.6545
23.3859 51.33
23.5682 56.9426
23.7505 51.1602
23.9329 46.8617
24.1154 45.7748
24.2979 44.9591
24.4805 44.318
24.6631 44.4573
24.8458 43.5827
25.0286 44.1673
25.2114 46.052
25.3943 46.3463
25.5773 42.5069
25.7605 42.0101
25.9436 41.9869
26.1268 43.1046
26.31 41.5931
26.4933 41.9131
26.6767 43.4635
26.8601 41.9762
27.0437 40.322
27.2272 39.9055
27.4109 39.5485
27.5946 39.7182
27.7784 39.2719
27.9623 39.4242
28.1462 40.2833
28.3304 38.6485
28.5145 37.1583
28.6987 36.9176
28.8829 36.6418
29.0673 35.9587
29.2517 35.4503
29.4361 35.3432
29.6207 34.3287
29.8053 34.0462
29.99 33.6893
30.1748 33.5313
30.3597 33.4671
30.5447 33.2473
30.7297 33.2803
30.915 32.6939
31.1002 32.1634
31.2855 31.9557
31.4708 31.8824
31.6563 31.4541
31.8418 31.0953
32.0275 30.956
32.2132 30.497
32.399 29.9566
32.5848 29.508
32.7708 29.0874
32.9569 28.9799
33.143 28.6481
33.3293 28.3385
33.5158 28.0524
33.7022 27.4875
33.8887 27.2595
34.0753 26.9264
34.262 26.661
34.4488 26.268
34.6357 25.8175
34.8227 25.6178
35.0098 25.3143
35.1969 24.9781
35.3842 24.8423
35.5716 24.6297
35.759 24.3185
35.9468 23.8977
36.1345 23.7345
36.3222 23.532
36.5101 23.1916
36.6981 22.8983
36.8861 22.5983
37.0743 22.2645
37.2626 22.1183
37.451 21.708
37.6395 21.5395
37.8281 21.2584
38.0168 20.8999
38.2056 20.6284
38.3945 20.4031
38.5837 20.1331
38.7728 19.9678
38.9621 19.684
39.1514 19.3882
39.3409 19.0923
39.5304 18.8614
39.7201 18.6512
39.9099 18.4605
40.0999 18.2407
40.2899 18.0228
40.48 17.7285
40.6703 17.5308
40.8607 17.3032
41.0512 17.1083
41.242 16.8667
41.4327 16.6184
41.6236 16.3655
41.8146 16.2797
42.0057 15.9621
42.1969 15.7706
42.3882 15.5681
42.5797 15.3716
42.7713 15.1231
42.963 14.9573
43.1549 14.7108
43.3468 14.4347
43.5389 14.3385
43.7312 14.197
43.9237 13.9619
44.1162 13.7529
44.3088 13.5673
44.5016 13.3628
44.6945 13.1922
44.8875 13.015
45.0806 12.7651
45.2739 12.6562
45.4673 12.504
45.6609 12.2798
45.8546 12.066
46.0484 11.9733
46.2424 11.7413
46.4365 11.6182
46.631 11.3944
46.8254 11.2592
47.0199 11.0786
47.2146 10.9439
47.4095 10.7665
47.6044 10.6009
47.7996 10.3881
47.9948 10.2911
48.1902 10.1883
48.3858 10.0166
48.5815 9.89881
48.7774 9.73676
48.9734 9.57142
49.1696 9.44353
49.3661 9.25872
49.5626 9.12158
49.7592 9.01472
49.956 8.87067
50.153 8.73944
50.3501 8.61746
50.5474 8.47792
50.7448 8.33629
50.9424 8.23268
51.1402 8.09961
51.3381 7.93224
51.5362 7.85447
51.7344 7.64914
51.9328 7.56536
52.1316 7.42343
52.3304 7.33214
52.5293 7.18285
52.7284 7.06012
52.9276 6.9573
53.1271 6.84652
53.3267 6.75483
53.5265 6.59563
53.7264 6.49104
53.9266 6.40575
54.1269 6.26789
54.3274 6.16402
54.528 5.99079
54.7289 5.80989
54.9301 5.65997
55.1314 5.52602
55.3328 5.28899
55.5344 5.10481
55.7361 4.96956

File: Ni3Fe_FD0310.xy
TT I
1.27165 7.50243
1.45013 6.63236
1.62863 5.19525
1.80712 5.116
1.98562 5.14377
2.16411 4.63381
2.34263 4.88266
2.52115 5.81325
2.69965 7.55744
2.87818 8.49869
3.05672 11.252
3.23527 15.2126
3.4138 18.9818
3.59237 25.5546
3.77094 26.7127
3.9495 30.7197
4.12809 36.058
4.30669 334.723
4.4853 78.8244
4.6639 56.8237
4.84253 68.5278
5.02118 89.6342
5.19981 478.657
5.37848 254.445
5.55716 106.252
5.73586 95.7166
5.91455 99.0742
6.09328 3588.75
6.27201 90.5949
6.45075 70.1495
6.62952 65.9357
6.8083 61.6464
6.98711 58.1631
7.16591 58.2532
7.34475 119.229
7.5236 56.9671
7.70247 58.0709
7.88135 59.6808
8.06026 64.4313
8.23919 71.9323
8.41812 89.2913
8.59709 946.341
8.77609 107.683
8.9551 98.2505
9.13412 84.2544
9.31318 85.2295
9.49226 86.6508
9.67134 107.003
9.85047 102.762
10.0296 361.8
10.2088 598.045
10.388 110.239
10.5672 438.977
10.7465 90.6848
10.9257 81.9909
11.105 74.5753
11.2844 74.763
11.4637 67.4496
11.6431 65.8586
11.8225 64.6303
12.002 65.6992
12.1814 134.39
12.3609 78.0193
12.5405 66.8648
12.72 75.0862
12.8996 73.0303
13.0792 80.9846
13.2589 206.021
13.4386 150.091
13.6183 208.726
13.7981 112.45
13.9779 78.2664
14.1577 75.6132
14.3376 75.0457
14.5175 70.9829
14.6974 72.7412
14.8774 107.294
15.0574 177.483
15.2374 74.8459
15.4175 68.51
15.5976 67.8778
15.7778 93.6757
15.958 183.148
16.1382 66.5963
16.3185 61.3733
16.4988 57.6563
16.6792 56.4843
16.8596 57.212
17.04 57.7436
17.2205 66.5692
17.401 77.2056
17.5815 61.1873
17.7622 63.2339
17.9428 76.2138
18.1237 136.875
18.3044 88.0657
18.4852 86.4165
18.666 62.7362
18.8469 60.0161
19.0278 58.9599
19.2088 61.7819
19.3898 77.9824
19.5709 56.3958
19.752 55.3635
19.9332 57.9221
20.1144 71.2022
20.2957 63.4924
20.477 57.0373
20.6586 51.5565
20.84 50.559
21.0215 50.2664
21.203 51.9346
21.3846 51.0064
21.5662 50.4072
21.7479 53.8167
21.9297 66.0528
22.1115 57.3875
22.2933 52.2415
22.4753 50.7638
22.6572 50.4274
22.8393 52.9729
23.0214 60.0273
23.2037 50.5394
23.3859 51.0826
23.5682 57.0381
23.7505 51.0757
23.9329 46.9124
24.1154 45.7367
24.2979 44.9389
24.4805 44.2767
24.6631 44.314
24.8458 43.7182
25.0286 44.0835
25.2114 45.9717
25.3943 46.4136
25.5773 42.4164
25.7605 41.8067
25.9436 42.125
26.1268 43.0894
26.31 41.583
26.4933 41.9115
26.6767 43.3019
26.8601 42.0063
27.0437 40.2444
27.2272 39.7915
27.4109 39.5361
27.5946 39.6482
27.7784 39.2483
27.9623 39.4895
28.1462 40.1044
28.3304 38.6352
28.5145 37.2176
28.6987 36.8714
28.8829 36.6107
29.0673 35.8757
29.2517 35.5653
29.4361 35.3379
29.6207 34.3477
29.8053 33.9765
29.99 33.6576
30.1748 33.6107
30.3597 33.4108
30.5447 33.1452
30.7297 33.2795
30.915 32.7855
31.1002 32.2412
31.2855 31.9907
31.4708 31.8292
31.6563 31.3962
31.8418 31.1394
32.0275 30.99
32.2132 30.4833
32.399 29.8977
32.5848 29.5235
32.7708 29.2454
32.9569 28.9941
33.143 28.6846
33.3293 28.3025
33.5158 27.9885
33.7022 27.538
33.8887 27.2826
34.0753 26.8733
34.262 26.4813
34.4488 26.1925
34.6357 25.7885
34.8227 25.5886
35.0098 25.3342
35.1969 25.0764
35.3842 24.7486
35.5716 24.6606
35.759 24.2443
35.9468 23.928
36.1345 23.706
36.3222 23.4226
36.5101 23.2077
36.6981 22.8402
36.8861 22.5984
37.0743 22.2005
37.2626 21.97
37.451 21.7465
37.6395 21.5887
37.8281 21.2188
38.0168 20.9014
38.2056 20.701
38.3945 20.3693
38.5837 20.1202
38.7728 19.8856
38.9621 19.6477
39.1514 19.4572
39.3409 19.1541
39.5304 18.884
39.7201 18.6448
39.9099 18.4153
40.0999 18.2286
40.2899 17.9954
40.48 17.7485
40.6703 17.4513
40.8607 17.2899
41.0512 17.1323
41.242 16.8529
41.4327 16.6545
41.6236 16.3663
41.8146 16.1951
42.0057 16.0041
42.1969 15.7407
42.3882 15.5704
42.5797 15.3405
42.7713 15.1378
42.963 14.9191
43.1549 14.738
43.3468 14.5181
43.5389 14.3445
43.7312 14.1646
43.9237 13.9096
44.1162 13.7173
44.3088 13.5442
44.5016 13.3472
44.6945 13.1767
44.8875 12.9844
45.0806 12.8225
45.2739 12.6628
45.4673 12.4549
45.6609 12.2869
45.8546 12.0901
46.0484 11.9065
46.2424 11.7978
46.4365 11.6181
46.631 11.4144
46.8254 11.239
47.0199 11.0833
47.2146 10.9272
47.4095 10.7462
47.6044 10.6125
47.7996 10.4086
47.9948 10.3012
48.1902 10.1321
48.3858 10.0099
48.5815 9.85867
48.7774 9.70851
48.9734 9.60644
49.1696 9.41225
49.3661 9.26361
49.5626 9.09576
49.7592 9.02172
49.956 8.88396
50.153 8.75324
50.3501 8.60952
50.5474 8.48458
50.7448 8.3491
50.9424 8.22702
51.1402 8.11507
51.3381 7.93704
51.5362 7.8212
51.7344 7.70281
51.9328 7.56178
52.1316 7.42578
52.3304 7.34418
52.5293 7.22059
52.7284 7.10862
52.9276 6.95876
53.1271 6.8631
53.3267 6.73168
53.5265 6.58407
53.7264 6.50511
53.9266 6.39609
54.1269 6.27726
54.3274 6.10427
54.528 6.02214
54.7289 5.82414
54.9301 5.64808
55.1314 5.53671
55.3328 5.30046
55.5344 5.12426
55.7361 4.99312

File: Ni3Fe_FD0311.xy
TT I
1.27165 7.69519
1.45013 6.58365
1.62863 5.29427
1.80712 5.14276
1.98562 4.5908
2.16411 4.85984
2.34263 5.51728
2.52115 5.87495
2.69965 6.45685
2.87818 8.69472
3.05672 11.0341
3.23527 15.1478
3.4138 19.2911
3.59237 25.3259
3.77094 26.7648
3.9495 30.6633
4.12809 36.2139
4.30669 322.225
4.4853 78.0034
4.6639 56.8979
4.84253 68.7902
5.02118 90.2556
5.19981 477.705
5.37848 247.474
5.55716 106.077
5.73586 95.6319
5.91455 99.1357
6.09328 3650.29
6.27201 89.9498
6.45075 70.2493
6.62952 65.4606
6.8083 61.2641
6.98711 58.2253
7.16591 57.6788
7.34475 116.455
7.5236 56.8131
7.70247 58.2803
7.88135 59.5491
8.06026 64.0491
8.23919 71.8457
8.41812 89.4871
8.59709 961.523
8.77609 107.198
8.9551 97.823
9.13412 83.8774
9.31318 84.7826
9.49226 87.0144
9.67134 105.999
9.85047 103.237
10.0296 361.781
10.2088 570.129
10.388 110.192
10.5672 449.417
10.7465 89.9872
10.9257 81.7835
11.105 74.2898
11.2844 74.3609
11.4637 66.9761
11.6431 65.7207
11.8225 64.7108
12.002 65.7761
12.1814 136.068
12.3609 77.359
12.5405 66.7453
12.72 74.387
12.8996 72.9255
13.0792 81.235
13.2589 207.727
13.4386 146.443
13.6183 210.952
13.7981 110.247
13.9779 78.2172
14.1577 75.523
14.3376 75.2183
14.5175 71.0107
14.6974 72.824
14.8774 107.515
15.0574 174.052
15.2374 74.9666
15.4175 68.6221
15.5976 67.8968
15.7778 93.8068
15.958 181.116
16.1382 66.3413
16.3185 61.3705
16.4988 57.5278
16.6792 56.3865
16.8596 57.4528
17.04 57.7164
17.2205 66.6187
17.401 76.8914
17.5815 61.4011
17.7622 63.2456
17.9428 76.3461
18.1237 138.752
18.3044 88.2634
18.4852 85.1359
18.666 62.6803
18.8469 60.0299
19.0278 59.0244
19.2088 61.645
19.3898 78.7738
19.5709 56.2709
19.752 55.1316
19.9332 58.1184
20.1144 71.6536
20.2957 63.764
20.477 56.4536
20.6586 51.4904
20.84 50.5078
21.0215 50.295
21.203 52.1065
21.3846 50.9154
21.5662 50.2915
21.7479 53.735
21.9297 66.4736
22.1115 57.3959
22.2933 51.9338
22.4753 50.6214
22.6572 50.4201
22.8393 52.8524
23.0214 60.1405
23.2037 50.7969
23.3859 51.3142
23.5682 57.4862
23.7505 50.7984
23.9329 46.6511
24.1154 45.721
24.2979 45.0274
24.4805 44.2532
24.6631 44.262
24.8458 43.5824
25.0286 44.2292
25.2114 45.9658
25.3943 46.397
25.5773 42.2793
25.7605 41.9106
25.9436 42.1339
26.1268 43.142
26.31 41.5069
26.4933 41.906
26.6767 43.4649
26.8601 41.9815
27.0437 40.3492
27.2272 39.7945
27.4109 39.7809
27.5946 39.7156
27.7784 39.2373
27.9623 39.4567
28.1462 40.2028
28.3304 38.5363
28.5145 37.2402
28.6987 36.8079
28.8829 36.5216
29.0673 35.874
29.2517 35.3665
29.4361 35.3252
29.6207 34.3955
29.8053 33.9757
29.99 33.6593
30.1748 33.5298
30.3597 33.404
30.5447 33.1435
30.7297 33.3201
30.915 32.739
31.1002 32.217
31.2855 31.9137
31.4708 31.9004
31.6563 31.4416
31.8418 31.2157
32.0275 30.9161
32.2132 30.4539
32.399 29.9404
32.5848 29.5037
32.7708 29.155
32.9569 28.9928
33.143 28.6266
33.3293 28.4168
33.5158 28.0285
33.7022 27.5418
33.8887 27.2811
34.0753 26.8903
34.262 26.5429
34.4488 26.1674
34.6357 25.873
34.8227 25.5405
35.0098 25.3519
35.1969 25.0234
35.3842 24.7312
35.5716 24.5177
35.759 24.2607
35.9468 23.9156
36.1345 23.6767
36.3222 23.4155
36.5101 23.1489
36.6981 22.8695
36.8861 22.5857
37.0743 22.2031
37.2626 22.0102
37.451 21.7058
37.6395 21.552
37.8281 21.2408
38.0168 20.8915
38.2056 20.6163
38.3945 20.3853
38.5837 20.1568
38.7728 19.847
38.9621 19.6295
39.1514 19.3109
39.3409 19.1658
39.5304 18.8459
39.7201 18.7181
39.9099 18.4348
40.0999 18.305
40.2899 17.9384
40.48 17.7547
40.6703 17.5696
40.8607 17.2793
41.0512 17.0739
41.242 16.796
41.4327 16.6331
41.6236 16.3905
41.8146 16.2303
42.0057 15.9943
42.1969 15.7407
42.3882 15.5231
42.5797 15.3859
42.7713 15.1335
42.963 14.9334
43.1549 14.7415
43.3468 14.5511
43.5389 14.3842
43.7312 14.1231
43.9237 13.9383
44.1162 13.7392
44.3088 13.542
44.5016 13.3453
44.6945 13.1613
44.8875 13.0508
45.0806 12.7827
45.2739 12.5982
45.4673 12.4288
45.6609 12.2613
45.8546 12.0978
46.0484 11.9491
46.2424 11.7628
46.4365 11.591
46.631 11.4028
46.8254 11.2465
47.0199 11.1048
47.2146 10.9323
47.4095 10.7358
47.6044 10.5866
47.7996 10.4656
47.9948 10.2509
48.1902 10.1714
48.3858 10.0334
48.5815 9.85657
48.7774 9.71162
48.9734 9.59019
49.1696 9.45622
49.3661 9.25501
49.5626 9.14797
49.7592 9.02499
49.956 8.89346
50.153 8.74907
50.3501 8.60812
50.5474 8.45042
50.7448 8.35495
50.9424 8.20707
51.1402 8.0818
51.3381 7.95489
51.5362 7.87297
51.7344 7.68772
51.9328 7.57727
52.1316 7.44729
52.3304 7.32354
52.5293 7.22795
52.7284 7.06902
52.9276 6.91821
53.1271 6.83849
53.3267 6.72843
53.5265 6.5613
53.7264 6.47795
53.9266 6.38278
54.1269 6.22465
54.3274 6.13421
54.528 5.98708
54.7289 5.80699
54.9301 5.67711
55.1314 5.50647
55.3328 5.35607
55.5344 5.09169
55.7361 4.92603