Folder: NiFe_MOF_catalyst_paper/XRD (part 119)

File: Ni3Fe_FD0644.xy
TT I
1.27165 7.47904
1.45013 6.49454
1.62863 5.80775
1.80712 4.95008
1.98562 4.23546
2.16411 4.79474
2.34263 5.68895
2.52115 6.19145
2.69965 8.15009
2.87818 8.73391
3.05672 10.9632
3.23527 15.4753
3.4138 18.5954
3.59237 24.6371
3.77094 26.8497
3.9495 29.9544
4.12809 35.4117
4.30669 269.397
4.4853 71.4047
4.6639 55.179
4.84253 66.9617
5.02118 86.2951
5.19981 332.371
5.37848 197.329
5.55716 101.912
5.73586 91.7895
5.91455 93.0963
6.09328 4292.74
6.27201 84.2064
6.45075 67.8831
6.62952 63.5051
6.8083 59.2457
6.98711 56.3294
7.16591 55.98
7.34475 103.38
7.5236 54.8016
7.70247 56.5336
7.88135 57.7264
8.06026 62.3501
8.23919 69.8012
8.41812 85.178
8.59709 1097.5
8.77609 100.133
8.9551 93.3003
9.13412 81.8382
9.31318 82.1436
9.49226 84.5406
9.67134 100.865
9.85047 99.5193
10.0296 323.558
10.2088 443.658
10.388 105.427
10.5672 497.118
10.7465 86.7862
10.9257 79.0332
11.105 72.026
11.2844 71.7157
11.4637 64.9858
11.6431 63.9208
11.8225 62.4287
12.002 63.4039
12.1814 145.987
12.3609 72.6973
12.5405 64.7697
12.72 71.2879
12.8996 70.7503
13.0792 78.4754
13.2589 225.932
13.4386 128.889
13.6183 236.986
13.7981 100.551
13.9779 75.8324
14.1577 72.9793
14.3376 72.411
14.5175 68.7115
14.6974 70.4922
14.8774 107.119
15.0574 152.929
15.2374 71.8215
15.4175 66.3851
15.5976 65.9251
15.7778 92.7266
15.958 162.243
16.1382 63.5231
16.3185 59.2606
16.4988 55.8672
16.6792 54.6339
16.8596 55.6657
17.04 55.8772
17.2205 66.2993
17.401 72.526
17.5815 59.3234
17.7622 61.4133
17.9428 72.7304
18.1237 139.059
18.3044 89.4707
18.4852 79.2101
18.666 60.6563
18.8469 58.2243
19.0278 56.9977
19.2088 59.5576
19.3898 76.9387
19.5709 54.5061
19.752 53.4972
19.9332 56.1688
20.1144 69.9719
20.2957 63.6651
20.477 54.1923
20.6586 49.8223
20.84 48.7956
21.0215 48.7874
21.203 50.6507
21.3846 49.2836
21.5662 48.7567
21.7479 52.3974
21.9297 64.6161
22.1115 56.1851
22.2933 50.1087
22.4753 49.1905
22.6572 48.8135
22.8393 51.7123
23.0214 57.7687
23.2037 49.1062
23.3859 49.673
23.5682 56.8132
23.7505 48.7566
23.9329 45.3066
24.1154 44.3124
24.2979 43.6092
24.4805 43.0878
24.6631 43.054
24.8458 42.3617
25.0286 42.8873
25.2114 44.5934
25.3943 44.7785
25.5773 41.1877
25.7605 40.5329
25.9436 40.9411
26.1268 41.8092
26.31 40.1923
26.4933 40.8315
26.6767 42.3261
26.8601 40.6297
27.0437 38.9868
27.2272 38.6115
27.4109 38.3619
27.5946 38.5298
27.7784 37.9997
27.9623 38.4997
28.1462 38.952
28.3304 37.3839
28.5145 36.0129
28.6987 35.7309
28.8829 35.5945
29.0673 34.7155
29.2517 34.484
29.4361 34.2376
29.6207 33.3163
29.8053 32.9856
29.99 32.6854
30.1748 32.6452
30.3597 32.3548
30.5447 32.3643
30.7297 32.306
30.915 31.7566
31.1002 31.1839
31.2855 30.9881
31.4708 30.9355
31.6563 30.4027
31.8418 30.3146
32.0275 30.0459
32.2132 29.4937
32.399 29.0842
32.5848 28.6467
32.7708 28.2262
32.9569 28.0864
33.143 27.8889
33.3293 27.4131
33.5158 27.1674
33.7022 26.6591
33.8887 26.3737
34.0753 26.0783
34.262 25.7009
34.4488 25.4263
34.6357 25.0183
34.8227 24.8229
35.0098 24.5605
35.1969 24.2752
35.3842 23.9983
35.5716 23.8766
35.759 23.4965
35.9468 23.2288
36.1345 22.9238
36.3222 22.7292
36.5101 22.5055
36.6981 22.27
36.8861 21.9339
37.0743 21.5534
37.2626 21.3212
37.451 21.0713
37.6395 20.9378
37.8281 20.5491
38.0168 20.3268
38.2056 20.0385
38.3945 19.7094
38.5837 19.5413
38.7728 19.3022
38.9621 19.013
39.1514 18.8451
39.3409 18.571
39.5304 18.3187
39.7201 18.1668
39.9099 17.9148
40.0999 17.6607
40.2899 17.4346
40.48 17.161
40.6703 16.9701
40.8607 16.7272
41.0512 16.5563
41.242 16.2848
41.4327 16.1332
41.6236 15.9055
41.8146 15.6993
42.0057 15.5
42.1969 15.2801
42.3882 15.0905
42.5797 14.8775
42.7713 14.7187
42.963 14.4699
43.1549 14.2905
43.3468 14.0716
43.5389 13.9143
43.7312 13.6905
43.9237 13.5514
44.1162 13.3577
44.3088 13.1689
44.5016 12.9574
44.6945 12.7432
44.8875 12.6412
45.0806 12.4266
45.2739 12.277
45.4673 12.1234
45.6609 11.9189
45.8546 11.763
46.0484 11.544
46.2424 11.3775
46.4365 11.2835
46.631 11.0481
46.8254 10.949
47.0199 10.7356
47.2146 10.603
47.4095 10.4498
47.6044 10.2401
47.7996 10.1138
47.9948 9.98901
48.1902 9.88898
48.3858 9.71043
48.5815 9.57596
48.7774 9.44396
48.9734 9.26648
49.1696 9.14658
49.3661 8.99588
49.5626 8.85898
49.7592 8.73318
49.956 8.60548
50.153 8.46132
50.3501 8.31222
50.5474 8.21701
50.7448 8.11711
50.9424 7.96439
51.1402 7.87501
51.3381 7.72329
51.5362 7.59825
51.7344 7.451
51.9328 7.29107
52.1316 7.19443
52.3304 7.0945
52.5293 6.96222
52.7284 6.87089
52.9276 6.74148
53.1271 6.66918
53.3267 6.55517
53.5265 6.43312
53.7264 6.28925
53.9266 6.18577
54.1269 6.09917
54.3274 5.97841
54.528 5.79011
54.7289 5.65836
54.9301 5.53625
55.1314 5.41531
55.3328 5.16912
55.5344 4.93455
55.7361 4.81366

File: Ni3Fe_FD0645.xy
TT I
1.27165 7.2382
1.45013 6.21085
1.62863 5.59046
1.80712 4.94608
1.98562 4.38742
2.16411 4.62348
2.34263 5.08149
2.52115 6.76985
2.69965 8.07189
2.87818 8.94061
3.05672 11.0984
3.23527 15.0962
3.4138 18.8664
3.59237 24.7892
3.77094 26.5414
3.9495 30.1574
4.12809 35.8046
4.30669 269.184
4.4853 71.2684
4.6639 55.4926
4.84253 66.9051
5.02118 86.1168
5.19981 336.065
5.37848 196.771
5.55716 102.636
5.73586 92.2635
5.91455 93.4149
6.09328 4312.99
6.27201 84.4668
6.45075 67.8877
6.62952 63.2931
6.8083 59.4628
6.98711 56.4479
7.16591 55.966
7.34475 103.3
7.5236 54.8813
7.70247 56.5468
7.88135 58.0566
8.06026 62.6821
8.23919 69.8418
8.41812 86.1069
8.59709 1102.08
8.77609 100.43
8.9551 93.4546
9.13412 82.1951
9.31318 82.6785
9.49226 84.4327
9.67134 100.913
9.85047 100.051
10.0296 325.245
10.2088 439.487
10.388 105.035
10.5672 497.71
10.7465 87.0847
10.9257 79.2289
11.105 72.3909
11.2844 71.7057
11.4637 65.5516
11.6431 64.2042
11.8225 62.5816
12.002 63.9074
12.1814 146.209
12.3609 72.6714
12.5405 64.7179
12.72 71.5713
12.8996 71.1609
13.0792 78.6144
13.2589 226.768
13.4386 129.057
13.6183 237.539
13.7981 100.269
13.9779 75.9995
14.1577 73.0917
14.3376 72.448
14.5175 69.0778
14.6974 70.5861
14.8774 107.674
15.0574 152.529
15.2374 71.9784
15.4175 66.4899
15.5976 65.9173
15.7778 92.6938
15.958 161.991
16.1382 63.6553
16.3185 59.4416
16.4988 55.8909
16.6792 55.026
16.8596 55.5334
17.04 56.0234
17.2205 66.0673
17.401 72.49
17.5815 59.3935
17.7622 61.515
17.9428 73.0728
18.1237 139.311
18.3044 89.5098
18.4852 79.4952
18.666 60.7238
18.8469 58.3229
19.0278 57.0971
19.2088 59.6561
19.3898 77.0019
19.5709 54.4943
19.752 53.4153
19.9332 56.2058
20.1144 69.9355
20.2957 63.5961
20.477 54.0983
20.6586 49.8473
20.84 49.0136
21.0215 48.8675
21.203 50.9259
21.3846 49.3855
21.5662 48.8284
21.7479 52.4705
21.9297 64.8892
22.1115 56.3415
22.2933 50.1462
22.4753 49.2118
22.6572 48.899
22.8393 51.5803
23.0214 57.846
23.2037 48.8987
23.3859 49.6385
23.5682 56.9326
23.7505 48.6775
23.9329 45.6305
24.1154 44.4554
24.2979 43.7695
24.4805 43.1584
24.6631 43.1453
24.8458 42.3409
25.0286 42.8793
25.2114 44.7033
25.3943 44.7588
25.5773 41.1631
25.7605 40.5923
25.9436 40.8789
26.1268 41.8056
26.31 40.3704
26.4933 40.9223
26.6767 42.2951
26.8601 40.6314
27.0437 39.1066
27.2272 38.7904
27.4109 38.5369
27.5946 38.4967
27.7784 37.9625
27.9623 38.4624
28.1462 38.932
28.3304 37.4225
28.5145 36.136
28.6987 35.7729
28.8829 35.5958
29.0673 34.7549
29.2517 34.4451
29.4361 34.3369
29.6207 33.2694
29.8053 33.0722
29.99 32.7
30.1748 32.6439
30.3597 32.4135
30.5447 32.2194
30.7297 32.4032
30.915 31.7583
31.1002 31.2712
31.2855 30.9383
31.4708 30.9299
31.6563 30.4926
31.8418 30.2059
32.0275 30.0952
32.2132 29.5455
32.399 29.0102
32.5848 28.6422
32.7708 28.3433
32.9569 28.0425
33.143 27.8537
33.3293 27.5299
33.5158 27.1124
33.7022 26.6892
33.8887 26.3585
34.0753 26.1473
34.262 25.8017
34.4488 25.4587
34.6357 25.0836
34.8227 24.8243
35.0098 24.6386
35.1969 24.289
35.3842 24.135
35.5716 23.9416
35.759 23.5088
35.9468 23.2321
36.1345 23.0568
36.3222 22.7437
36.5101 22.5157
36.6981 22.2465
36.8861 21.9407
37.0743 21.58
37.2626 21.3528
37.451 21.1199
37.6395 20.8844
37.8281 20.6007
38.0168 20.297
38.2056 20.0033
38.3945 19.7824
38.5837 19.5402
38.7728 19.3007
38.9621 19.0534
39.1514 18.7564
39.3409 18.5333
39.5304 18.2981
39.7201 18.1689
39.9099 17.9284
40.0999 17.6263
40.2899 17.4008
40.48 17.2109
40.6703 17.0171
40.8607 16.8585
41.0512 16.5955
41.242 16.3311
41.4327 16.1352
41.6236 15.9482
41.8146 15.7088
42.0057 15.5424
42.1969 15.2864
42.3882 15.1079
42.5797 14.8784
42.7713 14.7301
42.963 14.5283
43.1549 14.3433
43.3468 14.1155
43.5389 13.9124
43.7312 13.6613
43.9237 13.5399
44.1162 13.3284
44.3088 13.1394
44.5016 12.9365
44.6945 12.7642
44.8875 12.5935
45.0806 12.4552
45.2739 12.276
45.4673 12.1109
45.6609 11.9064
45.8546 11.7914
46.0484 11.6306
46.2424 11.3981
46.4365 11.2453
46.631 11.1083
46.8254 10.9113
47.0199 10.7585
47.2146 10.6427
47.4095 10.4391
47.6044 10.3071
47.7996 10.1711
47.9948 9.95862
48.1902 9.84012
48.3858 9.70493
48.5815 9.58209
48.7774 9.42875
48.9734 9.30392
49.1696 9.15983
49.3661 9.0103
49.5626 8.86791
49.7592 8.74572
49.956 8.59439
50.153 8.46785
50.3501 8.35709
50.5474 8.21879
50.7448 8.06891
50.9424 7.98303
51.1402 7.84185
51.3381 7.72873
51.5362 7.64568
51.7344 7.47026
51.9328 7.33461
52.1316 7.18315
52.3304 7.11867
52.5293 7.02203
52.7284 6.87554
52.9276 6.76585
53.1271 6.63141
53.3267 6.53374
53.5265 6.43823
53.7264 6.27491
53.9266 6.19792
54.1269 6.08294
54.3274 5.96795
54.528 5.86772
54.7289 5.66769
54.9301 5.54442
55.1314 5.41895
55.3328 5.17484
55.5344 4.97783
55.7361 4.83098

File: Ni3Fe_FD0646.xy
TT I
1.27165 7.63313
1.45013 5.80098
1.62863 5.63516
1.80712 4.94181
1.98562 4.75796
2.16411 4.74531
2.34263 5.18956
2.52115 6.89569
2.69965 8.01834
2.87818 8.86703
3.05672 11.4403
3.23527 15.165
3.4138 18.7485
3.59237 24.8732
3.77094 26.4419
3.9495 29.7436
4.12809 35.4861
4.30669 274.246
4.4853 71.0446
4.6639 55.3172
4.84253 67.3189
5.02118 86.0474
5.19981 332.547
5.37848 197.434
5.55716 101.697
5.73586 92.2012
5.91455 93.3575
6.09328 4278.51
6.27201 84.1161
6.45075 67.7707
6.62952 63.2401
6.8083 59.1449
6.98711 56.5865
7.16591 56.2855
7.34475 104.724
7.5236 55.1096
7.70247 56.3076
7.88135 58.2202
8.06026 62.4254
8.23919 69.7394
8.41812 85.3537
8.59709 1093.96
8.77609 100.559
8.9551 93.4016
9.13412 81.9727
9.31318 82.2938
9.49226 84.561
9.67134 101.021
9.85047 99.8556
10.0296 321.232
10.2088 444.098
10.388 105.416
10.5672 497.628
10.7465 86.7117
10.9257 79.3578
11.105 72.4428
11.2844 71.6596
11.4637 65.1396
11.6431 63.9017
11.8225 62.7835
12.002 63.5558
12.1814 146.958
12.3609 73.0999
12.5405 64.7121
12.72 71.309
12.8996 71.1976
13.0792 78.6144
13.2589 225.189
13.4386 129.418
13.6183 236.321
13.7981 100.776
13.9779 76.0677
14.1577 72.8788
14.3376 72.5575
14.5175 68.9617
14.6974 70.688
14.8774 106.965
15.0574 154.333
15.2374 72.189
15.4175 66.6978
15.5976 65.9166
15.7778 92.6727
15.958 163.746
16.1382 63.6938
16.3185 59.4934
16.4988 55.6399
16.6792 54.8332
16.8596 55.669
17.04 55.8196
17.2205 65.9318
17.401 72.7203
17.5815 59.3152
17.7622 61.33
17.9428 72.8146
18.1237 138.405
18.3044 89.1609
18.4852 80.0784
18.666 60.7205
18.8469 58.1022
19.0278 57.3104
19.2088 59.5955
19.3898 77.1435
19.5709 54.5955
19.752 53.4351
19.9332 56.5126
20.1144 69.9011
20.2957 63.6729
20.477 54.3021
20.6586 49.8547
20.84 48.8014
21.0215 48.7899
21.203 50.8587
21.3846 49.1799
21.5662 48.7643
21.7479 52.4916
21.9297 64.8397
22.1115 56.229
22.2933 50.2611
22.4753 49.0734
22.6572 48.762
22.8393 51.6961
23.0214 57.8033
23.2037 48.9954
23.3859 49.8178
23.5682 56.8406
23.7505 48.7339
23.9329 45.4034
24.1154 44.3462
24.2979 43.7893
24.4805 43.1012
24.6631 43.0172
24.8458 42.313
25.0286 42.9416
25.2114 44.728
25.3943 44.9076
25.5773 41.1963
25.7605 40.5816
25.9436 40.9617
26.1268 41.958
26.31 40.1744
26.4933 40.901
26.6767 42.2964
26.8601 40.5602
27.0437 38.9959
27.2272 38.7589
27.4109 38.5158
27.5946 38.6114
27.7784 38.0555
27.9623 38.5442
28.1462 39.091
28.3304 37.3945
28.5145 36.1365
28.6987 35.7711
28.8829 35.5672
29.0673 34.9298
29.2517 34.4833
29.4361 34.28
29.6207 33.3874
29.8053 33.0365
29.99 32.7144
30.1748 32.538
30.3597 32.4104
30.5447 32.2965
30.7297 32.3388
30.915 31.7998
31.1002 31.1969
31.2855 31.086
31.4708 31.0008
31.6563 30.4936
31.8418 30.2564
32.0275 30.0588
32.2132 29.5627
32.399 29.045
32.5848 28.6419
32.7708 28.3328
32.9569 28.1338
33.143 27.8714
33.3293 27.486
33.5158 27.1194
33.7022 26.7299
33.8887 26.4459
34.0753 26.1598
34.262 25.7327
34.4488 25.3294
34.6357 25.0937
34.8227 24.7968
35.0098 24.6082
35.1969 24.2962
35.3842 24.012
35.5716 23.8416
35.759 23.5677
35.9468 23.2277
36.1345 22.9649
36.3222 22.7415
36.5101 22.5803
36.6981 22.2385
36.8861 21.8745
37.0743 21.5718
37.2626 21.3812
37.451 21.0651
37.6395 20.8826
37.8281 20.6195
38.0168 20.2649
38.2056 19.9781
38.3945 19.7646
38.5837 19.5438
38.7728 19.355
38.9621 18.9819
39.1514 18.7774
39.3409 18.5611
39.5304 18.3381
39.7201 18.1466
39.9099 17.943
40.0999 17.7121
40.2899 17.4417
40.48 17.2167
40.6703 16.9925
40.8607 16.8025
41.0512 16.5713
41.242 16.3032
41.4327 16.155
41.6236 15.9087
41.8146 15.6769
42.0057 15.5169
42.1969 15.2679
42.3882 15.0976
42.5797 14.9128
42.7713 14.7163
42.963 14.4948
43.1549 14.33
43.3468 14.0611
43.5389 13.9003
43.7312 13.726
43.9237 13.553
44.1162 13.3651
44.3088 13.2045
44.5016 12.9769
44.6945 12.7847
44.8875 12.6059
45.0806 12.3889
45.2739 12.2523
45.4673 12.0821
45.6609 11.8576
45.8546 11.7679
46.0484 11.6034
46.2424 11.4275
46.4365 11.2397
46.631 11.0781
46.8254 10.9068
47.0199 10.8144
47.2146 10.5886
47.4095 10.4392
47.6044 10.2921
47.7996 10.1723
47.9948 10.0001
48.1902 9.82881
48.3858 9.69338
48.5815 9.55548
48.7774 9.43097
48.9734 9.29525
49.1696 9.1556
49.3661 8.97971
49.5626 8.86136
49.7592 8.75644
49.956 8.59105
50.153 8.49133
50.3501 8.35263
50.5474 8.2377
50.7448 8.10477
50.9424 7.97601
51.1402 7.86697
51.3381 7.70237
51.5362 7.60449
51.7344 7.47302
51.9328 7.34069
52.1316 7.19807
52.3304 7.09101
52.5293 7.00881
52.7284 6.89899
52.9276 6.77947
53.1271 6.65015
53.3267 6.54893
53.5265 6.44776
53.7264 6.33147
53.9266 6.17523
54.1269 6.07861
54.3274 5.97331
54.528 5.83733
54.7289 5.68535
54.9301 5.52933
55.1314 5.37115
55.3328 5.16176
55.5344 4.98874
55.7361 4.85477

File: Ni3Fe_FD0647.xy
TT I
1.27165 7.69044
1.45013 6.90455
1.62863 5.02094
1.80712 4.64516
1.98562 4.7961
2.16411 5.60181
2.34263 5.52287
2.52115 6.62867
2.69965 8.44054
2.87818 8.67757
3.05672 10.7734
3.23527 14.7672
3.4138 19.155
3.59237 24.6697
3.77094 26.7629
3.9495 29.9219
4.12809 35.0738
4.30669 277.084
4.4853 71.3458
4.6639 55.5483
4.84253 67.3377
5.02118 86.1358
5.19981 330.907
5.37848 197.443
5.55716 102.302
5.73586 92.0721
5.91455 93.4507
6.09328 4267.84
6.27201 84.1264
6.45075 67.9001
6.62952 63.5788
6.8083 59.3129
6.98711 56.1835
7.16591 56.3965
7.34475 104.987
7.5236 55.3941
7.70247 56.5956
7.88135 57.9534
8.06026 62.4398
8.23919 69.6126
8.41812 85.3955
8.59709 1092.34
8.77609 100.512
8.9551 93.6306
9.13412 82.2073
9.31318 81.9425
9.49226 84.2923
9.67134 101.329
9.85047 100.262
10.0296 318.12
10.2088 444.573
10.388 105.372
10.5672 493.049
10.7465 86.9593
10.9257 79.1013
11.105 72.0151
11.2844 71.6103
11.4637 65.0054
11.6431 63.9479
11.8225 62.6659
12.002 63.8141
12.1814 145.486
12.3609 72.7244
12.5405 64.5593
12.72 71.3166
12.8996 71.0328
13.0792 78.6496
13.2589 224.845
13.4386 129.375
13.6183 237.248
13.7981 100.628
13.9779 75.9182
14.1577 72.742
14.3376 72.5364
14.5175 68.6125
14.6974 70.3532
14.8774 106.944
15.0574 154.088
15.2374 72.1122
15.4175 66.2929
15.5976 65.8704
15.7778 92.3104
15.958 164.398
16.1382 63.7346
16.3185 59.2493
16.4988 55.8383
16.6792 54.8662
16.8596 55.5307
17.04 56.0128
17.2205 66.0874
17.401 72.6184
17.5815 59.2111
17.7622 61.18
17.9428 72.8397
18.1237 137.799
18.3044 89.1423
18.4852 80.0648
18.666 60.5434
18.8469 58.1435
19.0278 57.0072
19.2088 59.5617
19.3898 77.0013
19.5709 54.2444
19.752 53.5014
19.9332 56.1182
20.1144 69.8511
20.2957 63.5154
20.477 54.2308
20.6586 49.8759
20.84 48.8595
21.0215 48.9601
21.203 50.746
21.3846 49.2009
21.5662 48.8852
21.7479 52.4868
21.9297 64.7545
22.1115 56.2674
22.2933 50.1532
22.4753 49.0527
22.6572 48.9926
22.8393 51.8665
23.0214 58.0325
23.2037 49.1601
23.3859 49.6117
23.5682 56.7655
23.7505 48.5878
23.9329 45.3744
24.1154 44.3641
24.2979 43.545
24.4805 43.1354
24.6631 43.1083
24.8458 42.3207
25.0286 42.9214
25.2114 44.8253
25.3943 44.9674
25.5773 41.0723
25.7605 40.626
25.9436 41.0063
26.1268 41.8543
26.31 40.3168
26.4933 40.7698
26.6767 42.3902
26.8601 40.7758
27.0437 38.9853
27.2272 38.551
27.4109 38.4808
27.5946 38.5532
27.7784 38.0627
27.9623 38.4614
28.1462 38.9121
28.3304 37.3993
28.5145 36.159
28.6987 35.7471
28.8829 35.704
29.0673 34.7983
29.2517 34.4687
29.4361 34.2325
29.6207 33.244
29.8053 33.0012
29.99 32.6671
30.1748 32.4906
30.3597 32.4403
30.5447 32.2646
30.7297 32.2794
30.915 31.701
31.1002 31.2643
31.2855 30.932
31.4708 30.9906
31.6563 30.4883
31.8418 30.173
32.0275 30.0542
32.2132 29.5075
32.399 29.0458
32.5848 28.5279
32.7708 28.2383
32.9569 28.0903
33.143 27.9131
33.3293 27.53
33.5158 27.1196
33.7022 26.6424
33.8887 26.3939
34.0753 26.0815
34.262 25.7279
34.4488 25.467
34.6357 25.0521
34.8227 24.7385
35.0098 24.6167
35.1969 24.2566
35.3842 24.1309
35.5716 23.9098
35.759 23.5465
35.9468 23.1899
36.1345 23.0127
36.3222 22.7779
36.5101 22.4803
36.6981 22.2396
36.8861 21.8892
37.0743 21.5877
37.2626 21.3067
37.451 21.0782
37.6395 20.9492
37.8281 20.6095
38.0168 20.3094
38.2056 20.0453
38.3945 19.7754
38.5837 19.5707
38.7728 19.3521
38.9621 19.0708
39.1514 18.7929
39.3409 18.5858
39.5304 18.3072
39.7201 18.1658
39.9099 17.9119
40.0999 17.6775
40.2899 17.4321
40.48 17.1982
40.6703 16.99
40.8607 16.8122
41.0512 16.5534
41.242 16.3439
41.4327 16.1788
41.6236 15.9099
41.8146 15.6816
42.0057 15.5641
42.1969 15.2463
42.3882 15.1213
42.5797 14.8559
42.7713 14.7061
42.963 14.4579
43.1549 14.289
43.3468 14.1361
43.5389 13.8885
43.7312 13.6892
43.9237 13.5121
44.1162 13.3313
44.3088 13.1527
44.5016 12.943
44.6945 12.812
44.8875 12.616
45.0806 12.4409
45.2739 12.2675
45.4673 12.1181
45.6609 11.9133
45.8546 11.7851
46.0484 11.5763
46.2424 11.4269
46.4365 11.2828
46.631 11.0784
46.8254 10.9169
47.0199 10.7491
47.2146 10.6386
47.4095 10.4479
47.6044 10.2723
47.7996 10.1533
47.9948 10.0076
48.1902 9.86305
48.3858 9.69863
48.5815 9.59992
48.7774 9.44217
48.9734 9.30401
49.1696 9.11592
49.3661 9.00413
49.5626 8.87689
49.7592 8.74704
49.956 8.61568
50.153 8.448
50.3501 8.33465
50.5474 8.20281
50.7448 8.10454
50.9424 7.94957
51.1402 7.86811
51.3381 7.69948
51.5362 7.61181
51.7344 7.45262
51.9328 7.36118
52.1316 7.20843
52.3304 7.10864
52.5293 6.96123
52.7284 6.86566
52.9276 6.77724
53.1271 6.68722
53.3267 6.55298
53.5265 6.39842
53.7264 6.35164
53.9266 6.21291
54.1269 6.08564
54.3274 5.98327
54.528 5.82054
54.7289 5.67422
54.9301 5.5084
55.1314 5.38311
55.3328 5.16931
55.5344 4.96356
55.7361 4.83264

File: Ni3Fe_FD0648.xy
TT I
1.27165 7.30473
1.45013 6.17877
1.62863 5.11083
1.80712 5.42703
1.98562 5.00497
2.16411 5.10786
2.34263 5.8239
2.52115 6.70307
2.69965 7.8045
2.87818 8.22165
3.05672 10.9328
3.23527 15.6452
3.4138 19.2132
3.59237 24.9762
3.77094 26.885
3.9495 30.1826
4.12809 35.2422
4.30669 279.693
4.4853 71.522
4.6639 55.4683
4.84253 66.927
5.02118 86.2064
5.19981 329.33
5.37848 197.105
5.55716 102.04
5.73586 91.71
5.91455 93.4908
6.09328 4296.23
6.27201 84.4359
6.45075 67.8216
6.62952 63.8253
6.8083 59.2898
6.98711 56.7108
7.16591 55.9883
7.34475 105.524
7.5236 55.3205
7.70247 56.4013
7.88135 57.9946
8.06026 62.3277
8.23919 69.5874
8.41812 85.5915
8.59709 1087.12
8.77609 100.227
8.9551 93.8288
9.13412 81.9537
9.31318 82.1703
9.49226 84.3925
9.67134 101.506
9.85047 99.7847
10.0296 316.983
10.2088 448.877
10.388 104.903
10.5672 495.322
10.7465 86.9366
10.9257 79.2111
11.105 72.1704
11.2844 71.6289
11.4637 65.1636
11.6431 63.9534
11.8225 62.6453
12.002 63.5141
12.1814 146.023
12.3609 73.2722
12.5405 64.7333
12.72 71.6607
12.8996 71.0149
13.0792 78.6228
13.2589 224.955
13.4386 129.686
13.6183 235.98
13.7981 100.659
13.9779 76.0258
14.1577 72.9769
14.3376 72.4258
14.5175 68.7739
14.6974 70.703
14.8774 106.5
15.0574 155.031
15.2374 71.9228
15.4175 66.7617
15.5976 65.7355
15.7778 92.1083
15.958 163.948
16.1382 63.8132
16.3185 59.3099
16.4988 55.809
16.6792 54.6804
16.8596 55.7191
17.04 55.8721
17.2205 65.9483
17.401 72.6345
17.5815 59.3789
17.7622 61.3553
17.9428 72.5745
18.1237 138.015
18.3044 89.2805
18.4852 80.0856
18.666 60.5898
18.8469 58.3356
19.0278 57.1778
19.2088 59.5949
19.3898 76.9946
19.5709 54.5286
19.752 53.5399
19.9332 56.091
20.1144 69.9272
20.2957 63.6145
20.477 54.3007
20.6586 49.8908
20.84 49.1226
21.0215 48.8326
21.203 50.7293
21.3846 49.1254
21.5662 48.9162
21.7479 52.3812
21.9297 64.5709
22.1115 56.1202
22.2933 50.1346
22.4753 49.2279
22.6572 48.8271
22.8393 51.6753
23.0214 57.9211
23.2037 49.0069
23.3859 49.6432
23.5682 56.8592
23.7505 48.6971
23.9329 45.407
24.1154 44.3303
24.2979 43.6577
24.4805 43.049
24.6631 42.9351
24.8458 42.3871
25.0286 42.8308
25.2114 44.7021
25.3943 44.7197
25.5773 41.0185
25.7605 40.6884
25.9436 40.89
26.1268 41.8475
26.31 40.2699
26.4933 40.6775
26.6767 42.3547
26.8601 40.599
27.0437 39.0952
27.2272 38.6709
27.4109 38.4568
27.5946 38.413
27.7784 37.9157
27.9623 38.5242
28.1462 39.045
28.3304 37.3148
28.5145 36.1502
28.6987 35.8594
28.8829 35.6441
29.0673 34.7855
29.2517 34.457
29.4361 34.3741
29.6207 33.4377
29.8053 33.0649
29.99 32.6891
30.1748 32.5519
30.3597 32.5013
30.5447 32.3037
30.7297 32.2805
30.915 31.8278
31.1002 31.2112
31.2855 30.963
31.4708 30.9449
31.6563 30.586
31.8418 30.3587
32.0275 30.1236
32.2132 29.45
32.399 28.9801
32.5848 28.5981
32.7708 28.2305
32.9569 28.1373
33.143 27.9306
33.3293 27.5028
33.5158 27.1802
33.7022 26.6806
33.8887 26.3682
34.0753 26.1185
34.262 25.8018
34.4488 25.3999
34.6357 25.059
34.8227 24.7589
35.0098 24.5517
35.1969 24.237
35.3842 24.0781
35.5716 23.8598
35.759 23.5607
35.9468 23.2535
36.1345 23.0316
36.3222 22.7664
36.5101 22.4564
36.6981 22.2334
36.8861 21.8489
37.0743 21.568
37.2626 21.4006
37.451 21.0537
37.6395 20.9715
37.8281 20.5974
38.0168 20.3076
38.2056 20.013
38.3945 19.7248
38.5837 19.5471
38.7728 19.324
38.9621 19.0284
39.1514 18.7782
39.3409 18.5561
39.5304 18.2819
39.7201 18.1367
39.9099 17.9079
40.0999 17.7253
40.2899 17.3424
40.48 17.2181
40.6703 17.0224
40.8607 16.8306
41.0512 16.589
41.242 16.3117
41.4327 16.177
41.6236 15.9081
41.8146 15.7549
42.0057 15.4575
42.1969 15.2889
42.3882 15.1268
42.5797 14.8585
42.7713 14.6996
42.963 14.4834
43.1549 14.314
43.3468 14.0736
43.5389 13.9297
43.7312 13.6924
43.9237 13.5174
44.1162 13.3217
44.3088 13.172
44.5016 12.9237
44.6945 12.7997
44.8875 12.6293
45.0806 12.4578
45.2739 12.2645
45.4673 12.0812
45.6609 11.9124
45.8546 11.7249
46.0484 11.6171
46.2424 11.4131
46.4365 11.246
46.631 11.0795
46.8254 10.9436
47.0199 10.763
47.2146 10.6169
47.4095 10.4914
47.6044 10.2651
47.7996 10.1437
47.9948 10.0261
48.1902 9.84956
48.3858 9.68816
48.5815 9.5719
48.7774 9.45122
48.9734 9.2965
49.1696 9.14694
49.3661 9.01441
49.5626 8.85837
49.7592 8.71255
49.956 8.61105
50.153 8.49288
50.3501 8.3669
50.5474 8.22364
50.7448 8.12518
50.9424 7.99545
51.1402 7.84889
51.3381 7.69982
51.5362 7.60083
51.7344 7.46595
51.9328 7.33557
52.1316 7.18331
52.3304 7.09576
52.5293 6.97375
52.7284 6.83734
52.9276 6.76163
53.1271 6.66115
53.3267 6.5214
53.5265 6.44591
53.7264 6.30116
53.9266 6.18243
54.1269 6.07077
54.3274 5.95511
54.528 5.81517
54.7289 5.66142
54.9301 5.51468
55.1314 5.33775
55.3328 5.17203
55.5344 4.93318
55.7361 4.84016