Folder: NiFe_MOF_catalyst_paper/XRD (part 84)

File: Ni3Fe_FD0451.xy
TT I
1.27165 7.47626
1.45013 6.3965
1.62863 5.56556
1.80712 5.25567
1.98562 4.7828
2.16411 4.66619
2.34263 5.12655
2.52115 6.44572
2.69965 7.60539
2.87818 8.34104
3.05672 10.9903
3.23527 15.3848
3.4138 18.8546
3.59237 23.5241
3.77094 26.0062
3.9495 30.2382
4.12809 34.7678
4.30669 145.919
4.4853 59.2926
4.6639 56.2995
4.84253 68.8253
5.02118 89.92
5.19981 503.856
5.37848 203.568
5.55716 104.855
5.73586 94.855
5.91455 99.2931
6.09328 4291.91
6.27201 84.2436
6.45075 68.1292
6.62952 62.8131
6.8083 58.8658
6.98711 56.8917
7.16591 55.4765
7.34475 77.8674
7.5236 55.3655
7.70247 57.0701
7.88135 58.7627
8.06026 63.0294
8.23919 70.5257
8.41812 86.995
8.59709 1237.09
8.77609 101.9
8.9551 91.0281
9.13412 83.3486
9.31318 84.3903
9.49226 86.0727
9.67134 97.4823
9.85047 101.999
10.0296 406.671
10.2088 419.408
10.388 107.787
10.5672 494.343
10.7465 88.0681
10.9257 79.1988
11.105 72.7262
11.2844 70.3924
11.4637 65.7767
11.6431 64.3537
11.8225 63.3852
12.002 65.2983
12.1814 155.934
12.3609 69.6432
12.5405 65.8359
12.72 69.7981
12.8996 72.2714
13.0792 81.5821
13.2589 249.576
13.4386 125.493
13.6183 251.528
13.7981 97.9967
13.9779 76.8533
14.1577 73.2229
14.3376 72.1437
14.5175 70.3801
14.6974 71.7753
14.8774 117.652
15.0574 149.648
15.2374 71.3421
15.4175 67.4806
15.5976 67.4424
15.7778 100.88
15.958 156.905
16.1382 62.886
16.3185 59.0934
16.4988 56.4945
16.6792 55.3804
16.8596 55.9308
17.04 57.2749
17.2205 68.4357
17.401 71.7905
17.5815 60.3227
17.7622 62.5077
17.9428 76.9975
18.1237 139.304
18.3044 91.8756
18.4852 78.2368
18.666 61.4725
18.8469 59.1109
19.0278 57.7288
19.2088 60.9894
19.3898 76.8491
19.5709 55.1453
19.752 54.2153
19.9332 57.6523
20.1144 70.8085
20.2957 64.3508
20.477 54.379
20.6586 50.3612
20.84 49.6454
21.0215 49.6137
21.203 51.6426
21.3846 49.9508
21.5662 50.0547
21.7479 54.0451
21.9297 65.5482
22.1115 56.771
22.2933 50.6723
22.4753 49.6541
22.6572 49.8649
22.8393 53.1493
23.0214 58.0954
23.2037 49.6701
23.3859 50.8747
23.5682 57.4381
23.7505 48.973
23.9329 45.8593
24.1154 44.7792
24.2979 44.1699
24.4805 43.6362
24.6631 43.6793
24.8458 43.0441
25.0286 43.7775
25.2114 45.4232
25.3943 45.4008
25.5773 41.6381
25.7605 41.1806
25.9436 41.5029
26.1268 42.4368
26.31 40.7009
26.4933 41.3614
26.6767 42.9001
26.8601 41.1111
27.0437 39.6389
27.2272 39.1978
27.4109 39.1438
27.5946 39.0696
27.7784 38.4263
27.9623 39.0823
28.1462 39.4247
28.3304 37.7455
28.5145 36.5684
28.6987 36.2528
28.8829 36.0543
29.0673 35.2837
29.2517 34.9081
29.4361 34.6591
29.6207 33.7078
29.8053 33.4497
29.99 33.2539
30.1748 33.006
30.3597 32.7361
30.5447 32.7801
30.7297 32.7896
30.915 32.0936
31.1002 31.7243
31.2855 31.3158
31.4708 31.3259
31.6563 30.914
31.8418 30.6231
32.0275 30.3902
32.2132 29.9203
32.399 29.3696
32.5848 28.897
32.7708 28.6687
32.9569 28.5343
33.143 28.3369
33.3293 27.8613
33.5158 27.4934
33.7022 27.0571
33.8887 26.728
34.0753 26.4438
34.262 26.1883
34.4488 25.6444
34.6357 25.4304
34.8227 25.0287
35.0098 24.9018
35.1969 24.6315
35.3842 24.3762
35.5716 24.1876
35.759 23.8472
35.9468 23.4686
36.1345 23.2053
36.3222 23.0108
36.5101 22.779
36.6981 22.5159
36.8861 22.222
37.0743 21.8445
37.2626 21.6712
37.451 21.2803
37.6395 21.1812
37.8281 20.8442
38.0168 20.549
38.2056 20.2607
38.3945 19.9733
38.5837 19.7011
38.7728 19.4703
38.9621 19.2699
39.1514 19.0181
39.3409 18.7008
39.5304 18.5881
39.7201 18.4116
39.9099 18.1533
40.0999 17.885
40.2899 17.6899
40.48 17.477
40.6703 17.1965
40.8607 16.96
41.0512 16.7517
41.242 16.4931
41.4327 16.2588
41.6236 16.0282
41.8146 15.9189
42.0057 15.6535
42.1969 15.4621
42.3882 15.3202
42.5797 15.0941
42.7713 14.8743
42.963 14.6707
43.1549 14.4309
43.3468 14.2221
43.5389 14.0595
43.7312 13.8422
43.9237 13.666
44.1162 13.5407
44.3088 13.3114
44.5016 13.0591
44.6945 12.941
44.8875 12.7353
45.0806 12.5448
45.2739 12.3883
45.4673 12.1813
45.6609 12.0368
45.8546 11.8741
46.0484 11.6783
46.2424 11.5378
46.4365 11.379
46.631 11.1934
46.8254 10.9757
47.0199 10.8446
47.2146 10.6951
47.4095 10.5622
47.6044 10.3977
47.7996 10.2193
47.9948 10.0626
48.1902 9.96429
48.3858 9.78395
48.5815 9.70831
48.7774 9.51493
48.9734 9.38954
49.1696 9.22244
49.3661 9.11217
49.5626 8.92448
49.7592 8.82677
49.956 8.73002
50.153 8.59974
50.3501 8.3911
50.5474 8.31386
50.7448 8.16967
50.9424 8.04247
51.1402 7.93265
51.3381 7.78375
51.5362 7.68414
51.7344 7.53654
51.9328 7.4282
52.1316 7.28424
52.3304 7.18784
52.5293 7.0323
52.7284 6.96761
52.9276 6.80839
53.1271 6.6956
53.3267 6.60298
53.5265 6.45682
53.7264 6.38352
53.9266 6.23344
54.1269 6.15975
54.3274 6.04357
54.528 5.9024
54.7289 5.74705
54.9301 5.51847
55.1314 5.43702
55.3328 5.19604
55.5344 5.08733
55.7361 4.8502

File: Ni3Fe_FD0452.xy
TT I
1.27165 7.52227
1.45013 6.46433
1.62863 5.5412
1.80712 5.06513
1.98562 4.51137
2.16411 4.12584
2.34263 4.80401
2.52115 6.25958
2.69965 7.79435
2.87818 8.47422
3.05672 10.5537
3.23527 14.7615
3.4138 19.5582
3.59237 23.6063
3.77094 26.2223
3.9495 30.3231
4.12809 35.0511
4.30669 144.689
4.4853 58.6816
4.6639 56.2293
4.84253 68.6388
5.02118 89.8236
5.19981 504.752
5.37848 202.139
5.55716 104.523
5.73586 94.7881
5.91455 98.8156
6.09328 4244.96
6.27201 84.3677
6.45075 68.6923
6.62952 62.9839
6.8083 58.962
6.98711 56.3544
7.16591 55.9469
7.34475 77.6858
7.5236 55.3914
7.70247 57.0438
7.88135 58.5226
8.06026 63.0861
8.23919 70.8073
8.41812 86.8742
8.59709 1231.91
8.77609 102.084
8.9551 90.3673
9.13412 83.1837
9.31318 84.5275
9.49226 86.0895
9.67134 97.1379
9.85047 101.953
10.0296 406.806
10.2088 410.066
10.388 107.717
10.5672 493.223
10.7465 87.9239
10.9257 78.9977
11.105 72.4153
11.2844 70.3941
11.4637 65.8163
11.6431 64.2048
11.8225 63.3663
12.002 65.2346
12.1814 155.455
12.3609 69.4052
12.5405 65.6003
12.72 69.5205
12.8996 72.3645
13.0792 81.7556
13.2589 249.494
13.4386 125.695
13.6183 251.542
13.7981 97.9376
13.9779 77.0607
14.1577 73.4544
14.3376 72.0631
14.5175 70.0712
14.6974 71.7262
14.8774 117.499
15.0574 149.255
15.2374 71.4303
15.4175 67.4241
15.5976 67.0334
15.7778 100.783
15.958 156.768
16.1382 63.0023
16.3185 59.2495
16.4988 56.2448
16.6792 55.3364
16.8596 56.0137
17.04 57.0102
17.2205 68.4917
17.401 71.6819
17.5815 60.3185
17.7622 62.5939
17.9428 76.8735
18.1237 139.783
18.3044 91.6781
18.4852 78.2633
18.666 61.3145
18.8469 59.0239
19.0278 57.8104
19.2088 60.8994
19.3898 76.8101
19.5709 55.0091
19.752 54.2875
19.9332 57.6888
20.1144 70.8387
20.2957 64.2824
20.477 54.4352
20.6586 50.4883
20.84 49.5703
21.0215 49.3806
21.203 51.5926
21.3846 49.9491
21.5662 49.7625
21.7479 53.9607
21.9297 65.3747
22.1115 56.6111
22.2933 50.6563
22.4753 49.4959
22.6572 49.8287
22.8393 53.1706
23.0214 58.1657
23.2037 49.598
23.3859 50.9284
23.5682 57.4044
23.7505 48.9386
23.9329 45.8939
24.1154 44.9251
24.2979 44.1053
24.4805 43.6288
24.6631 43.5856
24.8458 42.8761
25.0286 43.8334
25.2114 45.3925
25.3943 45.2111
25.5773 41.4778
25.7605 41.1123
25.9436 41.5732
26.1268 42.452
26.31 40.7634
26.4933 41.3992
26.6767 42.8839
26.8601 41.1267
27.0437 39.5081
27.2272 39.1187
27.4109 39.1363
27.5946 39.1014
27.7784 38.5252
27.9623 39.1085
28.1462 39.5609
28.3304 37.6318
28.5145 36.5291
28.6987 36.0868
28.8829 35.8583
29.0673 35.3127
29.2517 34.8678
29.4361 34.771
29.6207 33.701
29.8053 33.4681
29.99 33.1298
30.1748 32.8818
30.3597 32.872
30.5447 32.5935
30.7297 32.732
30.915 32.0552
31.1002 31.6609
31.2855 31.2512
31.4708 31.3256
31.6563 30.9115
31.8418 30.6943
32.0275 30.3832
32.2132 29.9167
32.399 29.4361
32.5848 28.899
32.7708 28.7254
32.9569 28.5231
33.143 28.2324
33.3293 27.8231
33.5158 27.5144
33.7022 27.0237
33.8887 26.7438
34.0753 26.4195
34.262 26.0218
34.4488 25.6615
34.6357 25.2808
34.8227 25.0394
35.0098 24.9198
35.1969 24.5574
35.3842 24.2887
35.5716 24.0985
35.759 23.8239
35.9468 23.4111
36.1345 23.2251
36.3222 23.0201
36.5101 22.7358
36.6981 22.533
36.8861 22.1679
37.0743 21.8499
37.2626 21.5464
37.451 21.3356
37.6395 21.1859
37.8281 20.7688
38.0168 20.4604
38.2056 20.265
38.3945 19.9476
38.5837 19.7466
38.7728 19.529
38.9621 19.2786
39.1514 18.969
39.3409 18.7229
39.5304 18.5587
39.7201 18.3637
39.9099 18.0668
40.0999 17.8387
40.2899 17.6446
40.48 17.403
40.6703 17.2223
40.8607 16.9897
41.0512 16.7859
41.242 16.5781
41.4327 16.2848
41.6236 16.1418
41.8146 15.9228
42.0057 15.6515
42.1969 15.4299
42.3882 15.2964
42.5797 15.0774
42.7713 14.8191
42.963 14.694
43.1549 14.4116
43.3468 14.2686
43.5389 14.0298
43.7312 13.8495
43.9237 13.6912
44.1162 13.4397
44.3088 13.268
44.5016 13.0569
44.6945 12.9029
44.8875 12.7385
45.0806 12.5479
45.2739 12.3389
45.4673 12.2151
45.6609 12.0594
45.8546 11.8706
46.0484 11.714
46.2424 11.4944
46.4365 11.3457
46.631 11.182
46.8254 11.0136
47.0199 10.8596
47.2146 10.7314
47.4095 10.5059
47.6044 10.4
47.7996 10.2149
47.9948 10.0994
48.1902 9.93046
48.3858 9.82855
48.5815 9.65932
48.7774 9.543
48.9734 9.35237
49.1696 9.27141
49.3661 9.07889
49.5626 8.92901
49.7592 8.84445
49.956 8.69833
50.153 8.5246
50.3501 8.41207
50.5474 8.28594
50.7448 8.1666
50.9424 8.0654
51.1402 7.95222
51.3381 7.79681
51.5362 7.64583
51.7344 7.50335
51.9328 7.39436
52.1316 7.27816
52.3304 7.17358
52.5293 7.02877
52.7284 6.9457
52.9276 6.78296
53.1271 6.74507
53.3267 6.63121
53.5265 6.47878
53.7264 6.3668
53.9266 6.23992
54.1269 6.10831
54.3274 6.03456
54.528 5.84534
54.7289 5.74466
54.9301 5.59167
55.1314 5.42205
55.3328 5.24141
55.5344 5.01364
55.7361 4.91829

File: Ni3Fe_FD0453.xy
TT I
1.27165 8.18361
1.45013 5.87236
1.62863 6.20407
1.80712 4.70937
1.98562 4.75865
2.16411 4.92511
2.34263 5.31719
2.52115 6.79987
2.69965 7.43893
2.87818 8.2614
3.05672 11.478
3.23527 14.6843
3.4138 18.8949
3.59237 23.3194
3.77094 26.0956
3.9495 29.5293
4.12809 35.3178
4.30669 143.399
4.4853 58.4807
4.6639 56.3754
4.84253 68.839
5.02118 89.8324
5.19981 506.861
5.37848 203.874
5.55716 104.376
5.73586 94.7279
5.91455 98.6709
6.09328 4246.1
6.27201 84.0405
6.45075 68.4742
6.62952 63.1141
6.8083 58.9953
6.98711 56.2289
7.16591 56.1194
7.34475 77.707
7.5236 55.1101
7.70247 56.724
7.88135 58.483
8.06026 63.2502
8.23919 70.2442
8.41812 86.5668
8.59709 1230.23
8.77609 101.92
8.9551 90.9406
9.13412 83.4983
9.31318 84.4443
9.49226 86.2078
9.67134 97.1106
9.85047 102.399
10.0296 406.373
10.2088 415.534
10.388 107.534
10.5672 493.302
10.7465 88.1914
10.9257 79.2483
11.105 72.6748
11.2844 70.3258
11.4637 65.7888
11.6431 64.6187
11.8225 63.4991
12.002 65.4048
12.1814 155.683
12.3609 69.6182
12.5405 65.2668
12.72 69.6693
12.8996 72.1841
13.0792 81.4774
13.2589 249.41
13.4386 125.559
13.6183 251.526
13.7981 98.0355
13.9779 77.0459
14.1577 73.2443
14.3376 72.0366
14.5175 70.1527
14.6974 71.7387
14.8774 117.523
15.0574 149.749
15.2374 71.2891
15.4175 67.2447
15.5976 67.0419
15.7778 100.87
15.958 157.143
16.1382 62.9629
16.3185 59.1733
16.4988 56.4079
16.6792 55.4418
16.8596 55.9152
17.04 56.7869
17.2205 68.417
17.401 71.9206
17.5815 60.1666
17.7622 62.5081
17.9428 76.7648
18.1237 139.453
18.3044 91.6113
18.4852 78.343
18.666 61.4131
18.8469 59.0003
19.0278 57.8695
19.2088 61.0002
19.3898 76.7163
19.5709 54.8631
19.752 54.2953
19.9332 57.609
20.1144 70.8538
20.2957 64.4306
20.477 54.2698
20.6586 50.6151
20.84 49.7129
21.0215 49.3006
21.203 51.6183
21.3846 49.8864
21.5662 49.8479
21.7479 54.0058
21.9297 65.3983
22.1115 56.6032
22.2933 50.6194
22.4753 49.6507
22.6572 49.8409
22.8393 53.1658
23.0214 58.2817
23.2037 49.6527
23.3859 50.7909
23.5682 57.3243
23.7505 49.0296
23.9329 45.9122
24.1154 44.8178
24.2979 44.0228
24.4805 43.7091
24.6631 43.5315
24.8458 42.9963
25.0286 43.539
25.2114 45.2991
25.3943 45.354
25.5773 41.5871
25.7605 41.1836
25.9436 41.5891
26.1268 42.499
26.31 40.8364
26.4933 41.4652
26.6767 42.8437
26.8601 41.0341
27.0437 39.6267
27.2272 39.174
27.4109 39.0694
27.5946 39.1316
27.7784 38.5491
27.9623 39.1302
28.1462 39.3645
28.3304 37.656
28.5145 36.5949
28.6987 36.1163
28.8829 36.0637
29.0673 35.2316
29.2517 34.8526
29.4361 34.5628
29.6207 33.6968
29.8053 33.3876
29.99 33.0649
30.1748 33.0526
30.3597 32.7994
30.5447 32.6723
30.7297 32.7669
30.915 32.1265
31.1002 31.6462
31.2855 31.3627
31.4708 31.2386
31.6563 30.8754
31.8418 30.676
32.0275 30.4155
32.2132 29.8834
32.399 29.397
32.5848 28.8967
32.7708 28.5799
32.9569 28.5185
33.143 28.2071
33.3293 27.8498
33.5158 27.4803
33.7022 27.1186
33.8887 26.7228
34.0753 26.4215
34.262 26.0364
34.4488 25.6685
34.6357 25.4064
34.8227 25.0612
35.0098 24.9345
35.1969 24.5224
35.3842 24.318
35.5716 24.1999
35.759 23.7398
35.9468 23.485
36.1345 23.2777
36.3222 23.0546
36.5101 22.7542
36.6981 22.5081
36.8861 22.1144
37.0743 21.797
37.2626 21.5728
37.451 21.3016
37.6395 21.1603
37.8281 20.7864
38.0168 20.4948
38.2056 20.2637
38.3945 20.0476
38.5837 19.7374
38.7728 19.5318
38.9621 19.3131
39.1514 19.0087
39.3409 18.703
39.5304 18.5029
39.7201 18.398
39.9099 18.112
40.0999 17.937
40.2899 17.5977
40.48 17.4359
40.6703 17.1846
40.8607 16.9901
41.0512 16.7606
41.242 16.5361
41.4327 16.3396
41.6236 16.118
41.8146 15.899
42.0057 15.6303
42.1969 15.4835
42.3882 15.2752
42.5797 15.0843
42.7713 14.802
42.963 14.6764
43.1549 14.4079
43.3468 14.2262
43.5389 14.0323
43.7312 13.7953
43.9237 13.6455
44.1162 13.4554
44.3088 13.2662
44.5016 13.048
44.6945 12.9383
44.8875 12.7047
45.0806 12.5662
45.2739 12.3739
45.4673 12.2447
45.6609 12.0334
45.8546 11.8874
46.0484 11.7159
46.2424 11.4844
46.4365 11.3802
46.631 11.1885
46.8254 11.0392
47.0199 10.8961
47.2146 10.6973
47.4095 10.5483
47.6044 10.4014
47.7996 10.2285
47.9948 10.1058
48.1902 9.94911
48.3858 9.77989
48.5815 9.69334
48.7774 9.51885
48.9734 9.38106
49.1696 9.23182
49.3661 9.11011
49.5626 8.94435
49.7592 8.84675
49.956 8.74713
50.153 8.54634
50.3501 8.41426
50.5474 8.31822
50.7448 8.16819
50.9424 8.07644
51.1402 7.91212
51.3381 7.78084
51.5362 7.69381
51.7344 7.50814
51.9328 7.40753
52.1316 7.29061
52.3304 7.17239
52.5293 6.98258
52.7284 6.93225
52.9276 6.82826
53.1271 6.69354
53.3267 6.61954
53.5265 6.47537
53.7264 6.36285
53.9266 6.27528
54.1269 6.15746
54.3274 6.04873
54.528 5.85791
54.7289 5.79887
54.9301 5.59496
55.1314 5.45364
55.3328 5.23016
55.5344 5.04234
55.7361 4.93066

File: Ni3Fe_FD0454.xy
TT I
1.27165 7.4821
1.45013 6.39104
1.62863 5.64065
1.80712 4.55843
1.98562 4.87251
2.16411 4.53586
2.34263 4.99828
2.52115 6.30307
2.69965 7.71238
2.87818 8.56908
3.05672 10.9966
3.23527 15.3721
3.4138 19.0107
3.59237 23.7194
3.77094 25.9698
3.9495 29.7722
4.12809 34.9649
4.30669 141.944
4.4853 58.4236
4.6639 56.8321
4.84253 68.717
5.02118 90.4512
5.19981 510.174
5.37848 203.162
5.55716 104.35
5.73586 94.5425
5.91455 98.9225
6.09328 4240.24
6.27201 84.0321
6.45075 68.4729
6.62952 63.3873
6.8083 59.1468
6.98711 56.5467
7.16591 56.073
7.34475 76.8064
7.5236 55.3981
7.70247 57.0737
7.88135 58.3317
8.06026 63.28
8.23919 70.9389
8.41812 86.822
8.59709 1232.52
8.77609 101.948
8.9551 90.885
9.13412 83.7489
9.31318 84.678
9.49226 86.3692
9.67134 96.95
9.85047 102.362
10.0296 408.062
10.2088 413.003
10.388 107.948
10.5672 493.948
10.7465 88.034
10.9257 79.2457
11.105 72.6126
11.2844 70.3041
11.4637 65.9065
11.6431 64.5815
11.8225 63.5739
12.002 65.3743
12.1814 155.764
12.3609 69.601
12.5405 65.3596
12.72 69.7518
12.8996 72.5114
13.0792 81.5959
13.2589 250.237
13.4386 125.443
13.6183 252.338
13.7981 98.0832
13.9779 77.2781
14.1577 73.3952
14.3376 71.9784
14.5175 70.1844
14.6974 72.1283
14.8774 117.93
15.0574 149.25
15.2374 71.3061
15.4175 67.5781
15.5976 67.1463
15.7778 101.341
15.958 156.677
16.1382 62.9346
16.3185 58.9166
16.4988 56.4251
16.6792 55.3407
16.8596 56.099
17.04 57.0857
17.2205 68.5167
17.401 71.7158
17.5815 60.3861
17.7622 62.3892
17.9428 77.3024
18.1237 139.137
18.3044 91.83
18.4852 78.1627
18.666 61.3031
18.8469 59.0244
19.0278 57.959
19.2088 61.1077
19.3898 76.6851
19.5709 55.0664
19.752 54.2715
19.9332 57.8119
20.1144 70.9407
20.2957 64.4502
20.477 54.5078
20.6586 50.5459
20.84 49.6308
21.0215 49.3774
21.203 51.5707
21.3846 49.8633
21.5662 49.8676
21.7479 53.8825
21.9297 65.3649
22.1115 56.6268
22.2933 50.6373
22.4753 49.4839
22.6572 49.9019
22.8393 53.1024
23.0214 58.1245
23.2037 49.716
23.3859 50.8026
23.5682 57.381
23.7505 49.0926
23.9329 46.1189
24.1154 44.8203
24.2979 44.1665
24.4805 43.6306
24.6631 43.5919
24.8458 42.9196
25.0286 43.6763
25.2114 45.3846
25.3943 45.2126
25.5773 41.5437
25.7605 41.1652
25.9436 41.5562
26.1268 42.3236
26.31 40.8153
26.4933 41.4426
26.6767 42.8568
26.8601 41.0012
27.0437 39.5317
27.2272 39.0556
27.4109 38.935
27.5946 39.0395
27.7784 38.4986
27.9623 39.0155
28.1462 39.4975
28.3304 37.7555
28.5145 36.6667
28.6987 36.2361
28.8829 36.0248
29.0673 35.3122
29.2517 34.8323
29.4361 34.6218
29.6207 33.6616
29.8053 33.4448
29.99 33.091
30.1748 32.9593
30.3597 32.7863
30.5447 32.7107
30.7297 32.6444
30.915 32.1797
31.1002 31.586
31.2855 31.3168
31.4708 31.3512
31.6563 30.8109
31.8418 30.6093
32.0275 30.357
32.2132 29.9096
32.399 29.333
32.5848 29.0169
32.7708 28.5845
32.9569 28.3913
33.143 28.2956
33.3293 27.8336
33.5158 27.52
33.7022 27.02
33.8887 26.7346
34.0753 26.4308
34.262 26.0516
34.4488 25.7039
34.6357 25.3472
34.8227 25.1236
35.0098 24.8837
35.1969 24.536
35.3842 24.3841
35.5716 24.149
35.759 23.8488
35.9468 23.4148
36.1345 23.2804
36.3222 23.0194
36.5101 22.7455
36.6981 22.4686
36.8861 22.1483
37.0743 21.7992
37.2626 21.586
37.451 21.2921
37.6395 21.129
37.8281 20.8401
38.0168 20.579
38.2056 20.2457
38.3945 20.0418
38.5837 19.7513
38.7728 19.5335
38.9621 19.2639
39.1514 19.0358
39.3409 18.7285
39.5304 18.4953
39.7201 18.3274
39.9099 18.1116
40.0999 17.8916
40.2899 17.6165
40.48 17.4075
40.6703 17.2468
40.8607 17.0263
41.0512 16.7444
41.242 16.5122
41.4327 16.263
41.6236 16.151
41.8146 15.9003
42.0057 15.6657
42.1969 15.4051
42.3882 15.284
42.5797 15.0455
42.7713 14.8986
42.963 14.6374
43.1549 14.4674
43.3468 14.2182
43.5389 14.0688
43.7312 13.8684
43.9237 13.65
44.1162 13.4555
44.3088 13.2631
44.5016 13.0657
44.6945 12.9326
44.8875 12.7839
45.0806 12.5478
45.2739 12.4487
45.4673 12.1856
45.6609 12.0223
45.8546 11.8605
46.0484 11.6975
46.2424 11.5347
46.4365 11.3752
46.631 11.1623
46.8254 11.0112
47.0199 10.8986
47.2146 10.7521
47.4095 10.5721
47.6044 10.3775
47.7996 10.2367
47.9948 10.1096
48.1902 9.91936
48.3858 9.8105
48.5815 9.65592
48.7774 9.50355
48.9734 9.41328
49.1696 9.26169
49.3661 9.07929
49.5626 8.93765
49.7592 8.81752
49.956 8.68034
50.153 8.54429
50.3501 8.44501
50.5474 8.29891
50.7448 8.20871
50.9424 8.05189
51.1402 7.9219
51.3381 7.78059
51.5362 7.67918
51.7344 7.54173
51.9328 7.40965
52.1316 7.27954
52.3304 7.20781
52.5293 7.05656
52.7284 6.94127
52.9276 6.82565
53.1271 6.69917
53.3267 6.58518
53.5265 6.47958
53.7264 6.37784
53.9266 6.27355
54.1269 6.14232
54.3274 6.07777
54.528 5.87465
54.7289 5.72748
54.9301 5.54175
55.1314 5.4656
55.3328 5.23207
55.5344 5.02284
55.7361 4.86749

File: Ni3Fe_FD0455.xy
TT I
1.27165 7.54036
1.45013 6.06098
1.62863 5.44389
1.80712 5.19595
1.98562 4.19719
2.16411 5.00939
2.34263 4.95796
2.52115 6.73772
2.69965 7.44581
2.87818 8.45107
3.05672 10.4527
3.23527 14.6951
3.4138 19.1475
3.59237 23.2501
3.77094 26.0952
3.9495 29.9599
4.12809 35.0246
4.30669 140.581
4.4853 57.9709
4.6639 56.8118
4.84253 68.7207
5.02118 89.6543
5.19981 509.595
5.37848 203.548
5.55716 104.57
5.73586 94.765
5.91455 98.9304
6.09328 4232.35
6.27201 83.9626
6.45075 68.5289
6.62952 63.5156
6.8083 59.4292
6.98711 56.2643
7.16591 55.9297
7.34475 76.9237
7.5236 55.2044
7.70247 56.9694
7.88135 58.5412
8.06026 63.1625
8.23919 70.8233
8.41812 86.8947
8.59709 1230.81
8.77609 102.178
8.9551 90.8522
9.13412 83.7998
9.31318 84.6586
9.49226 86.308
9.67134 96.9664
9.85047 102.419
10.0296 408.001
10.2088 412.304
10.388 107.993
10.5672 491.829
10.7465 88.1391
10.9257 78.8127
11.105 72.3022
11.2844 70.3473
11.4637 65.5943
11.6431 64.4889
11.8225 63.386
12.002 65.4835
12.1814 155.532
12.3609 69.4696
12.5405 65.3705
12.72 69.7846
12.8996 72.4179
13.0792 81.816
13.2589 249.605
13.4386 125.472
13.6183 252.96
13.7981 97.9932
13.9779 77.2642
14.1577 73.4407
14.3376 72.0074
14.5175 70.1148
14.6974 71.8039
14.8774 117.733
15.0574 148.753
15.2374 71.2132
15.4175 67.5825
15.5976 67.2382
15.7778 101.356
15.958 156.45
16.1382 63.121
16.3185 59.0953
16.4988 56.2757
16.6792 55.493
16.8596 55.9801
17.04 56.9471
17.2205 68.4496
17.401 71.8818
17.5815 60.1949
17.7622 62.5974
17.9428 77.0062
18.1237 139.484
18.3044 91.876
18.4852 78.1895
18.666 61.3261
18.8469 59.121
19.0278 57.9523
19.2088 60.9486
19.3898 76.6951
19.5709 54.849
19.752 54.235
19.9332 57.8447
20.1144 70.6096
20.2957 64.1914
20.477 54.1932
20.6586 50.5083
20.84 49.5265
21.0215 49.4333
21.203 51.6243
21.3846 49.8457
21.5662 49.9275
21.7479 53.9208
21.9297 65.4171
22.1115 56.5264
22.2933 50.6453
22.4753 49.6592
22.6572 49.9359
22.8393 52.9905
23.0214 58.0683
23.2037 49.7914
23.3859 50.8747
23.5682 57.4202
23.7505 49.1129
23.9329 45.9742
24.1154 44.8581
24.2979 44.2761
24.4805 43.6861
24.6631 43.485
24.8458 43.0204
25.0286 43.6791
25.2114 45.5094
25.3943 45.2579
25.5773 41.5181
25.7605 41.1657
25.9436 41.5965
26.1268 42.3937
26.31 40.9483
26.4933 41.4847
26.6767 42.823
26.8601 41.0567
27.0437 39.6057
27.2272 39.1303
27.4109 39.1591
27.5946 39.1612
27.7784 38.5406
27.9623 39.203
28.1462 39.4857
28.3304 37.7429
28.5145 36.6442
28.6987 36.2226
28.8829 35.9697
29.0673 35.216
29.2517 34.97
29.4361 34.7049
29.6207 33.6013
29.8053 33.4773
29.99 33.0924
30.1748 32.9887
30.3597 32.7425
30.5447 32.7423
30.7297 32.8097
30.915 32.0987
31.1002 31.6131
31.2855 31.427
31.4708 31.31
31.6563 30.8473
31.8418 30.6315
32.0275 30.4209
32.2132 29.8385
32.399 29.3706
32.5848 28.9466
32.7708 28.6369
32.9569 28.4011
33.143 28.268
33.3293 27.7927
33.5158 27.3864
33.7022 27.0284
33.8887 26.7225
34.0753 26.3844
34.262 26.0386
34.4488 25.7162
34.6357 25.4008
34.8227 25.0562
35.0098 24.8062
35.1969 24.6951
35.3842 24.3847
35.5716 24.1151
35.759 23.7971
35.9468 23.4653
36.1345 23.2421
36.3222 23.0347
36.5101 22.7745
36.6981 22.4694
36.8861 22.1216
37.0743 21.8373
37.2626 21.6535
37.451 21.3153
37.6395 21.2364
37.8281 20.7946
38.0168 20.5011
38.2056 20.2596
38.3945 19.9722
38.5837 19.8185
38.7728 19.5377
38.9621 19.2967
39.1514 18.9696
39.3409 18.7396
39.5304 18.5236
39.7201 18.3418
39.9099 18.1539
40.0999 17.9047
40.2899 17.6621
40.48 17.4112
40.6703 17.2486
40.8607 17.0008
41.0512 16.7974
41.242 16.5531
41.4327 16.3481
41.6236 16.1025
41.8146 15.8871
42.0057 15.6633
42.1969 15.4575
42.3882 15.2977
42.5797 15.0576
42.7713 14.8263
42.963 14.6388
43.1549 14.4566
43.3468 14.2248
43.5389 14.0426
43.7312 13.8481
43.9237 13.668
44.1162 13.4255
44.3088 13.2853
44.5016 13.0952
44.6945 12.9474
44.8875 12.6992
45.0806 12.546
45.2739 12.3348
45.4673 12.2078
45.6609 12.0038
45.8546 11.8607
46.0484 11.6802
46.2424 11.5347
46.4365 11.3663
46.631 11.1763
46.8254 10.9986
47.0199 10.8961
47.2146 10.7121
47.4095 10.5544
47.6044 10.3904
47.7996 10.2296
47.9948 10.0544
48.1902 9.97108
48.3858 9.79654
48.5815 9.68009
48.7774 9.54518
48.9734 9.37279
49.1696 9.20764
49.3661 9.10127
49.5626 8.93435
49.7592 8.79907
49.956 8.71922
50.153 8.55309
50.3501 8.40505
50.5474 8.30816
50.7448 8.21455
50.9424 8.07238
51.1402 7.91924
51.3381 7.79334
51.5362 7.68363
51.7344 7.54936
51.9328 7.39568
52.1316 7.27926
52.3304 7.15722
52.5293 7.04004
52.7284 6.94455
52.9276 6.79356
53.1271 6.74626
53.3267 6.64284
53.5265 6.49061
53.7264 6.33744
53.9266 6.27735
54.1269 6.13947
54.3274 6.03228
54.528 5.8981
54.7289 5.68072
54.9301 5.59472
55.1314 5.44461
55.3328 5.24175
55.5344 5.05421
55.7361 4.91887