Folder: NiFe_MOF_catalyst_paper/XRD (part 39)

File: Ni3Fe_FD0199.xy
TT I
1.27165 7.54263
1.45013 6.31057
1.62863 6.37763
1.80712 5.60287
1.98562 5.07171
2.16411 5.21134
2.34263 3.83638
2.52115 5.08665
2.69965 5.91864
2.87818 8.16454
3.05672 10.7534
3.23527 15.2041
3.4138 19.1573
3.59237 22.2491
3.77094 25.817
3.9495 30.25
4.12809 35.0858
4.30669 40.8068
4.4853 48.6433
4.6639 58.3419
4.84253 71.5668
5.02118 97.5816
5.19981 874.659
5.37848 302.135
5.55716 113.098
5.73586 101.724
5.91455 112.116
6.09328 3486.15
6.27201 90.6654
6.45075 70.9601
6.62952 64.4026
6.8083 59.9799
6.98711 57.6611
7.16591 56.4128
7.34475 56.1449
7.5236 58.3226
7.70247 58.2683
7.88135 60.4215
8.06026 65.4666
8.23919 73.3515
8.41812 90.9825
8.59709 1014.78
8.77609 113.041
8.9551 90.9715
9.13412 87.2432
9.31318 89.6654
9.49226 89.6402
9.67134 95.5498
9.85047 106.968
10.0296 536.801
10.2088 640.786
10.388 114.081
10.5672 421.712
10.7465 93.8
10.9257 81.1438
11.105 75.216
11.2844 70.9516
11.4637 68.2408
11.6431 66.6995
11.8225 65.7156
12.002 69.0961
12.1814 135.047
12.3609 71.7362
12.5405 67.6496
12.72 69.9902
12.8996 75.0336
13.0792 86.0257
13.2589 222.252
13.4386 157.433
13.6183 218.304
13.7981 117.205
13.9779 80.4224
14.1577 76.7853
14.3376 73.6167
14.5175 72.8665
14.6974 74.7659
14.8774 119.254
15.0574 180.372
15.2374 73.0546
15.4175 70.1125
15.5976 70.1707
15.7778 103.802
15.958 178.59
16.1382 64.4066
16.3185 60.4643
16.4988 58.1717
16.6792 57.3182
16.8596 57.6218
17.04 59.1836
17.2205 68.8368
17.401 79.0507
17.5815 62.483
17.7622 65.1129
17.9428 84.023
18.1237 135.033
18.3044 89.9021
18.4852 86.4378
18.666 63.9745
18.8469 61.2103
19.0278 59.8083
19.2088 63.2051
19.3898 75.4671
19.5709 57.387
19.752 56.2626
19.9332 59.8597
20.1144 72.1559
20.2957 64.1428
20.477 57.4612
20.6586 52.3262
20.84 51.4711
21.0215 51.507
21.203 52.6716
21.3846 51.8024
21.5662 51.7871
21.7479 55.6701
21.9297 66.2547
22.1115 57.8502
22.2933 52.8565
22.4753 51.009
22.6572 52.135
22.8393 54.2284
23.0214 59.9103
23.2037 51.5656
23.3859 52.8781
23.5682 57.1269
23.7505 51.8182
23.9329 47.6196
24.1154 46.3696
24.2979 45.6223
24.4805 45.1625
24.6631 45.001
24.8458 44.5572
25.0286 45.2525
25.2114 46.7014
25.3943 46.7525
25.5773 43.1604
25.7605 42.551
25.9436 42.7476
26.1268 43.5857
26.31 42.388
26.4933 42.7317
26.6767 44.0665
26.8601 42.4494
27.0437 40.9226
27.2272 40.5264
27.4109 40.359
27.5946 40.4368
27.7784 40.0189
27.9623 40.0401
28.1462 40.5605
28.3304 39.1793
28.5145 37.7778
28.6987 37.3537
28.8829 37.1096
29.0673 36.4555
29.2517 35.92
29.4361 35.7349
29.6207 34.7837
29.8053 34.4952
29.99 34.1766
30.1748 33.9105
30.3597 33.8751
30.5447 33.6373
30.7297 33.6714
30.915 33.1238
31.1002 32.8533
31.2855 32.4133
31.4708 32.2183
31.6563 31.9054
31.8418 31.5537
32.0275 31.4228
32.2132 30.8475
32.399 30.331
32.5848 29.882
32.7708 29.579
32.9569 29.37
33.143 29.1431
33.3293 28.7522
33.5158 28.4112
33.7022 27.8846
33.8887 27.6655
34.0753 27.3283
34.262 26.9351
34.4488 26.5188
34.6357 26.1869
34.8227 25.8363
35.0098 25.6674
35.1969 25.3251
35.3842 25.1051
35.5716 24.9746
35.759 24.5797
35.9468 24.2089
36.1345 24.0005
36.3222 23.7941
36.5101 23.5046
36.6981 23.2578
36.8861 22.8303
37.0743 22.5662
37.2626 22.2579
37.451 22.004
37.6395 21.7845
37.8281 21.484
38.0168 21.1557
38.2056 20.8922
38.3945 20.6405
38.5837 20.4287
38.7728 20.1158
38.9621 19.8433
39.1514 19.596
39.3409 19.3582
39.5304 19.1833
39.7201 18.9255
39.9099 18.7324
40.0999 18.4562
40.2899 18.2174
40.48 17.9499
40.6703 17.7701
40.8607 17.5253
41.0512 17.2998
41.242 17.037
41.4327 16.7953
41.6236 16.5198
41.8146 16.3387
42.0057 16.1535
42.1969 15.9016
42.3882 15.6984
42.5797 15.531
42.7713 15.3378
42.963 15.104
43.1549 14.8478
43.3468 14.6612
43.5389 14.4817
43.7312 14.2404
43.9237 14.0959
44.1162 13.9094
44.3088 13.7051
44.5016 13.4757
44.6945 13.3053
44.8875 13.162
45.0806 12.9027
45.2739 12.7909
45.4673 12.6131
45.6609 12.4238
45.8546 12.2352
46.0484 12.0722
46.2424 11.8924
46.4365 11.7213
46.631 11.5255
46.8254 11.3377
47.0199 11.2216
47.2146 11.0338
47.4095 10.8577
47.6044 10.7328
47.7996 10.5492
47.9948 10.3825
48.1902 10.2781
48.3858 10.141
48.5815 9.97041
48.7774 9.81807
48.9734 9.68751
49.1696 9.51981
49.3661 9.37577
49.5626 9.24154
49.7592 9.08746
49.956 8.99381
50.153 8.82291
50.3501 8.69883
50.5474 8.54037
50.7448 8.423
50.9424 8.31605
51.1402 8.14078
51.3381 8.01477
51.5362 7.88045
51.7344 7.7671
51.9328 7.61471
52.1316 7.51378
52.3304 7.37593
52.5293 7.28719
52.7284 7.1522
52.9276 7.00153
53.1271 6.94955
53.3267 6.81553
53.5265 6.66118
53.7264 6.61403
53.9266 6.43553
54.1269 6.30571
54.3274 6.15234
54.528 6.03594
54.7289 5.85739
54.9301 5.68533
55.1314 5.55624
55.3328 5.25604
55.5344 5.0981
55.7361 4.96396

File: Ni3Fe_FD0200.xy
TT I
1.27165 8.40498
1.45013 6.7026
1.62863 5.50855
1.80712 5.83886
1.98562 5.34982
2.16411 4.99605
2.34263 4.32479
2.52115 4.82527
2.69965 5.93573
2.87818 8.04979
3.05672 10.9852
3.23527 15.6125
3.4138 19.1301
3.59237 22.8328
3.77094 25.8813
3.9495 30.3244
4.12809 35.5796
4.30669 40.607
4.4853 48.9381
4.6639 58.4745
4.84253 71.7246
5.02118 97.8305
5.19981 882.201
5.37848 298.501
5.55716 113.287
5.73586 101.684
5.91455 112.317
6.09328 3490.56
6.27201 90.8556
6.45075 71.1986
6.62952 64.1728
6.8083 59.7651
6.98711 57.4635
7.16591 56.4684
7.34475 56.2876
7.5236 58.2553
7.70247 58.1503
7.88135 60.6781
8.06026 65.4475
8.23919 73.3345
8.41812 91.3163
8.59709 1021.8
8.77609 112.757
8.9551 90.8701
9.13412 87.7674
9.31318 89.2731
9.49226 90.2763
9.67134 95.9065
9.85047 106.945
10.0296 534.765
10.2088 631.93
10.388 114.694
10.5672 421.906
10.7465 93.6183
10.9257 81.1374
11.105 75.2542
11.2844 71.0284
11.4637 67.9447
11.6431 66.5427
11.8225 65.3446
12.002 69.101
12.1814 135.691
12.3609 71.4343
12.5405 67.6277
12.72 69.9505
12.8996 74.8625
13.0792 86.3617
13.2589 222.625
13.4386 156.942
13.6183 219.079
13.7981 116.703
13.9779 80.469
14.1577 76.5436
14.3376 73.6266
14.5175 72.9803
14.6974 74.7221
14.8774 119.197
15.0574 179.196
15.2374 72.7212
15.4175 70.2563
15.5976 70.058
15.7778 103.513
15.958 178.434
16.1382 64.1328
16.3185 60.5971
16.4988 58.3709
16.6792 57.3769
16.8596 57.4443
17.04 59.1721
17.2205 68.6109
17.401 78.609
17.5815 62.3049
17.7622 64.7467
17.9428 83.9786
18.1237 135.54
18.3044 89.8293
18.4852 85.7672
18.666 63.6977
18.8469 61.2154
19.0278 59.7821
19.2088 63.1755
19.3898 75.26
19.5709 57.4888
19.752 56.2036
19.9332 59.7915
20.1144 72.2067
20.2957 64.0747
20.477 57.4971
20.6586 52.2505
20.84 51.5444
21.0215 51.5391
21.203 52.7045
21.3846 51.9598
21.5662 52.0085
21.7479 55.3833
21.9297 66.1603
22.1115 57.7983
22.2933 52.9172
22.4753 50.9318
22.6572 52.2271
22.8393 54.219
23.0214 59.9108
23.2037 51.5726
23.3859 52.8589
23.5682 57.1602
23.7505 51.7288
23.9329 47.7805
24.1154 46.3426
24.2979 45.8355
24.4805 45.0092
24.6631 45.1037
24.8458 44.5655
25.0286 45.2069
25.2114 46.5752
25.3943 46.7445
25.5773 43.01
25.7605 42.511
25.9436 42.7771
26.1268 43.6136
26.31 42.378
26.4933 42.8196
26.6767 43.9842
26.8601 42.4973
27.0437 40.9368
27.2272 40.633
27.4109 40.2167
27.5946 40.2748
27.7784 39.9652
27.9623 40.0681
28.1462 40.7285
28.3304 39.1016
28.5145 37.7391
28.6987 37.4341
28.8829 37.0281
29.0673 36.4123
29.2517 35.8732
29.4361 35.7763
29.6207 34.8091
29.8053 34.434
29.99 34.1506
30.1748 34.0536
30.3597 33.9402
30.5447 33.6501
30.7297 33.7559
30.915 33.2024
31.1002 32.6685
31.2855 32.4156
31.4708 32.3001
31.6563 31.915
31.8418 31.6137
32.0275 31.3468
32.2132 30.9305
32.399 30.3759
32.5848 29.8638
32.7708 29.4982
32.9569 29.3351
33.143 29.0593
33.3293 28.7307
33.5158 28.4199
33.7022 27.8804
33.8887 27.6056
34.0753 27.2586
34.262 26.9142
34.4488 26.5631
34.6357 26.1529
34.8227 25.9208
35.0098 25.6997
35.1969 25.3843
35.3842 25.0968
35.5716 24.8446
35.759 24.5707
35.9468 24.2012
36.1345 24.0265
36.3222 23.7667
36.5101 23.5265
36.6981 23.1315
36.8861 22.8583
37.0743 22.5621
37.2626 22.2679
37.451 21.9848
37.6395 21.8574
37.8281 21.4726
38.0168 21.1793
38.2056 20.9662
38.3945 20.5833
38.5837 20.3573
38.7728 20.1
38.9621 19.8512
39.1514 19.6283
39.3409 19.3582
39.5304 19.1298
39.7201 18.9177
39.9099 18.724
40.0999 18.4202
40.2899 18.1986
40.48 17.9829
40.6703 17.7121
40.8607 17.5935
41.0512 17.3048
41.242 17.0425
41.4327 16.828
41.6236 16.597
41.8146 16.4056
42.0057 16.153
42.1969 15.9277
42.3882 15.7752
42.5797 15.4561
42.7713 15.3211
42.963 15.1356
43.1549 14.9242
43.3468 14.7257
43.5389 14.5087
43.7312 14.288
43.9237 14.0755
44.1162 13.9048
44.3088 13.723
44.5016 13.5001
44.6945 13.3369
44.8875 13.1107
45.0806 12.9414
45.2739 12.7675
45.4673 12.6051
45.6609 12.4192
45.8546 12.2314
46.0484 12.0405
46.2424 11.8976
46.4365 11.7511
46.631 11.4978
46.8254 11.3806
47.0199 11.2282
47.2146 11.0821
47.4095 10.8509
47.6044 10.6875
47.7996 10.5694
47.9948 10.3865
48.1902 10.2422
48.3858 10.0997
48.5815 9.95819
48.7774 9.81482
48.9734 9.69636
49.1696 9.5435
49.3661 9.39645
49.5626 9.22739
49.7592 9.09146
49.956 8.9584
50.153 8.83089
50.3501 8.66597
50.5474 8.60418
50.7448 8.41666
50.9424 8.30093
51.1402 8.18311
51.3381 8.06051
51.5362 7.90863
51.7344 7.76388
51.9328 7.58827
52.1316 7.46368
52.3304 7.41672
52.5293 7.26583
52.7284 7.17077
52.9276 6.96657
53.1271 6.91633
53.3267 6.79083
53.5265 6.68859
53.7264 6.56194
53.9266 6.43553
54.1269 6.34566
54.3274 6.18772
54.528 6.05014
54.7289 5.88404
54.9301 5.70546
55.1314 5.52419
55.3328 5.29337
55.5344 5.08083
55.7361 4.98347

File: Ni3Fe_FD0202.xy
TT I
1.27165 8.41769
1.45013 6.67253
1.62863 6.10429
1.80712 5.42948
1.98562 5.14187
2.16411 4.91211
2.34263 4.20366
2.52115 4.526
2.69965 5.47962
2.87818 7.4747
3.05672 10.9082
3.23527 15.4078
3.4138 19.3063
3.59237 22.7238
3.77094 25.9522
3.9495 30.17
4.12809 35.4588
4.30669 40.7921
4.4853 48.6987
4.6639 57.6519
4.84253 71.9017
5.02118 97.4194
5.19981 889.416
5.37848 302.211
5.55716 113.842
5.73586 102.06
5.91455 112.127
6.09328 3483.27
6.27201 90.666
6.45075 71.0965
6.62952 64.1944
6.8083 59.7035
6.98711 57.4985
7.16591 56.6067
7.34475 56.1634
7.5236 58.072
7.70247 58.295
7.88135 60.7312
8.06026 65.3744
8.23919 73.5355
8.41812 91.6289
8.59709 1027.48
8.77609 112.927
8.9551 90.7263
9.13412 87.7252
9.31318 89.2799
9.49226 90.2294
9.67134 96.0271
9.85047 107.056
10.0296 531.817
10.2088 632.881
10.388 114.522
10.5672 427.904
10.7465 93.4427
10.9257 80.9614
11.105 75.5203
11.2844 71.1958
11.4637 68.1459
11.6431 66.3675
11.8225 65.5386
12.002 69.2429
12.1814 136.421
12.3609 70.9023
12.5405 67.781
12.72 69.9872
12.8996 74.7817
13.0792 86.3681
13.2589 224.476
13.4386 157.223
13.6183 220.018
13.7981 115.725
13.9779 80.7636
14.1577 76.5097
14.3376 73.5523
14.5175 73.1824
14.6974 74.9847
14.8774 119.012
15.0574 178.022
15.2374 72.7875
15.4175 70.3658
15.5976 70.0195
15.7778 103.771
15.958 179.725
16.1382 64.4981
16.3185 60.5199
16.4988 58.2811
16.6792 57.3578
16.8596 57.5916
17.04 59.3958
17.2205 68.7767
17.401 78.1042
17.5815 62.7736
17.7622 64.9571
17.9428 83.6241
18.1237 136.145
18.3044 90.0712
18.4852 85.6113
18.666 63.5481
18.8469 61.2345
19.0278 59.653
19.2088 63.169
19.3898 75.7504
19.5709 57.5242
19.752 56.1034
19.9332 59.786
20.1144 72.2829
20.2957 64.1555
20.477 57.5487
20.6586 52.325
20.84 51.4171
21.0215 51.4553
21.203 52.6713
21.3846 52.042
21.5662 51.9243
21.7479 55.5148
21.9297 66.2712
22.1115 57.5693
22.2933 52.9165
22.4753 51.1756
22.6572 52.1074
22.8393 54.1825
23.0214 59.8591
23.2037 51.5194
23.3859 52.7721
23.5682 57.1712
23.7505 51.8258
23.9329 47.6383
24.1154 46.3664
24.2979 45.6958
24.4805 45.1485
24.6631 45.0527
24.8458 44.5521
25.0286 45.1017
25.2114 46.6347
25.3943 46.7751
25.5773 42.9915
25.7605 42.6754
25.9436 42.705
26.1268 43.5546
26.31 42.382
26.4933 42.7455
26.6767 43.9955
26.8601 42.3752
27.0437 40.8299
27.2272 40.5186
27.4109 40.1462
27.5946 40.3847
27.7784 39.8757
27.9623 40.0476
28.1462 40.5951
28.3304 39.1495
28.5145 37.7259
28.6987 37.3149
28.8829 37.0801
29.0673 36.4648
29.2517 35.9745
29.4361 35.7951
29.6207 34.8545
29.8053 34.5143
29.99 34.1982
30.1748 34.0142
30.3597 33.9278
30.5447 33.6812
30.7297 33.7221
30.915 33.2573
31.1002 32.6139
31.2855 32.3473
31.4708 32.3491
31.6563 31.8625
31.8418 31.5581
32.0275 31.3764
32.2132 30.8829
32.399 30.3173
32.5848 29.8156
32.7708 29.5392
32.9569 29.2945
33.143 29.0951
33.3293 28.6945
33.5158 28.3865
33.7022 27.9251
33.8887 27.5968
34.0753 27.2376
34.262 26.8532
34.4488 26.4963
34.6357 26.2823
34.8227 25.9277
35.0098 25.6982
35.1969 25.4296
35.3842 25.1465
35.5716 24.9598
35.759 24.5802
35.9468 24.1455
36.1345 23.9277
36.3222 23.7676
36.5101 23.5333
36.6981 23.2293
36.8861 22.8805
37.0743 22.5472
37.2626 22.2606
37.451 22.0147
37.6395 21.8033
37.8281 21.5104
38.0168 21.1536
38.2056 20.9012
38.3945 20.6035
38.5837 20.4182
38.7728 20.1089
38.9621 19.9334
39.1514 19.6052
39.3409 19.363
39.5304 19.0983
39.7201 18.9319
39.9099 18.6756
40.0999 18.4221
40.2899 18.2675
40.48 17.9425
40.6703 17.7084
40.8607 17.5726
41.0512 17.2999
41.242 17.0102
41.4327 16.794
41.6236 16.6085
41.8146 16.3853
42.0057 16.1344
42.1969 15.9246
42.3882 15.7438
42.5797 15.5363
42.7713 15.3209
42.963 15.1292
43.1549 14.8948
43.3468 14.6709
43.5389 14.5188
43.7312 14.2806
43.9237 14.0591
44.1162 13.8976
44.3088 13.6856
44.5016 13.5146
44.6945 13.3192
44.8875 13.1353
45.0806 12.9597
45.2739 12.8143
45.4673 12.5959
45.6609 12.4333
45.8546 12.2861
46.0484 12.0576
46.2424 11.8952
46.4365 11.722
46.631 11.5606
46.8254 11.2989
47.0199 11.1853
47.2146 11.0331
47.4095 10.8664
47.6044 10.6897
47.7996 10.5655
47.9948 10.3826
48.1902 10.2241
48.3858 10.1003
48.5815 9.9509
48.7774 9.8254
48.9734 9.67776
49.1696 9.52553
49.3661 9.38441
49.5626 9.21673
49.7592 9.09264
49.956 8.96456
50.153 8.84142
50.3501 8.68975
50.5474 8.55368
50.7448 8.4634
50.9424 8.30849
51.1402 8.17829
51.3381 7.99046
51.5362 7.89556
51.7344 7.80649
51.9328 7.60778
52.1316 7.52983
52.3304 7.35593
52.5293 7.22975
52.7284 7.1755
52.9276 7.01006
53.1271 6.93063
53.3267 6.78308
53.5265 6.61311
53.7264 6.56323
53.9266 6.45513
54.1269 6.33002
54.3274 6.16797
54.528 6.02195
54.7289 5.78671
54.9301 5.68764
55.1314 5.51902
55.3328 5.32886
55.5344 5.15922
55.7361 5.02091

File: Ni3Fe_FD0203.xy
TT I
1.27165 8.29831
1.45013 6.56304
1.62863 5.91084
1.80712 5.34473
1.98562 5.34793
2.16411 4.80884
2.34263 4.18083
2.52115 4.47832
2.69965 5.94939
2.87818 7.99203
3.05672 10.9551
3.23527 14.3129
3.4138 19.031
3.59237 22.5216
3.77094 26.1113
3.9495 30.4239
4.12809 35.2361
4.30669 40.4874
4.4853 48.8081
4.6639 58.402
4.84253 72.0497
5.02118 97.8313
5.19981 888.066
5.37848 296.639
5.55716 113.444
5.73586 101.691
5.91455 112.187
6.09328 3482.69
6.27201 90.3129
6.45075 71.0579
6.62952 64.428
6.8083 60.0504
6.98711 57.5419
7.16591 56.9372
7.34475 56.1895
7.5236 57.5504
7.70247 58.2128
7.88135 60.3634
8.06026 65.7464
8.23919 73.6418
8.41812 90.9561
8.59709 1031.38
8.77609 113.311
8.9551 90.9991
9.13412 87.4422
9.31318 89.0229
9.49226 89.9914
9.67134 95.3897
9.85047 107.076
10.0296 531.259
10.2088 628.22
10.388 114.484
10.5672 429.354
10.7465 93.1765
10.9257 80.9645
11.105 75.184
11.2844 70.9829
11.4637 68.296
11.6431 66.5506
11.8225 65.6492
12.002 68.9385
12.1814 136.994
12.3609 71.1589
12.5405 67.9312
12.72 69.9335
12.8996 74.9394
13.0792 86.4027
13.2589 224.452
13.4386 159.788
13.6183 220.049
13.7981 115.363
13.9779 80.2514
14.1577 76.4682
14.3376 73.6098
14.5175 72.6652
14.6974 74.7752
14.8774 118.994
15.0574 177.882
15.2374 72.7093
15.4175 70.1983
15.5976 70.0342
15.7778 103.562
15.958 179.067
16.1382 64.5343
16.3185 60.4957
16.4988 58.2294
16.6792 57.4335
16.8596 57.5492
17.04 59.2742
17.2205 68.9599
17.401 78.7497
17.5815 62.5912
17.7622 64.946
17.9428 83.459
18.1237 136.293
18.3044 89.9325
18.4852 85.7302
18.666 63.8247
18.8469 61.2514
19.0278 59.9379
19.2088 63.3162
19.3898 75.938
19.5709 57.4059
19.752 56.14
19.9332 59.7392
20.1144 72.2298
20.2957 64.321
20.477 57.3193
20.6586 52.2716
20.84 51.707
21.0215 51.4093
21.203 52.6967
21.3846 51.8732
21.5662 51.8758
21.7479 55.6736
21.9297 66.4111
22.1115 57.5897
22.2933 53.0161
22.4753 51.2188
22.6572 52.004
22.8393 54.4093
23.0214 59.9254
23.2037 51.5678
23.3859 52.7373
23.5682 57.3278
23.7505 51.8207
23.9329 47.5367
24.1154 46.3922
24.2979 45.6675
24.4805 45.014
24.6631 45.0513
24.8458 44.6552
25.0286 45.2226
25.2114 46.4576
25.3943 46.9091
25.5773 43.1556
25.7605 42.6801
25.9436 42.8894
26.1268 43.8239
26.31 42.3377
26.4933 42.7283
26.6767 43.9575
26.8601 42.5116
27.0437 40.867
27.2272 40.5523
27.4109 40.2901
27.5946 40.2745
27.7784 39.847
27.9623 40.0292
28.1462 40.7531
28.3304 39.2548
28.5145 37.7193
28.6987 37.4471
28.8829 37.0839
29.0673 36.4734
29.2517 35.9794
29.4361 35.7968
29.6207 34.9181
29.8053 34.4002
29.99 34.1674
30.1748 33.9857
30.3597 33.8185
30.5447 33.7181
30.7297 33.7422
30.915 33.1171
31.1002 32.6442
31.2855 32.4053
31.4708 32.2801
31.6563 31.9518
31.8418 31.6053
32.0275 31.3588
32.2132 30.89
32.399 30.3781
32.5848 29.9332
32.7708 29.6312
32.9569 29.4084
33.143 29.0103
33.3293 28.7647
33.5158 28.4094
33.7022 27.8839
33.8887 27.6251
34.0753 27.1859
34.262 26.9582
34.4488 26.5627
34.6357 26.1785
34.8227 25.934
35.0098 25.6138
35.1969 25.4136
35.3842 25.1339
35.5716 24.8926
35.759 24.584
35.9468 24.1814
36.1345 24.0115
36.3222 23.7602
36.5101 23.5936
36.6981 23.2455
36.8861 22.8002
37.0743 22.6648
37.2626 22.2588
37.451 22.0325
37.6395 21.8393
37.8281 21.4823
38.0168 21.1837
38.2056 20.992
38.3945 20.6215
38.5837 20.4262
38.7728 20.1838
38.9621 19.8852
39.1514 19.6475
39.3409 19.3715
39.5304 19.1124
39.7201 18.9447
39.9099 18.7298
40.0999 18.4283
40.2899 18.2196
40.48 17.9125
40.6703 17.7346
40.8607 17.4936
41.0512 17.2739
41.242 17.0746
41.4327 16.8142
41.6236 16.5892
41.8146 16.4201
42.0057 16.1698
42.1969 15.915
42.3882 15.774
42.5797 15.5256
42.7713 15.3056
42.963 15.1094
43.1549 14.9016
43.3468 14.6589
43.5389 14.4857
43.7312 14.2794
43.9237 14.1161
44.1162 13.8609
44.3088 13.6821
44.5016 13.4982
44.6945 13.3177
44.8875 13.1121
45.0806 12.9544
45.2739 12.8191
45.4673 12.5957
45.6609 12.4091
45.8546 12.2545
46.0484 12.0579
46.2424 11.8477
46.4365 11.7474
46.631 11.5217
46.8254 11.3635
47.0199 11.2043
47.2146 11.0516
47.4095 10.8296
47.6044 10.7235
47.7996 10.5638
47.9948 10.3996
48.1902 10.2511
48.3858 10.0959
48.5815 9.96978
48.7774 9.84249
48.9734 9.68383
49.1696 9.52582
49.3661 9.37976
49.5626 9.21067
49.7592 9.06362
49.956 8.95699
50.153 8.84584
50.3501 8.67768
50.5474 8.52787
50.7448 8.44528
50.9424 8.28322
51.1402 8.18196
51.3381 8.0187
51.5362 7.88048
51.7344 7.77738
51.9328 7.62283
52.1316 7.50289
52.3304 7.40935
52.5293 7.28728
52.7284 7.13232
52.9276 7.05425
53.1271 6.93084
53.3267 6.80977
53.5265 6.64782
53.7264 6.58162
53.9266 6.43467
54.1269 6.3346
54.3274 6.15875
54.528 6.01951
54.7289 5.83699
54.9301 5.66269
55.1314 5.56692
55.3328 5.32073
55.5344 5.11985
55.7361 5.05224

File: Ni3Fe_FD0204.xy
TT I
1.27165 7.82845
1.45013 6.4772
1.62863 6.54776
1.80712 5.46938
1.98562 5.22613
2.16411 4.74219
2.34263 4.4224
2.52115 4.69032
2.69965 6.20785
2.87818 8.1441
3.05672 10.9687
3.23527 15.2413
3.4138 19.152
3.59237 22.9373
3.77094 26.0449
3.9495 30.4262
4.12809 34.9993
4.30669 40.5932
4.4853 49.0182
4.6639 58.3046
4.84253 71.8119
5.02118 97.3163
5.19981 887.908
5.37848 294.539
5.55716 113.671
5.73586 101.85
5.91455 111.687
6.09328 3488.15
6.27201 90.1469
6.45075 70.7747
6.62952 64.3843
6.8083 60.0949
6.98711 57.5445
7.16591 56.068
7.34475 56.2054
7.5236 57.3191
7.70247 58.1299
7.88135 60.7661
8.06026 65.3363
8.23919 73.5437
8.41812 90.9062
8.59709 1031.41
8.77609 113.104
8.9551 90.9849
9.13412 87.2511
9.31318 89.1249
9.49226 90.2229
9.67134 95.5482
9.85047 106.768
10.0296 530.355
10.2088 620.319
10.388 114.374
10.5672 427.783
10.7465 93.6162
10.9257 81.0334
11.105 75.0566
11.2844 70.9252
11.4637 67.8265
11.6431 66.8522
11.8225 65.2023
12.002 69.2318
12.1814 136.802
12.3609 70.9702
12.5405 67.5529
12.72 69.8816
12.8996 75.0254
13.0792 86.4066
13.2589 224.733
13.4386 156.827
13.6183 219.989
13.7981 115.701
13.9779 80.3148
14.1577 76.2261
14.3376 73.3518
14.5175 72.6849
14.6974 74.7354
14.8774 118.88
15.0574 177.662
15.2374 72.933
15.4175 70.0677
15.5976 70.1707
15.7778 103.592
15.958 178.198
16.1382 64.3063
16.3185 60.6333
16.4988 58.1117
16.6792 57.3208
16.8596 57.688
17.04 59.3046
17.2205 68.9133
17.401 79.0381
17.5815 62.5423
17.7622 65.0224
17.9428 83.6997
18.1237 136.382
18.3044 89.922
18.4852 85.476
18.666 63.7806
18.8469 61.1006
19.0278 59.9112
19.2088 62.9718
19.3898 75.837
19.5709 57.6006
19.752 56.0929
19.9332 59.8522
20.1144 72.4678
20.2957 64.3009
20.477 57.4701
20.6586 52.1909
20.84 51.5321
21.0215 51.4439
21.203 52.5948
21.3846 52.1426
21.5662 51.8749
21.7479 55.7373
21.9297 66.6391
22.1115 57.9045
22.2933 52.9027
22.4753 51.1154
22.6572 52.116
22.8393 54.1344
23.0214 60.0849
23.2037 51.6119
23.3859 52.8756
23.5682 57.5177
23.7505 51.727
23.9329 47.5509
24.1154 46.2625
24.2979 45.7856
24.4805 44.9493
24.6631 45.0525
24.8458 44.5489
25.0286 45.0956
25.2114 46.6235
25.3943 46.8981
25.5773 43.0772
25.7605 42.523
25.9436 42.8319
26.1268 43.6603
26.31 42.4283
26.4933 42.5301
26.6767 43.9334
26.8601 42.4866
27.0437 40.8921
27.2272 40.6052
27.4109 40.2965
27.5946 40.533
27.7784 39.8255
27.9623 39.9751
28.1462 40.6928
28.3304 39.129
28.5145 37.7499
28.6987 37.2767
28.8829 37.0742
29.0673 36.6218
29.2517 35.9249
29.4361 35.8386
29.6207 34.853
29.8053 34.4696
29.99 34.1747
30.1748 34.0031
30.3597 33.9404
30.5447 33.633
30.7297 33.7503
30.915 33.1343
31.1002 32.7269
31.2855 32.4946
31.4708 32.255
31.6563 31.9583
31.8418 31.6305
32.0275 31.4037
32.2132 30.8152
32.399 30.3715
32.5848 29.8282
32.7708 29.5026
32.9569 29.4767
33.143 29.0766
33.3293 28.7878
33.5158 28.3665
33.7022 27.897
33.8887 27.6106
34.0753 27.2795
34.262 26.8531
34.4488 26.5417
34.6357 26.2178
34.8227 25.8732
35.0098 25.7255
35.1969 25.3726
35.3842 25.0979
35.5716 24.9316
35.759 24.6331
35.9468 24.2323
36.1345 23.9391
36.3222 23.759
36.5101 23.5091
36.6981 23.2101
36.8861 22.9411
37.0743 22.5582
37.2626 22.2904
37.451 21.9956
37.6395 21.8287
37.8281 21.5123
38.0168 21.2263
38.2056 20.9604
38.3945 20.6795
38.5837 20.3651
38.7728 20.1723
38.9621 19.8519
39.1514 19.6153
39.3409 19.3925
39.5304 19.1394
39.7201 18.9457
39.9099 18.7405
40.0999 18.3616
40.2899 18.2214
40.48 17.9445
40.6703 17.8186
40.8607 17.6073
41.0512 17.2916
41.242 17.0925
41.4327 16.7835
41.6236 16.5912
41.8146 16.4267
42.0057 16.1644
42.1969 15.9133
42.3882 15.7701
42.5797 15.4982
42.7713 15.3175
42.963 15.1043
43.1549 14.9319
43.3468 14.6971
43.5389 14.5143
43.7312 14.2705
43.9237 14.106
44.1162 13.9296
44.3088 13.7193
44.5016 13.5077
44.6945 13.3508
44.8875 13.161
45.0806 12.9563
45.2739 12.7732
45.4673 12.5962
45.6609 12.4096
45.8546 12.2337
46.0484 12.0684
46.2424 11.8856
46.4365 11.7159
46.631 11.555
46.8254 11.338
47.0199 11.1861
47.2146 11.059
47.4095 10.9009
47.6044 10.7388
47.7996 10.5693
47.9948 10.3771
48.1902 10.2511
48.3858 10.0935
48.5815 9.98061
48.7774 9.84807
48.9734 9.67144
49.1696 9.54232
49.3661 9.36802
49.5626 9.2513
49.7592 9.11644
49.956 8.95341
50.153 8.81284
50.3501 8.70027
50.5474 8.53293
50.7448 8.43752
50.9424 8.30637
51.1402 8.16521
51.3381 8.05507
51.5362 7.9162
51.7344 7.75556
51.9328 7.64334
52.1316 7.50495
52.3304 7.39885
52.5293 7.27134
52.7284 7.12907
52.9276 7.03291
53.1271 6.9271
53.3267 6.76824
53.5265 6.69646
53.7264 6.55023
53.9266 6.48738
54.1269 6.31015
54.3274 6.23281
54.528 6.09033
54.7289 5.84239
54.9301 5.73779
55.1314 5.56866
55.3328 5.30508
55.5344 5.18211
55.7361 4.99462