Folder: NiFe_MOF_catalyst_paper/XRD (part 63)

File: Ni3Fe_FD0328.xy
TT I
1.27165 7.68734
1.45013 7.17429
1.62863 5.10607
1.80712 5.37477
1.98562 4.62211
2.16411 4.71317
2.34263 5.06859
2.52115 5.61786
2.69965 7.10154
2.87818 8.22289
3.05672 11.3863
3.23527 15.4687
3.4138 19.167
3.59237 23.8323
3.77094 26.5735
3.9495 30.3783
4.12809 35.4338
4.30669 179.934
4.4853 62.9604
4.6639 56.9968
4.84253 69.5983
5.02118 91.5382
5.19981 549.424
5.37848 230.047
5.55716 106.247
5.73586 96.5344
5.91455 101.345
6.09328 4024.11
6.27201 86.4417
6.45075 69.384
6.62952 64.3263
6.8083 59.9364
6.98711 57.5986
7.16591 56.6949
7.34475 86.1604
7.5236 56.2514
7.70247 57.5161
7.88135 59.2256
8.06026 64.1669
8.23919 71.8085
8.41812 88.6641
8.59709 1151.07
8.77609 104.897
8.9551 93.1482
9.13412 84.4561
9.31318 85.7962
9.49226 87.2762
9.67134 99.8322
9.85047 103.68
10.0296 418.23
10.2088 494.372
10.388 109.524
10.5672 480.877
10.7465 89.5789
10.9257 80.3595
11.105 73.6997
11.2844 71.976
11.4637 66.7969
11.6431 65.5497
11.8225 64.3433
12.002 66.059
12.1814 149.333
12.3609 72.1355
12.5405 66.396
12.72 71.6798
12.8996 73.4433
13.0792 82.3948
13.2589 241.025
13.4386 133.771
13.6183 239.184
13.7981 103.594
13.9779 78.2126
14.1577 74.4358
14.3376 73.5384
14.5175 70.9697
14.6974 72.8916
14.8774 117.331
15.0574 157.524
15.2374 72.8449
15.4175 68.5976
15.5976 68.2028
15.7778 101.47
15.958 167.174
16.1382 64.4217
16.3185 60.1797
16.4988 57.1485
16.6792 56.1752
16.8596 56.8517
17.04 57.7629
17.2205 68.9996
17.401 74.3864
17.5815 61.2807
17.7622 63.1389
17.9428 78.1211
18.1237 140.042
18.3044 91.2916
18.4852 81.2319
18.666 62.2301
18.8469 59.7674
19.0278 58.5858
19.2088 62.0252
19.3898 77.5986
19.5709 56.0151
19.752 54.9435
19.9332 58.4462
20.1144 71.2513
20.2957 64.3782
20.477 55.6254
20.6586 51.2551
20.84 50.3697
21.0215 50.3721
21.203 51.9621
21.3846 50.5055
21.5662 50.5059
21.7479 54.6922
21.9297 66.3794
22.1115 57.2189
22.2933 51.4228
22.4753 50.5503
22.6572 50.6735
22.8393 53.5529
23.0214 59.1343
23.2037 50.5043
23.3859 51.6419
23.5682 57.5093
23.7505 49.8272
23.9329 46.5324
24.1154 45.3214
24.2979 44.8326
24.4805 44.0979
24.6631 44.1496
24.8458 43.5753
25.0286 44.2155
25.2114 45.9007
25.3943 46.0446
25.5773 42.1078
25.7605 41.7345
25.9436 42.0898
26.1268 42.9308
26.31 41.3689
26.4933 42.0201
26.6767 43.4906
26.8601 41.6168
27.0437 40.0279
27.2272 39.6234
27.4109 39.3941
27.5946 39.5395
27.7784 39.0582
27.9623 39.5197
28.1462 39.9775
28.3304 38.3783
28.5145 37.1589
28.6987 36.6085
28.8829 36.4366
29.0673 35.6908
29.2517 35.3653
29.4361 35.1366
29.6207 34.0996
29.8053 34.0023
29.99 33.6969
30.1748 33.3852
30.3597 33.3005
30.5447 33.1359
30.7297 33.1979
30.915 32.5877
31.1002 32.0694
31.2855 31.773
31.4708 31.632
31.6563 31.3451
31.8418 31.1466
32.0275 30.7778
32.2132 30.2655
32.399 29.7692
32.5848 29.3478
32.7708 28.9172
32.9569 28.8147
33.143 28.6317
33.3293 28.2159
33.5158 27.7808
33.7022 27.3527
33.8887 27.1776
34.0753 26.7328
34.262 26.4245
34.4488 25.9993
34.6357 25.7455
34.8227 25.3996
35.0098 25.1511
35.1969 24.9092
35.3842 24.7001
35.5716 24.45
35.759 24.1666
35.9468 23.7702
36.1345 23.6225
36.3222 23.2908
36.5101 23.0845
36.6981 22.7999
36.8861 22.4586
37.0743 22.1007
37.2626 21.8924
37.451 21.5816
37.6395 21.386
37.8281 21.0119
38.0168 20.7693
38.2056 20.5688
38.3945 20.3251
38.5837 20.0712
38.7728 19.8443
38.9621 19.5174
39.1514 19.1756
39.3409 18.9976
39.5304 18.8
39.7201 18.5269
39.9099 18.4284
40.0999 18.0558
40.2899 17.9097
40.48 17.6333
40.6703 17.4552
40.8607 17.224
41.0512 16.9719
41.242 16.7659
41.4327 16.5903
41.6236 16.2957
41.8146 16.124
42.0057 15.871
42.1969 15.6828
42.3882 15.5272
42.5797 15.2431
42.7713 15.0897
42.963 14.8069
43.1549 14.6234
43.3468 14.453
43.5389 14.25
43.7312 14.0
43.9237 13.91
44.1162 13.6474
44.3088 13.4868
44.5016 13.2769
44.6945 13.1234
44.8875 12.9343
45.0806 12.7177
45.2739 12.6028
45.4673 12.3748
45.6609 12.1862
45.8546 12.0486
46.0484 11.8917
46.2424 11.698
46.4365 11.5517
46.631 11.3007
46.8254 11.1749
47.0199 11.0329
47.2146 10.8664
47.4095 10.6975
47.6044 10.5625
47.7996 10.3749
47.9948 10.2721
48.1902 10.0815
48.3858 9.94923
48.5815 9.82198
48.7774 9.65601
48.9734 9.51648
49.1696 9.38609
49.3661 9.20442
49.5626 9.04229
49.7592 8.98688
49.956 8.81019
50.153 8.64892
50.3501 8.53922
50.5474 8.41656
50.7448 8.31248
50.9424 8.17227
51.1402 8.04556
51.3381 7.87484
51.5362 7.81566
51.7344 7.63808
51.9328 7.51503
52.1316 7.34734
52.3304 7.25737
52.5293 7.16168
52.7284 6.9914
52.9276 6.90824
53.1271 6.81651
53.3267 6.68094
53.5265 6.53461
53.7264 6.46201
53.9266 6.33195
54.1269 6.24202
54.3274 6.06237
54.528 5.97528
54.7289 5.81101
54.9301 5.67154
55.1314 5.47465
55.3328 5.30529
55.5344 5.07199
55.7361 4.98914

File: Ni3Fe_FD0329.xy
TT I
1.27165 7.50598
1.45013 6.45809
1.62863 5.5138
1.80712 5.29962
1.98562 4.76301
2.16411 5.03777
2.34263 5.45649
2.52115 5.84395
2.69965 7.60253
2.87818 8.84198
3.05672 11.4068
3.23527 15.4988
3.4138 18.9517
3.59237 23.8638
3.77094 26.4902
3.9495 30.461
4.12809 35.1637
4.30669 177.656
4.4853 62.5887
4.6639 56.6984
4.84253 69.6711
5.02118 91.1484
5.19981 552.026
5.37848 229.062
5.55716 106.218
5.73586 96.1015
5.91455 101.705
6.09328 4034.28
6.27201 86.3156
6.45075 69.5469
6.62952 64.001
6.8083 60.45
6.98711 56.9139
7.16591 56.3475
7.34475 84.7083
7.5236 55.9619
7.70247 57.8234
7.88135 59.2861
8.06026 63.9322
8.23919 71.5825
8.41812 88.9307
8.59709 1154.91
8.77609 105.204
8.9551 93.2134
9.13412 84.6235
9.31318 85.7658
9.49226 87.4974
9.67134 99.5409
9.85047 103.285
10.0296 420.134
10.2088 493.993
10.388 109.439
10.5672 482.049
10.7465 89.7983
10.9257 80.3618
11.105 73.7549
11.2844 71.8996
11.4637 66.7581
11.6431 65.5673
11.8225 64.1789
12.002 65.92
12.1814 149.165
12.3609 72.1536
12.5405 66.3725
12.72 71.0515
12.8996 73.2196
13.0792 82.2795
13.2589 242.066
13.4386 133.947
13.6183 239.399
13.7981 103.106
13.9779 78.1443
14.1577 74.5041
14.3376 73.2792
14.5175 71.1418
14.6974 72.7206
14.8774 117.812
15.0574 157.854
15.2374 72.5561
15.4175 68.4552
15.5976 67.9779
15.7778 101.397
15.958 166.308
16.1382 64.0801
16.3185 60.2332
16.4988 57.1137
16.6792 56.1065
16.8596 56.8345
17.04 57.716
17.2205 68.9121
17.401 74.4362
17.5815 60.9572
17.7622 63.3949
17.9428 78.4145
18.1237 139.69
18.3044 91.5526
18.4852 80.7225
18.666 62.2916
18.8469 59.7183
19.0278 58.7644
19.2088 61.9768
19.3898 77.3617
19.5709 55.9234
19.752 55.1654
19.9332 58.501
20.1144 71.3219
20.2957 64.365
20.477 55.7201
20.6586 51.221
20.84 50.2827
21.0215 50.0638
21.203 52.148
21.3846 50.6008
21.5662 50.679
21.7479 54.5054
21.9297 66.4266
22.1115 57.2361
22.2933 51.6006
22.4753 50.32
22.6572 50.5948
22.8393 53.6429
23.0214 59.221
23.2037 50.3709
23.3859 51.6347
23.5682 57.5312
23.7505 50.0241
23.9329 46.7005
24.1154 45.5774
24.2979 44.744
24.4805 44.1725
24.6631 44.0822
24.8458 43.5309
25.0286 44.2328
25.2114 46.1162
25.3943 46.0971
25.5773 42.217
25.7605 41.723
25.9436 42.1383
26.1268 42.9604
26.31 41.4061
26.4933 41.976
26.6767 43.4457
26.8601 41.6027
27.0437 40.1703
27.2272 39.8668
27.4109 39.5694
27.5946 39.5631
27.7784 39.0609
27.9623 39.4956
28.1462 40.0711
28.3304 38.3999
28.5145 37.1085
28.6987 36.7251
28.8829 36.4786
29.0673 35.7233
29.2517 35.3478
29.4361 35.1318
29.6207 34.1381
29.8053 33.8824
29.99 33.6294
30.1748 33.4694
30.3597 33.3574
30.5447 33.2397
30.7297 33.2228
30.915 32.6159
31.1002 32.1265
31.2855 31.7811
31.4708 31.7736
31.6563 31.2288
31.8418 31.0684
32.0275 30.8195
32.2132 30.2946
32.399 29.8054
32.5848 29.4034
32.7708 29.0576
32.9569 28.8725
33.143 28.6413
33.3293 28.3106
33.5158 27.9145
33.7022 27.4058
33.8887 27.1581
34.0753 26.847
34.262 26.4413
34.4488 26.0415
34.6357 25.7664
34.8227 25.4446
35.0098 25.273
35.1969 24.9754
35.3842 24.7057
35.5716 24.4514
35.759 24.1833
35.9468 23.7936
36.1345 23.6295
36.3222 23.3125
36.5101 23.048
36.6981 22.827
36.8861 22.4251
37.0743 22.1414
37.2626 21.9418
37.451 21.5755
37.6395 21.4744
37.8281 21.092
38.0168 20.8608
38.2056 20.4754
38.3945 20.2844
38.5837 20.0303
38.7728 19.7678
38.9621 19.5655
39.1514 19.2874
39.3409 19.0518
39.5304 18.7903
39.7201 18.5929
39.9099 18.3772
40.0999 18.091
40.2899 17.9093
40.48 17.5893
40.6703 17.3635
40.8607 17.2839
41.0512 16.9809
41.242 16.7012
41.4327 16.569
41.6236 16.262
41.8146 16.1023
42.0057 15.8818
42.1969 15.6566
42.3882 15.4844
42.5797 15.2835
42.7713 15.0527
42.963 14.8625
43.1549 14.6686
43.3468 14.4017
43.5389 14.2139
43.7312 14.0494
43.9237 13.8422
44.1162 13.6754
44.3088 13.4532
44.5016 13.3101
44.6945 13.1098
44.8875 12.9225
45.0806 12.7105
45.2739 12.5303
45.4673 12.3775
45.6609 12.2211
45.8546 12.0721
46.0484 11.8991
46.2424 11.6682
46.4365 11.5082
46.631 11.3194
46.8254 11.1732
47.0199 11.0299
47.2146 10.8629
47.4095 10.6815
47.6044 10.5051
47.7996 10.3639
47.9948 10.1999
48.1902 10.0922
48.3858 9.94787
48.5815 9.79437
48.7774 9.65366
48.9734 9.52875
49.1696 9.37747
49.3661 9.24215
49.5626 9.10407
49.7592 8.94562
49.956 8.82022
50.153 8.68548
50.3501 8.54344
50.5474 8.41462
50.7448 8.2938
50.9424 8.14397
51.1402 7.99983
51.3381 7.89228
51.5362 7.79287
51.7344 7.62603
51.9328 7.51092
52.1316 7.37874
52.3304 7.27438
52.5293 7.15704
52.7284 7.06792
52.9276 6.90126
53.1271 6.80006
53.3267 6.65807
53.5265 6.55983
53.7264 6.44667
53.9266 6.33921
54.1269 6.21836
54.3274 6.11237
54.528 5.9562
54.7289 5.79042
54.9301 5.61771
55.1314 5.49896
55.3328 5.29322
55.5344 5.12295
55.7361 4.91762

File: Ni3Fe_FD0330.xy
TT I
1.27165 7.88444
1.45013 5.87525
1.62863 5.29835
1.80712 4.70557
1.98562 4.89226
2.16411 5.1495
2.34263 5.04387
2.52115 6.09367
2.69965 7.65783
2.87818 8.52569
3.05672 11.7471
3.23527 14.9888
3.4138 18.9759
3.59237 24.2842
3.77094 26.6497
3.9495 30.4242
4.12809 35.4069
4.30669 175.197
4.4853 62.2611
4.6639 57.0478
4.84253 70.0089
5.02118 92.0791
5.19981 553.683
5.37848 228.661
5.55716 106.859
5.73586 96.5576
5.91455 101.431
6.09328 4038.13
6.27201 86.6186
6.45075 69.4051
6.62952 64.4224
6.8083 60.1867
6.98711 57.3515
7.16591 56.5504
7.34475 84.2358
7.5236 56.0742
7.70247 57.5695
7.88135 59.3426
8.06026 63.8232
8.23919 71.6138
8.41812 88.8333
8.59709 1156.52
8.77609 105.325
8.9551 93.0839
9.13412 84.0753
9.31318 85.3071
9.49226 87.1942
9.67134 99.7767
9.85047 103.438
10.0296 420.287
10.2088 496.735
10.388 109.285
10.5672 481.993
10.7465 89.6715
10.9257 80.2332
11.105 73.8045
11.2844 71.8273
11.4637 66.6301
11.6431 65.235
11.8225 64.3846
12.002 66.0058
12.1814 148.467
12.3609 71.8515
12.5405 66.5078
12.72 71.2648
12.8996 73.3362
13.0792 82.3084
13.2589 242.004
13.4386 134.302
13.6183 239.853
13.7981 103.294
13.9779 78.2064
14.1577 74.4011
14.3376 73.358
14.5175 70.8408
14.6974 72.6523
14.8774 118.006
15.0574 157.434
15.2374 72.519
15.4175 68.4276
15.5976 68.0253
15.7778 101.298
15.958 166.644
16.1382 64.3177
16.3185 60.1002
16.4988 57.0895
16.6792 56.1718
16.8596 56.5598
17.04 57.9131
17.2205 68.8442
17.401 74.4056
17.5815 61.0553
17.7622 63.2039
17.9428 78.6626
18.1237 139.988
18.3044 91.5907
18.4852 80.9105
18.666 62.3429
18.8469 59.8413
19.0278 58.509
19.2088 61.9941
19.3898 77.456
19.5709 55.8622
19.752 55.0824
19.9332 58.5115
20.1144 71.5144
20.2957 64.6804
20.477 55.5111
20.6586 51.1623
20.84 50.3579
21.0215 50.4121
21.203 52.2162
21.3846 50.6874
21.5662 50.5195
21.7479 54.5431
21.9297 66.3855
22.1115 57.2877
22.2933 51.4495
22.4753 50.4289
22.6572 50.5251
22.8393 53.7218
23.0214 59.2413
23.2037 50.4421
23.3859 51.6583
23.5682 57.7908
23.7505 50.0194
23.9329 46.6044
24.1154 45.4254
24.2979 44.7798
24.4805 44.2586
24.6631 44.1007
24.8458 43.5443
25.0286 44.244
25.2114 45.9729
25.3943 46.1804
25.5773 42.144
25.7605 41.8215
25.9436 42.1676
26.1268 42.8502
26.31 41.4887
26.4933 41.9574
26.6767 43.4094
26.8601 41.5838
27.0437 40.1809
27.2272 39.6841
27.4109 39.5817
27.5946 39.5706
27.7784 39.0249
27.9623 39.5436
28.1462 40.0127
28.3304 38.3172
28.5145 37.0209
28.6987 36.6928
28.8829 36.4529
29.0673 35.7295
29.2517 35.3344
29.4361 35.2065
29.6207 34.1127
29.8053 33.9209
29.99 33.6117
30.1748 33.4687
30.3597 33.2557
30.5447 33.1878
30.7297 33.1093
30.915 32.6852
31.1002 32.0929
31.2855 31.761
31.4708 31.6952
31.6563 31.2693
31.8418 30.947
32.0275 30.8086
32.2132 30.2773
32.399 29.8605
32.5848 29.4464
32.7708 29.0086
32.9569 28.8418
33.143 28.5924
33.3293 28.2314
33.5158 27.861
33.7022 27.4132
33.8887 27.1336
34.0753 26.8591
34.262 26.4509
34.4488 26.0741
34.6357 25.7414
34.8227 25.5377
35.0098 25.2291
35.1969 25.0179
35.3842 24.6459
35.5716 24.5765
35.759 24.2472
35.9468 23.8094
36.1345 23.5456
36.3222 23.3436
36.5101 23.0868
36.6981 22.773
36.8861 22.3909
37.0743 22.1659
37.2626 21.9034
37.451 21.6263
37.6395 21.4745
37.8281 21.0848
38.0168 20.7523
38.2056 20.572
38.3945 20.2566
38.5837 20.0368
38.7728 19.6942
38.9621 19.5153
39.1514 19.2299
39.3409 18.9722
39.5304 18.7367
39.7201 18.6053
39.9099 18.321
40.0999 18.0762
40.2899 17.8965
40.48 17.5739
40.6703 17.3773
40.8607 17.2466
41.0512 16.9939
41.242 16.7186
41.4327 16.5024
41.6236 16.288
41.8146 16.161
42.0057 15.8422
42.1969 15.652
42.3882 15.4247
42.5797 15.272
42.7713 15.0438
42.963 14.8353
43.1549 14.625
43.3468 14.4265
43.5389 14.2002
43.7312 14.0367
43.9237 13.8695
44.1162 13.6264
44.3088 13.464
44.5016 13.2409
44.6945 13.0904
44.8875 12.9426
45.0806 12.7487
45.2739 12.6193
45.4673 12.392
45.6609 12.2078
45.8546 12.0714
46.0484 11.8532
46.2424 11.6789
46.4365 11.5497
46.631 11.3792
46.8254 11.1467
47.0199 11.0264
47.2146 10.8522
47.4095 10.6944
47.6044 10.5351
47.7996 10.3713
47.9948 10.2357
48.1902 10.061
48.3858 9.98751
48.5815 9.77634
48.7774 9.68776
48.9734 9.49213
49.1696 9.38822
49.3661 9.23186
49.5626 9.09762
49.7592 8.97686
49.956 8.80765
50.153 8.69774
50.3501 8.55036
50.5474 8.43035
50.7448 8.29677
50.9424 8.17497
51.1402 8.02139
51.3381 7.85956
51.5362 7.75378
51.7344 7.65439
51.9328 7.49174
52.1316 7.3678
52.3304 7.23828
52.5293 7.12518
52.7284 6.98651
52.9276 6.91993
53.1271 6.78262
53.3267 6.69502
53.5265 6.54573
53.7264 6.46455
53.9266 6.33937
54.1269 6.24299
54.3274 6.12046
54.528 5.95295
54.7289 5.77618
54.9301 5.6078
55.1314 5.47699
55.3328 5.27246
55.5344 5.09759
55.7361 4.9734

File: Ni3Fe_FD0331.xy
TT I
1.27165 7.24206
1.45013 6.28266
1.62863 5.2556
1.80712 4.80015
1.98562 4.81369
2.16411 4.3033
2.34263 5.16901
2.52115 6.0861
2.69965 7.19908
2.87818 8.55452
3.05672 11.1495
3.23527 15.1698
3.4138 19.452
3.59237 24.1628
3.77094 26.4076
3.9495 30.1564
4.12809 34.9801
4.30669 171.611
4.4853 62.2047
4.6639 57.0355
4.84253 69.1275
5.02118 91.2814
5.19981 557.091
5.37848 227.847
5.55716 106.447
5.73586 96.5104
5.91455 101.098
6.09328 4037.09
6.27201 86.4961
6.45075 69.5427
6.62952 64.2329
6.8083 60.2785
6.98711 57.261
7.16591 56.5854
7.34475 84.1498
7.5236 55.9418
7.70247 57.6012
7.88135 59.1419
8.06026 63.9507
8.23919 71.5122
8.41812 88.3234
8.59709 1157.73
8.77609 104.602
8.9551 92.8133
9.13412 84.5135
9.31318 85.783
9.49226 87.1652
9.67134 99.7131
9.85047 103.695
10.0296 422.671
10.2088 495.26
10.388 109.189
10.5672 480.647
10.7465 89.4517
10.9257 80.2252
11.105 73.5472
11.2844 71.8387
11.4637 66.7236
11.6431 65.4016
11.8225 64.5525
12.002 66.0397
12.1814 148.438
12.3609 71.7285
12.5405 66.3652
12.72 71.5862
12.8996 73.2909
13.0792 82.3912
13.2589 242.514
13.4386 134.082
13.6183 240.07
13.7981 103.112
13.9779 78.074
14.1577 74.5418
14.3376 73.225
14.5175 71.042
14.6974 72.7292
14.8774 117.984
15.0574 157.474
15.2374 72.6613
15.4175 68.3611
15.5976 67.7992
15.7778 101.394
15.958 166.346
16.1382 64.2379
16.3185 60.0669
16.4988 57.1656
16.6792 56.1922
16.8596 56.8129
17.04 57.6654
17.2205 69.0709
17.401 74.4671
17.5815 61.0648
17.7622 63.0596
17.9428 78.685
18.1237 140.154
18.3044 91.4377
18.4852 80.7773
18.666 62.2295
18.8469 59.791
19.0278 58.6313
19.2088 62.0413
19.3898 77.425
19.5709 55.982
19.752 54.9995
19.9332 58.2633
20.1144 71.307
20.2957 64.5602
20.477 55.4245
20.6586 51.3421
20.84 50.2775
21.0215 50.3077
21.203 52.0675
21.3846 50.5857
21.5662 50.5368
21.7479 54.5423
21.9297 66.479
22.1115 57.3166
22.2933 51.5832
22.4753 50.3745
22.6572 50.8057
22.8393 53.6622
23.0214 59.0573
23.2037 50.2402
23.3859 51.4992
23.5682 57.6869
23.7505 49.9336
23.9329 46.7389
24.1154 45.5046
24.2979 44.95
24.4805 44.1862
24.6631 44.2019
24.8458 43.5595
25.0286 44.211
25.2114 46.0101
25.3943 46.0459
25.5773 42.1907
25.7605 41.7793
25.9436 42.124
26.1268 42.9199
26.31 41.413
26.4933 42.02
26.6767 43.3743
26.8601 41.621
27.0437 39.9969
27.2272 39.8112
27.4109 39.6153
27.5946 39.5239
27.7784 39.0731
27.9623 39.54
28.1462 39.9536
28.3304 38.3598
28.5145 36.9988
28.6987 36.72
28.8829 36.4856
29.0673 35.6739
29.2517 35.2383
29.4361 35.0923
29.6207 34.0736
29.8053 33.8918
29.99 33.639
30.1748 33.4053
30.3597 33.1745
30.5447 33.0668
30.7297 33.1771
30.915 32.5995
31.1002 32.1024
31.2855 31.9537
31.4708 31.6281
31.6563 31.24
31.8418 30.9477
32.0275 30.9016
32.2132 30.2268
32.399 29.7877
32.5848 29.1867
32.7708 29.0808
32.9569 28.8815
33.143 28.6451
33.3293 28.2595
33.5158 27.7744
33.7022 27.4149
33.8887 27.1082
34.0753 26.7406
34.262 26.3273
34.4488 26.0676
34.6357 25.7717
34.8227 25.4293
35.0098 25.1194
35.1969 24.8857
35.3842 24.6015
35.5716 24.444
35.759 24.1454
35.9468 23.86
36.1345 23.5533
36.3222 23.2995
36.5101 23.0514
36.6981 22.7457
36.8861 22.4208
37.0743 22.0807
37.2626 21.889
37.451 21.6482
37.6395 21.3615
37.8281 21.0633
38.0168 20.7404
38.2056 20.4883
38.3945 20.2685
38.5837 20.0755
38.7728 19.7515
38.9621 19.5353
39.1514 19.2537
39.3409 19.0412
39.5304 18.7817
39.7201 18.5846
39.9099 18.2965
40.0999 18.1421
40.2899 17.877
40.48 17.5881
40.6703 17.3966
40.8607 17.2306
41.0512 17.0156
41.242 16.7582
41.4327 16.496
41.6236 16.2814
41.8146 16.0972
42.0057 15.8666
42.1969 15.6056
42.3882 15.3764
42.5797 15.258
42.7713 15.0106
42.963 14.8875
43.1549 14.6467
43.3468 14.3846
43.5389 14.2572
43.7312 14.0295
43.9237 13.8945
44.1162 13.611
44.3088 13.4709
44.5016 13.2174
44.6945 13.0803
44.8875 12.8732
45.0806 12.7225
45.2739 12.5266
45.4673 12.3526
45.6609 12.2041
45.8546 12.0211
46.0484 11.8472
46.2424 11.675
46.4365 11.544
46.631 11.3239
46.8254 11.1591
47.0199 10.9908
47.2146 10.8756
47.4095 10.6875
47.6044 10.5181
47.7996 10.3701
47.9948 10.2036
48.1902 10.0853
48.3858 9.94906
48.5815 9.80317
48.7774 9.67251
48.9734 9.49564
49.1696 9.37513
49.3661 9.17742
49.5626 9.03032
49.7592 8.95725
49.956 8.83106
50.153 8.68342
50.3501 8.52724
50.5474 8.39637
50.7448 8.29058
50.9424 8.19432
51.1402 8.00959
51.3381 7.88108
51.5362 7.75212
51.7344 7.62185
51.9328 7.49708
52.1316 7.38932
52.3304 7.26878
52.5293 7.13284
52.7284 7.05468
52.9276 6.89557
53.1271 6.81766
53.3267 6.64721
53.5265 6.57125
53.7264 6.41985
53.9266 6.33051
54.1269 6.21365
54.3274 6.10037
54.528 5.93511
54.7289 5.80803
54.9301 5.64403
55.1314 5.49758
55.3328 5.31406
55.5344 5.11895
55.7361 4.92153

File: Ni3Fe_FD0332.xy
TT I
1.27165 7.95367
1.45013 7.00025
1.62863 5.88747
1.80712 5.28432
1.98562 4.69921
2.16411 4.83387
2.34263 4.02122
2.52115 5.39965
2.69965 7.50981
2.87818 8.41017
3.05672 11.0701
3.23527 15.0224
3.4138 18.8671
3.59237 23.7602
3.77094 26.5108
3.9495 30.2796
4.12809 35.544
4.30669 168.562
4.4853 61.6706
4.6639 56.9959
4.84253 69.3763
5.02118 91.9248
5.19981 563.57
5.37848 226.717
5.55716 106.442
5.73586 96.5397
5.91455 102.093
6.09328 4053.09
6.27201 86.7569
6.45075 69.233
6.62952 64.3824
6.8083 59.8876
6.98711 56.9303
7.16591 56.3841
7.34475 82.7795
7.5236 55.6464
7.70247 57.8812
7.88135 59.5699
8.06026 63.9057
8.23919 71.7138
8.41812 88.7226
8.59709 1161.16
8.77609 104.845
8.9551 92.5532
9.13412 84.5566
9.31318 85.3007
9.49226 87.0545
9.67134 99.8899
9.85047 103.722
10.0296 425.453
10.2088 494.347
10.388 109.421
10.5672 482.5
10.7465 89.5915
10.9257 80.4815
11.105 73.6879
11.2844 71.5314
11.4637 66.8814
11.6431 65.6366
11.8225 64.3695
12.002 66.2425
12.1814 148.616
12.3609 71.8685
12.5405 66.326
12.72 71.3455
12.8996 73.2845
13.0792 82.2339
13.2589 243.38
13.4386 133.386
13.6183 240.725
13.7981 103.041
13.9779 78.0755
14.1577 74.6099
14.3376 73.2675
14.5175 71.0984
14.6974 72.9697
14.8774 118.274
15.0574 156.411
15.2374 72.7411
15.4175 68.5697
15.5976 68.1021
15.7778 101.813
15.958 165.153
16.1382 64.2188
16.3185 60.0303
16.4988 57.2871
16.6792 56.1089
16.8596 56.7199
17.04 57.7152
17.2205 68.6504
17.401 74.5422
17.5815 61.0938
17.7622 63.3262
17.9428 78.6075
18.1237 140.199
18.3044 91.5188
18.4852 80.496
18.666 62.2093
18.8469 59.7302
19.0278 58.5774
19.2088 61.968
19.3898 77.4131
19.5709 55.9432
19.752 55.1344
19.9332 58.5
20.1144 71.2323
20.2957 64.5302
20.477 55.4828
20.6586 51.2245
20.84 50.2482
21.0215 50.1896
21.203 52.1927
21.3846 50.7575
21.5662 50.4622
21.7479 54.6106
21.9297 66.3973
22.1115 57.1191
22.2933 51.4626
22.4753 50.2616
22.6572 50.6189
22.8393 53.5306
23.0214 59.0656
23.2037 50.5013
23.3859 51.6374
23.5682 57.5495
23.7505 49.9469
23.9329 46.6626
24.1154 45.4933
24.2979 44.8825
24.4805 44.0881
24.6631 44.1906
24.8458 43.5038
25.0286 44.1938
25.2114 45.9361
25.3943 46.0111
25.5773 42.2141
25.7605 41.7246
25.9436 42.0248
26.1268 42.8925
26.31 41.4188
26.4933 41.9995
26.6767 43.4198
26.8601 41.5901
27.0437 40.1997
27.2272 39.7645
27.4109 39.4755
27.5946 39.5357
27.7784 39.1159
27.9623 39.5253
28.1462 40.0161
28.3304 38.3666
28.5145 37.0291
28.6987 36.5933
28.8829 36.4939
29.0673 35.7282
29.2517 35.3328
29.4361 35.1006
29.6207 34.161
29.8053 33.8206
29.99 33.4281
30.1748 33.4228
30.3597 33.2916
30.5447 33.1982
30.7297 33.1384
30.915 32.4595
31.1002 32.0446
31.2855 31.774
31.4708 31.6273
31.6563 31.3109
31.8418 30.9701
32.0275 30.8614
32.2132 30.2717
32.399 29.7553
32.5848 29.3334
32.7708 29.0567
32.9569 28.8453
33.143 28.6291
33.3293 28.2562
33.5158 27.7739
33.7022 27.3445
33.8887 27.1402
34.0753 26.7269
34.262 26.3556
34.4488 26.0135
34.6357 25.7065
34.8227 25.4476
35.0098 25.2942
35.1969 24.8641
35.3842 24.6154
35.5716 24.4613
35.759 24.1779
35.9468 23.7883
36.1345 23.5808
36.3222 23.2818
36.5101 23.0875
36.6981 22.7837
36.8861 22.4764
37.0743 22.1511
37.2626 21.8349
37.451 21.5786
37.6395 21.4071
37.8281 21.0895
38.0168 20.7587
38.2056 20.5411
38.3945 20.2347
38.5837 20.0267
38.7728 19.8058
38.9621 19.5521
39.1514 19.1984
39.3409 18.995
39.5304 18.7626
39.7201 18.6312
39.9099 18.3127
40.0999 18.0811
40.2899 17.8693
40.48 17.687
40.6703 17.391
40.8607 17.1611
41.0512 16.9671
41.242 16.7193
41.4327 16.5499
41.6236 16.3218
41.8146 16.1298
42.0057 15.8824
42.1969 15.689
42.3882 15.4534
42.5797 15.2294
42.7713 15.045
42.963 14.8529
43.1549 14.6292
43.3468 14.3871
43.5389 14.2221
43.7312 14.04
43.9237 13.8474
44.1162 13.6883
44.3088 13.4341
44.5016 13.2843
44.6945 13.0917
44.8875 12.8861
45.0806 12.6908
45.2739 12.5535
45.4673 12.3588
45.6609 12.1798
45.8546 12.0085
46.0484 11.848
46.2424 11.6808
46.4365 11.5522
46.631 11.3074
46.8254 11.1532
47.0199 11.0381
47.2146 10.8506
47.4095 10.6516
47.6044 10.4989
47.7996 10.3981
47.9948 10.191
48.1902 10.071
48.3858 9.96677
48.5815 9.78657
48.7774 9.66767
48.9734 9.51183
49.1696 9.35769
49.3661 9.2383
49.5626 9.03457
49.7592 8.94836
49.956 8.80911
50.153 8.7129
50.3501 8.47973
50.5474 8.43059
50.7448 8.26841
50.9424 8.15834
51.1402 8.04233
51.3381 7.90004
51.5362 7.73941
51.7344 7.6327
51.9328 7.47259
52.1316 7.32301
52.3304 7.26887
52.5293 7.16739
52.7284 7.04231
52.9276 6.92311
53.1271 6.79461
53.3267 6.69837
53.5265 6.5767
53.7264 6.48283
53.9266 6.3224
54.1269 6.22908
54.3274 6.10769
54.528 5.96663
54.7289 5.77047
54.9301 5.63327
55.1314 5.48314
55.3328 5.33709
55.5344 5.11958
55.7361 4.98932