Folder: NiFe_MOF_catalyst_paper/XRD (part 30)

File: Ni3Fe_FD0152.xy
TT I
1.27165 7.74169
1.45013 6.7811
1.62863 6.12423
1.80712 5.62706
1.98562 4.24701
2.16411 5.27879
2.34263 4.22784
2.52115 4.98951
2.69965 5.84234
2.87818 8.02823
3.05672 11.5852
3.23527 15.0584
3.4138 19.0052
3.59237 21.622
3.77094 25.1855
3.9495 28.652
4.12809 32.2209
4.30669 37.616
4.4853 44.8593
4.6639 53.4983
4.84253 65.8995
5.02118 90.3077
5.19981 543.012
5.37848 455.797
5.55716 107.438
5.73586 94.7734
5.91455 104.892
6.09328 2705.93
6.27201 88.9966
6.45075 66.6183
6.62952 59.8128
6.8083 55.3763
6.98711 53.6122
7.16591 52.2072
7.34475 52.0565
7.5236 55.9015
7.70247 53.9626
7.88135 55.9047
8.06026 60.0865
8.23919 67.8784
8.41812 83.2294
8.59709 888.941
8.77609 116.294
8.9551 85.0003
9.13412 81.0207
9.31318 86.3665
9.49226 83.3559
9.67134 88.2855
9.85047 98.4198
10.0296 542.939
10.2088 996.047
10.388 104.288
10.5672 328.976
10.7465 90.6089
10.9257 75.6275
11.105 70.0018
11.2844 65.7872
11.4637 63.4075
11.6431 61.64
11.8225 61.0388
12.002 64.9687
12.1814 117.927
12.3609 74.9862
12.5405 62.9202
12.72 64.8635
12.8996 69.5506
13.0792 78.7736
13.2589 203.94
13.4386 212.483
13.6183 191.899
13.7981 154.085
13.9779 75.7393
14.1577 74.2347
14.3376 68.6384
14.5175 68.0776
14.6974 69.4909
14.8774 120.993
15.0574 205.233
15.2374 68.8942
15.4175 65.9782
15.5976 65.5212
15.7778 107.423
15.958 184.638
16.1382 61.6851
16.3185 57.0708
16.4988 54.9261
16.6792 53.842
16.8596 54.291
17.04 55.1684
17.2205 65.2836
17.401 81.209
17.5815 58.6006
17.7622 61.1364
17.9428 83.4728
18.1237 114.752
18.3044 88.446
18.4852 95.1633
18.666 60.871
18.8469 58.2843
19.0278 56.6255
19.2088 61.6567
19.3898 69.0126
19.5709 56.1424
19.752 53.2746
19.9332 58.0782
20.1144 66.8082
20.2957 61.077
20.477 59.133
20.6586 49.7537
20.84 48.9769
21.0215 48.8506
21.203 49.4984
21.3846 50.3793
21.5662 48.7277
21.7479 53.9753
21.9297 61.999
22.1115 56.1789
22.2933 52.5055
22.4753 48.9037
22.6572 48.9784
22.8393 52.0618
23.0214 57.0318
23.2037 49.8838
23.3859 51.7317
23.5682 53.6211
23.7505 53.3996
23.9329 45.5781
24.1154 44.2464
24.2979 43.5652
24.4805 42.9949
24.6631 42.9672
24.8458 42.4861
25.0286 43.092
25.2114 44.6802
25.3943 44.9862
25.5773 41.8725
25.7605 40.6104
25.9436 40.9927
26.1268 41.5767
26.31 40.9802
26.4933 41.0093
26.6767 41.9486
26.8601 41.3039
27.0437 39.419
27.2272 38.9349
27.4109 38.6666
27.5946 38.7259
27.7784 38.443
27.9623 38.5065
28.1462 39.5483
28.3304 37.9713
28.5145 36.3602
28.6987 35.8774
28.8829 35.5919
29.0673 35.104
29.2517 34.5394
29.4361 34.1946
29.6207 33.6113
29.8053 33.0737
29.99 32.7519
30.1748 32.5914
30.3597 32.6663
30.5447 32.4008
30.7297 32.3087
30.915 32.0748
31.1002 31.4549
31.2855 31.2439
31.4708 30.985
31.6563 30.8789
31.8418 30.3371
32.0275 30.2245
32.2132 29.8298
32.399 29.2074
32.5848 28.6769
32.7708 28.3531
32.9569 28.2682
33.143 27.945
33.3293 27.6713
33.5158 27.3541
33.7022 26.8162
33.8887 26.5401
34.0753 26.1545
34.262 25.7426
34.4488 25.4111
34.6357 25.1735
34.8227 24.911
35.0098 24.5593
35.1969 24.3869
35.3842 24.124
35.5716 23.9926
35.759 23.6964
35.9468 23.3123
36.1345 23.0965
36.3222 22.8634
36.5101 22.5303
36.6981 22.2697
36.8861 22.064
37.0743 21.6273
37.2626 21.4282
37.451 21.1085
37.6395 20.8992
37.8281 20.6136
38.0168 20.4182
38.2056 20.1279
38.3945 19.7988
38.5837 19.5357
38.7728 19.3382
38.9621 19.0512
39.1514 18.8111
39.3409 18.5788
39.5304 18.3412
39.7201 18.1881
39.9099 17.9344
40.0999 17.6576
40.2899 17.4515
40.48 17.2623
40.6703 17.0281
40.8607 16.8624
41.0512 16.6017
41.242 16.3758
41.4327 16.1823
41.6236 15.9657
41.8146 15.8478
42.0057 15.5209
42.1969 15.3014
42.3882 15.1341
42.5797 14.8999
42.7713 14.6866
42.963 14.4969
43.1549 14.3522
43.3468 14.1054
43.5389 13.9155
43.7312 13.749
43.9237 13.5832
44.1162 13.3477
44.3088 13.1728
44.5016 12.9574
44.6945 12.7433
44.8875 12.6055
45.0806 12.4626
45.2739 12.2698
45.4673 12.083
45.6609 11.9066
45.8546 11.7816
46.0484 11.6129
46.2424 11.4445
46.4365 11.3015
46.631 11.096
46.8254 10.9196
47.0199 10.7676
47.2146 10.6285
47.4095 10.4859
47.6044 10.3134
47.7996 10.156
47.9948 9.99523
48.1902 9.87377
48.3858 9.70069
48.5815 9.60661
48.7774 9.42882
48.9734 9.28557
49.1696 9.20045
49.3661 9.03204
49.5626 8.87559
49.7592 8.7733
49.956 8.64707
50.153 8.48406
50.3501 8.36652
50.5474 8.26207
50.7448 8.12124
50.9424 7.96311
51.1402 7.88442
51.3381 7.72443
51.5362 7.59926
51.7344 7.50044
51.9328 7.33317
52.1316 7.22617
52.3304 7.13916
52.5293 6.9963
52.7284 6.92529
52.9276 6.81153
53.1271 6.69727
53.3267 6.58421
53.5265 6.41596
53.7264 6.34123
53.9266 6.22194
54.1269 6.10721
54.3274 5.92073
54.528 5.81571
54.7289 5.64418
54.9301 5.45961
55.1314 5.34061
55.3328 5.07646
55.5344 4.85335
55.7361 4.78017

File: Ni3Fe_FD0153.xy
TT I
1.27165 7.70904
1.45013 6.80721
1.62863 5.73328
1.80712 5.57849
1.98562 5.1671
2.16411 4.30715
2.34263 4.34813
2.52115 4.32754
2.69965 5.10827
2.87818 7.95128
3.05672 11.6961
3.23527 14.9759
3.4138 19.1677
3.59237 21.9907
3.77094 24.7632
3.9495 28.7047
4.12809 32.5981
4.30669 37.4369
4.4853 44.7173
4.6639 53.5303
4.84253 65.8924
5.02118 90.457
5.19981 545.115
5.37848 452.64
5.55716 107.5
5.73586 94.9679
5.91455 104.902
6.09328 2721.71
6.27201 88.9691
6.45075 66.1454
6.62952 59.4319
6.8083 55.4669
6.98711 53.2993
7.16591 52.1734
7.34475 51.9926
7.5236 55.8834
7.70247 53.8919
7.88135 56.2788
8.06026 60.4116
8.23919 67.7537
8.41812 83.3996
8.59709 888.928
8.77609 116.194
8.9551 85.077
9.13412 81.3925
9.31318 86.3488
9.49226 83.2987
9.67134 88.3713
9.85047 98.8133
10.0296 543.469
10.2088 983.498
10.388 104.194
10.5672 329.637
10.7465 90.6518
10.9257 75.7853
11.105 70.1676
11.2844 66.0172
11.4637 63.4171
11.6431 62.0853
11.8225 61.0331
12.002 65.3184
12.1814 117.772
12.3609 75.0187
12.5405 62.9044
12.72 64.9465
12.8996 69.6138
13.0792 79.0929
13.2589 204.723
13.4386 212.139
13.6183 192.78
13.7981 152.441
13.9779 75.9065
14.1577 74.0173
14.3376 69.043
14.5175 68.4297
14.6974 69.5759
14.8774 120.734
15.0574 203.548
15.2374 69.0005
15.4175 66.1334
15.5976 65.5067
15.7778 107.298
15.958 184.693
16.1382 61.6459
16.3185 57.0969
16.4988 54.9687
16.6792 53.7773
16.8596 54.1267
17.04 55.2027
17.2205 65.2489
17.401 80.5449
17.5815 58.8313
17.7622 61.1935
17.9428 83.3123
18.1237 115.18
18.3044 88.1888
18.4852 94.9415
18.666 60.8745
18.8469 58.1068
19.0278 56.6704
19.2088 61.6573
19.3898 69.0459
19.5709 56.2764
19.752 53.2141
19.9332 58.16
20.1144 66.533
20.2957 60.9266
20.477 58.7884
20.6586 49.842
20.84 48.9462
21.0215 48.9059
21.203 49.8007
21.3846 50.3004
21.5662 48.8678
21.7479 54.0305
21.9297 62.0732
22.1115 56.2778
22.2933 52.4787
22.4753 48.8052
22.6572 49.1119
22.8393 52.1373
23.0214 57.1367
23.2037 49.7055
23.3859 51.7005
23.5682 53.434
23.7505 53.2813
23.9329 45.6804
24.1154 44.3067
24.2979 43.606
24.4805 42.9368
24.6631 43.1323
24.8458 42.3437
25.0286 43.1342
25.2114 44.5733
25.3943 44.7826
25.5773 41.6968
25.7605 40.7563
25.9436 40.9241
26.1268 41.6333
26.31 41.0225
26.4933 40.8499
26.6767 42.014
26.8601 41.2617
27.0437 39.4613
27.2272 38.92
27.4109 38.6134
27.5946 38.7389
27.7784 38.4165
27.9623 38.4346
28.1462 39.4283
28.3304 38.0925
28.5145 36.3013
28.6987 35.9581
28.8829 35.6032
29.0673 35.2105
29.2517 34.491
29.4361 34.3793
29.6207 33.4827
29.8053 32.9997
29.99 32.7312
30.1748 32.5609
30.3597 32.6231
30.5447 32.3338
30.7297 32.337
30.915 32.1138
31.1002 31.5348
31.2855 31.141
31.4708 31.026
31.6563 30.9547
31.8418 30.3725
32.0275 30.1909
32.2132 29.7654
32.399 29.1693
32.5848 28.6968
32.7708 28.3673
32.9569 28.3108
33.143 27.9964
33.3293 27.6138
33.5158 27.3498
33.7022 26.8166
33.8887 26.4937
34.0753 26.1948
34.262 25.7264
34.4488 25.4834
34.6357 25.1696
34.8227 24.7806
35.0098 24.6342
35.1969 24.3527
35.3842 24.1665
35.5716 23.9447
35.759 23.7063
35.9468 23.3299
36.1345 23.007
36.3222 22.8433
36.5101 22.5532
36.6981 22.2781
36.8861 21.9817
37.0743 21.5933
37.2626 21.3224
37.451 21.1234
37.6395 21.0271
37.8281 20.6857
38.0168 20.4531
38.2056 20.0991
38.3945 19.8474
38.5837 19.6126
38.7728 19.3608
38.9621 19.1235
39.1514 18.8448
39.3409 18.5634
39.5304 18.3522
39.7201 18.1936
39.9099 17.9879
40.0999 17.711
40.2899 17.5013
40.48 17.3052
40.6703 17.0757
40.8607 16.8879
41.0512 16.5934
41.242 16.3564
41.4327 16.1439
41.6236 15.9745
41.8146 15.7854
42.0057 15.5002
42.1969 15.3427
42.3882 15.1556
42.5797 14.9132
42.7713 14.7328
42.963 14.54
43.1549 14.3218
43.3468 14.1361
43.5389 13.9434
43.7312 13.7508
43.9237 13.5707
44.1162 13.2996
44.3088 13.1383
44.5016 12.9604
44.6945 12.815
44.8875 12.6251
45.0806 12.4606
45.2739 12.2543
45.4673 12.1287
45.6609 11.9183
45.8546 11.7891
46.0484 11.6083
46.2424 11.4256
46.4365 11.2629
46.631 11.0785
46.8254 10.9182
47.0199 10.7916
47.2146 10.6061
47.4095 10.4603
47.6044 10.3033
47.7996 10.1665
47.9948 10.0039
48.1902 9.88631
48.3858 9.73109
48.5815 9.58855
48.7774 9.46638
48.9734 9.30743
49.1696 9.1793
49.3661 9.00603
49.5626 8.89159
49.7592 8.71822
49.956 8.64429
50.153 8.47973
50.3501 8.37454
50.5474 8.2651
50.7448 8.09879
50.9424 7.96709
51.1402 7.86369
51.3381 7.71695
51.5362 7.62233
51.7344 7.46333
51.9328 7.36933
52.1316 7.21664
52.3304 7.14886
52.5293 7.00342
52.7284 6.88753
52.9276 6.77797
53.1271 6.66633
53.3267 6.58509
53.5265 6.42666
53.7264 6.34825
53.9266 6.24484
54.1269 6.10958
54.3274 5.95851
54.528 5.78279
54.7289 5.61398
54.9301 5.44504
55.1314 5.31288
55.3328 5.05898
55.5344 4.89634
55.7361 4.79639

File: Ni3Fe_FD0154.xy
TT I
1.27165 8.04219
1.45013 6.32862
1.62863 5.18941
1.80712 5.50329
1.98562 4.91959
2.16411 4.65414
2.34263 4.39407
2.52115 3.93014
2.69965 5.02697
2.87818 7.89244
3.05672 11.1633
3.23527 15.0438
3.4138 19.0404
3.59237 22.0931
3.77094 25.2738
3.9495 28.6049
4.12809 32.6289
4.30669 38.0786
4.4853 44.8758
4.6639 53.8853
4.84253 65.8236
5.02118 90.4564
5.19981 543.72
5.37848 450.701
5.55716 107.281
5.73586 95.4597
5.91455 105.32
6.09328 2731.6
6.27201 88.5574
6.45075 66.2338
6.62952 59.8729
6.8083 55.6933
6.98711 53.4505
7.16591 52.2923
7.34475 52.0297
7.5236 55.672
7.70247 54.1529
7.88135 56.2031
8.06026 60.8237
8.23919 67.4725
8.41812 83.4642
8.59709 890.912
8.77609 116.086
8.9551 84.8816
9.13412 81.235
9.31318 86.2322
9.49226 83.4603
9.67134 88.6214
9.85047 98.6352
10.0296 543.215
10.2088 981.322
10.388 104.303
10.5672 330.546
10.7465 90.5289
10.9257 75.4625
11.105 70.0979
11.2844 66.0641
11.4637 63.2943
11.6431 61.9646
11.8225 60.781
12.002 65.1374
12.1814 117.762
12.3609 74.6603
12.5405 62.9925
12.72 64.908
12.8996 69.7024
13.0792 79.0003
13.2589 204.916
13.4386 211.131
13.6183 192.948
13.7981 153.601
13.9779 75.998
14.1577 73.9412
14.3376 69.0085
14.5175 68.41
14.6974 69.6218
14.8774 120.828
15.0574 203.556
15.2374 69.1395
15.4175 66.1989
15.5976 65.567
15.7778 107.363
15.958 184.882
16.1382 61.9499
16.3185 57.3213
16.4988 54.9806
16.6792 53.8533
16.8596 54.1626
17.04 55.3624
17.2205 65.3322
17.401 80.7332
17.5815 58.8585
17.7622 61.1579
17.9428 83.7866
18.1237 115.023
18.3044 88.2156
18.4852 94.9952
18.666 60.8991
18.8469 58.2255
19.0278 56.6526
19.2088 61.888
19.3898 69.059
19.5709 56.319
19.752 53.2776
19.9332 58.0559
20.1144 66.8517
20.2957 61.3191
20.477 59.0005
20.6586 49.8337
20.84 49.0838
21.0215 48.926
21.203 49.695
21.3846 50.4188
21.5662 48.8732
21.7479 53.9581
21.9297 62.0444
22.1115 56.0647
22.2933 52.4737
22.4753 48.9396
22.6572 49.0529
22.8393 51.9778
23.0214 57.2213
23.2037 49.9428
23.3859 51.7446
23.5682 53.7293
23.7505 53.1133
23.9329 45.621
24.1154 44.2606
24.2979 43.5494
24.4805 42.9654
24.6631 43.0127
24.8458 42.5222
25.0286 43.0909
25.2114 44.6871
25.3943 44.8237
25.5773 41.7219
25.7605 40.6445
25.9436 41.1008
26.1268 41.5969
26.31 40.9761
26.4933 40.8271
26.6767 42.1823
26.8601 41.2107
27.0437 39.4824
27.2272 38.9306
27.4109 38.6357
27.5946 38.9198
27.7784 38.4836
27.9623 38.512
28.1462 39.4458
28.3304 38.0117
28.5145 36.1832
28.6987 35.895
28.8829 35.4496
29.0673 35.2139
29.2517 34.4455
29.4361 34.2847
29.6207 33.6257
29.8053 33.0872
29.99 32.9058
30.1748 32.5744
30.3597 32.6243
30.5447 32.4521
30.7297 32.3908
30.915 32.0932
31.1002 31.521
31.2855 31.1415
31.4708 30.9602
31.6563 30.8356
31.8418 30.4124
32.0275 30.2688
32.2132 29.6643
32.399 29.1557
32.5848 28.7798
32.7708 28.4975
32.9569 28.2492
33.143 27.9032
33.3293 27.7096
33.5158 27.3045
33.7022 26.7759
33.8887 26.5129
34.0753 26.2844
34.262 25.8575
34.4488 25.4707
34.6357 25.252
34.8227 24.8619
35.0098 24.6272
35.1969 24.4078
35.3842 24.0992
35.5716 24.0322
35.759 23.6279
35.9468 23.2595
36.1345 23.132
36.3222 22.8197
36.5101 22.6061
36.6981 22.2811
36.8861 21.986
37.0743 21.6682
37.2626 21.3862
37.451 21.1198
37.6395 20.9648
37.8281 20.6515
38.0168 20.3488
38.2056 20.1897
38.3945 19.7613
38.5837 19.6002
38.7728 19.3641
38.9621 19.0862
39.1514 18.7436
39.3409 18.576
39.5304 18.4254
39.7201 18.1229
39.9099 17.9307
40.0999 17.7278
40.2899 17.5047
40.48 17.2919
40.6703 17.0483
40.8607 16.868
41.0512 16.6081
41.242 16.4213
41.4327 16.1768
41.6236 15.9277
41.8146 15.7549
42.0057 15.4867
42.1969 15.3322
42.3882 15.1739
42.5797 14.9226
42.7713 14.7287
42.963 14.522
43.1549 14.3115
43.3468 14.1402
43.5389 13.9535
43.7312 13.7494
43.9237 13.5576
44.1162 13.38
44.3088 13.1553
44.5016 12.9672
44.6945 12.8264
44.8875 12.5981
45.0806 12.4542
45.2739 12.2511
45.4673 12.1116
45.6609 11.9089
45.8546 11.7817
46.0484 11.6104
46.2424 11.4382
46.4365 11.2643
46.631 11.0771
46.8254 10.9334
47.0199 10.786
47.2146 10.6596
47.4095 10.472
47.6044 10.305
47.7996 10.1685
47.9948 10.0279
48.1902 9.88412
48.3858 9.74356
48.5815 9.56506
48.7774 9.45773
48.9734 9.32179
49.1696 9.19198
49.3661 9.04519
49.5626 8.88709
49.7592 8.7626
49.956 8.64015
50.153 8.50635
50.3501 8.3917
50.5474 8.25695
50.7448 8.16331
50.9424 8.02182
51.1402 7.87988
51.3381 7.71426
51.5362 7.64898
51.7344 7.4943
51.9328 7.31066
52.1316 7.21896
52.3304 7.1343
52.5293 7.01689
52.7284 6.89818
52.9276 6.78139
53.1271 6.69475
53.3267 6.57352
53.5265 6.44781
53.7264 6.37282
53.9266 6.23048
54.1269 6.06456
54.3274 5.96109
54.528 5.77901
54.7289 5.69095
54.9301 5.43176
55.1314 5.31641
55.3328 5.06211
55.5344 4.9002
55.7361 4.76137

File: Ni3Fe_FD0155.xy
TT I
1.27165 8.2003
1.45013 6.96565
1.62863 6.03304
1.80712 4.87152
1.98562 5.43026
2.16411 4.61976
2.34263 4.89572
2.52115 4.3024
2.69965 5.59923
2.87818 8.16684
3.05672 11.1622
3.23527 15.3026
3.4138 18.7315
3.59237 22.1261
3.77094 25.2738
3.9495 28.7871
4.12809 32.9535
4.30669 38.193
4.4853 44.7491
4.6639 53.636
4.84253 66.3144
5.02118 90.5978
5.19981 546.01
5.37848 445.207
5.55716 107.823
5.73586 95.8335
5.91455 105.334
6.09328 2738.99
6.27201 88.9972
6.45075 66.4961
6.62952 59.6364
6.8083 55.197
6.98711 53.1882
7.16591 52.465
7.34475 51.8411
7.5236 56.1162
7.70247 53.9344
7.88135 56.4299
8.06026 60.726
8.23919 67.5423
8.41812 83.3929
8.59709 892.652
8.77609 115.824
8.9551 85.4749
9.13412 81.4915
9.31318 85.9892
9.49226 83.7073
9.67134 88.4594
9.85047 98.6793
10.0296 544.464
10.2088 974.271
10.388 104.291
10.5672 331.827
10.7465 90.2837
10.9257 75.7422
11.105 70.3601
11.2844 66.1345
11.4637 63.5101
11.6431 61.9891
11.8225 61.0884
12.002 65.2408
12.1814 118.271
12.3609 74.9085
12.5405 62.8605
12.72 65.1664
12.8996 69.7336
13.0792 79.0956
13.2589 205.254
13.4386 209.629
13.6183 192.975
13.7981 154.018
13.9779 75.9818
14.1577 74.1155
14.3376 68.9746
14.5175 68.1843
14.6974 69.8183
14.8774 121.059
15.0574 203.143
15.2374 69.1358
15.4175 66.2697
15.5976 65.6996
15.7778 107.219
15.958 184.86
16.1382 61.6442
16.3185 57.0825
16.4988 54.9132
16.6792 53.8524
16.8596 54.0366
17.04 55.2648
17.2205 65.3417
17.401 80.9037
17.5815 58.9435
17.7622 61.3621
17.9428 83.4562
18.1237 115.445
18.3044 88.0094
18.4852 94.7804
18.666 60.772
18.8469 58.0607
19.0278 56.6818
19.2088 61.6877
19.3898 69.1587
19.5709 56.2579
19.752 53.1391
19.9332 57.9685
20.1144 67.0749
20.2957 61.0694
20.477 58.7295
20.6586 49.7383
20.84 48.8999
21.0215 48.7991
21.203 49.6155
21.3846 50.3374
21.5662 48.9129
21.7479 54.0447
21.9297 62.1553
22.1115 56.4062
22.2933 52.4559
22.4753 48.912
22.6572 48.9992
22.8393 52.0489
23.0214 57.1795
23.2037 49.7164
23.3859 51.7157
23.5682 53.6429
23.7505 53.2013
23.9329 45.644
24.1154 44.3106
24.2979 43.7011
24.4805 42.9674
24.6631 43.2174
24.8458 42.3983
25.0286 42.9584
25.2114 44.6973
25.3943 44.8627
25.5773 41.7046
25.7605 40.7513
25.9436 41.1213
26.1268 41.6274
26.31 40.9819
26.4933 41.0369
26.6767 42.004
26.8601 41.3179
27.0437 39.5272
27.2272 38.9126
27.4109 38.7127
27.5946 38.6668
27.7784 38.4297
27.9623 38.5159
28.1462 39.3511
28.3304 38.0022
28.5145 36.3032
28.6987 35.8858
28.8829 35.4321
29.0673 35.1488
29.2517 34.5035
29.4361 34.2108
29.6207 33.4933
29.8053 33.0746
29.99 32.816
30.1748 32.6272
30.3597 32.6566
30.5447 32.4496
30.7297 32.347
30.915 32.0987
31.1002 31.4143
31.2855 31.1927
31.4708 30.9874
31.6563 30.8956
31.8418 30.3584
32.0275 30.2654
32.2132 29.8116
32.399 29.1738
32.5848 28.7545
32.7708 28.3171
32.9569 28.176
33.143 27.9223
33.3293 27.6258
33.5158 27.4288
33.7022 26.8659
33.8887 26.5362
34.0753 26.2545
34.262 25.8312
34.4488 25.5081
34.6357 25.1329
34.8227 24.9072
35.0098 24.6249
35.1969 24.4549
35.3842 24.1788
35.5716 23.9786
35.759 23.6642
35.9468 23.2676
36.1345 23.0157
36.3222 22.8477
36.5101 22.5373
36.6981 22.3243
36.8861 21.9395
37.0743 21.5798
37.2626 21.4375
37.451 21.1743
37.6395 20.9759
37.8281 20.6668
38.0168 20.4374
38.2056 20.1296
38.3945 19.8154
38.5837 19.5921
38.7728 19.3726
38.9621 19.1113
39.1514 18.7856
39.3409 18.609
39.5304 18.41
39.7201 18.1855
39.9099 17.9642
40.0999 17.7051
40.2899 17.4973
40.48 17.2787
40.6703 16.9887
40.8607 16.9003
41.0512 16.6372
41.242 16.3819
41.4327 16.1654
41.6236 15.9563
41.8146 15.7781
42.0057 15.5493
42.1969 15.3026
42.3882 15.1497
42.5797 14.9267
42.7713 14.7458
42.963 14.5175
43.1549 14.3432
43.3468 14.11
43.5389 13.9033
43.7312 13.7141
43.9237 13.5556
44.1162 13.368
44.3088 13.1513
44.5016 12.9781
44.6945 12.7967
44.8875 12.6481
45.0806 12.4744
45.2739 12.2997
45.4673 12.0857
45.6609 11.9481
45.8546 11.7625
46.0484 11.5983
46.2424 11.4456
46.4365 11.2865
46.631 11.1379
46.8254 10.9018
47.0199 10.7547
47.2146 10.6166
47.4095 10.4403
47.6044 10.2734
47.7996 10.1576
47.9948 9.9988
48.1902 9.85819
48.3858 9.77781
48.5815 9.616
48.7774 9.46913
48.9734 9.29011
49.1696 9.1566
49.3661 9.04225
49.5626 8.8744
49.7592 8.79543
49.956 8.6107
50.153 8.4962
50.3501 8.34297
50.5474 8.2586
50.7448 8.10588
50.9424 7.96665
51.1402 7.85138
51.3381 7.75147
51.5362 7.60754
51.7344 7.46932
51.9328 7.36434
52.1316 7.23851
52.3304 7.17953
52.5293 6.97102
52.7284 6.92688
52.9276 6.78178
53.1271 6.6967
53.3267 6.57017
53.5265 6.44465
53.7264 6.34962
53.9266 6.18209
54.1269 6.08804
54.3274 5.93325
54.528 5.80857
54.7289 5.59955
54.9301 5.47606
55.1314 5.32958
55.3328 5.09958
55.5344 4.87534
55.7361 4.80983

File: Ni3Fe_FD0156.xy
TT I
1.27165 7.74285
1.45013 7.01591
1.62863 5.92514
1.80712 5.22992
1.98562 5.04383
2.16411 4.1467
2.34263 4.67204
2.52115 4.50737
2.69965 6.09897
2.87818 8.18544
3.05672 11.585
3.23527 15.35
3.4138 19.1904
3.59237 21.9597
3.77094 24.9634
3.9495 28.7707
4.12809 32.8762
4.30669 37.6174
4.4853 45.2761
4.6639 53.8068
4.84253 66.346
5.02118 90.3282
5.19981 544.034
5.37848 439.073
5.55716 107.391
5.73586 95.4344
5.91455 105.076
6.09328 2753.73
6.27201 89.4773
6.45075 66.4832
6.62952 59.7724
6.8083 55.4227
6.98711 53.5177
7.16591 52.324
7.34475 52.3142
7.5236 55.8684
7.70247 54.0845
7.88135 56.2971
8.06026 60.3906
8.23919 67.9949
8.41812 83.3228
8.59709 891.866
8.77609 115.677
8.9551 84.9819
9.13412 81.4884
9.31318 86.3938
9.49226 83.4812
9.67134 88.6366
9.85047 98.5601
10.0296 543.172
10.2088 968.791
10.388 104.557
10.5672 332.494
10.7465 90.3655
10.9257 75.8623
11.105 70.3758
11.2844 66.0149
11.4637 63.4255
11.6431 61.7338
11.8225 61.0968
12.002 65.1456
12.1814 118.832
12.3609 74.7103
12.5405 62.9591
12.72 65.0411
12.8996 69.6076
13.0792 78.9738
13.2589 205.661
13.4386 208.013
13.6183 193.021
13.7981 153.315
13.9779 76.0909
14.1577 73.9798
14.3376 68.8563
14.5175 68.1595
14.6974 69.8081
14.8774 120.652
15.0574 203.141
15.2374 69.1525
15.4175 66.0661
15.5976 65.6537
15.7778 107.023
15.958 185.785
16.1382 61.8721
16.3185 57.2831
16.4988 54.7326
16.6792 53.979
16.8596 54.279
17.04 55.1915
17.2205 65.2612
17.401 80.7272
17.5815 59.0845
17.7622 61.2817
17.9428 83.6096
18.1237 115.241
18.3044 88.2603
18.4852 94.349
18.666 60.809
18.8469 57.9211
19.0278 56.8243
19.2088 61.7641
19.3898 69.2364
19.5709 56.1747
19.752 53.5751
19.9332 58.2999
20.1144 67.1748
20.2957 61.0127
20.477 58.757
20.6586 49.6922
20.84 48.9805
21.0215 48.849
21.203 49.7172
21.3846 50.6411
21.5662 49.0603
21.7479 54.0201
21.9297 62.2671
22.1115 56.2939
22.2933 52.399
22.4753 48.8173
22.6572 49.0651
22.8393 52.0386
23.0214 57.269
23.2037 49.7685
23.3859 51.91
23.5682 53.7836
23.7505 53.1379
23.9329 45.6095
24.1154 44.3905
24.2979 43.7343
24.4805 42.9459
24.6631 43.0407
24.8458 42.608
25.0286 43.0352
25.2114 44.8183
25.3943 44.911
25.5773 41.7166
25.7605 40.7289
25.9436 41.0806
26.1268 41.5554
26.31 40.9657
26.4933 41.0985
26.6767 42.1216
26.8601 41.2379
27.0437 39.5613
27.2272 38.9561
27.4109 38.5244
27.5946 38.8321
27.7784 38.6214
27.9623 38.6321
28.1462 39.4382
28.3304 38.0242
28.5145 36.3977
28.6987 35.9419
28.8829 35.4885
29.0673 35.1417
29.2517 34.574
29.4361 34.2577
29.6207 33.6411
29.8053 33.1379
29.99 32.8855
30.1748 32.5419
30.3597 32.6759
30.5447 32.3927
30.7297 32.3191
30.915 32.0991
31.1002 31.5258
31.2855 31.1125
31.4708 31.0265
31.6563 30.8896
31.8418 30.2897
32.0275 30.2102
32.2132 29.8623
32.399 29.2074
32.5848 28.7166
32.7708 28.4969
32.9569 28.2216
33.143 27.9728
33.3293 27.6263
33.5158 27.3732
33.7022 26.791
33.8887 26.5041
34.0753 26.158
34.262 25.7571
34.4488 25.4959
34.6357 25.1051
34.8227 24.8787
35.0098 24.7141
35.1969 24.4028
35.3842 24.1874
35.5716 24.1511
35.759 23.7124
35.9468 23.2351
36.1345 23.1313
36.3222 22.8687
36.5101 22.6297
36.6981 22.2765
36.8861 22.0358
37.0743 21.6591
37.2626 21.4236
37.451 21.1371
37.6395 21.032
37.8281 20.6784
38.0168 20.3401
38.2056 20.0879
38.3945 19.8229
38.5837 19.5572
38.7728 19.3849
38.9621 19.1168
39.1514 18.769
39.3409 18.6077
39.5304 18.3944
39.7201 18.1701
39.9099 18.0026
40.0999 17.7579
40.2899 17.4791
40.48 17.2904
40.6703 17.0474
40.8607 16.8448
41.0512 16.6912
41.242 16.3975
41.4327 16.1915
41.6236 15.9248
41.8146 15.8225
42.0057 15.5573
42.1969 15.3193
42.3882 15.1634
42.5797 14.9611
42.7713 14.7219
42.963 14.5414
43.1549 14.3269
43.3468 14.1644
43.5389 13.9538
43.7312 13.7694
43.9237 13.5523
44.1162 13.3972
44.3088 13.1688
44.5016 12.9576
44.6945 12.8804
44.8875 12.6342
45.0806 12.446
45.2739 12.3093
45.4673 12.1394
45.6609 11.9295
45.8546 11.7931
46.0484 11.5809
46.2424 11.4554
46.4365 11.3055
46.631 11.1332
46.8254 10.9413
47.0199 10.781
47.2146 10.6326
47.4095 10.4539
47.6044 10.3204
47.7996 10.1678
47.9948 10.016
48.1902 9.86318
48.3858 9.7771
48.5815 9.56422
48.7774 9.46743
48.9734 9.35751
49.1696 9.15298
49.3661 9.01582
49.5626 8.85336
49.7592 8.76052
49.956 8.63852
50.153 8.512
50.3501 8.371
50.5474 8.26926
50.7448 8.105
50.9424 8.00839
51.1402 7.84489
51.3381 7.73223
51.5362 7.61347
51.7344 7.4932
51.9328 7.3137
52.1316 7.24388
52.3304 7.15419
52.5293 7.00795
52.7284 6.87259
52.9276 6.74732
53.1271 6.68742
53.3267 6.55474
53.5265 6.39968
53.7264 6.31839
53.9266 6.18184
54.1269 6.13334
54.3274 5.95065
54.528 5.78684
54.7289 5.63374
54.9301 5.4546
55.1314 5.36899
55.3328 5.0737
55.5344 4.93227
55.7361 4.76795