Folder: NiFe_MOF_catalyst_paper/XRD (part 178)

File: Ni3Fe_FD0964.xy
TT I
1.27165 7.15326
1.45013 5.9423
1.62863 4.86902
1.80712 4.57986
1.98562 4.51513
2.16411 5.15925
2.34263 5.78156
2.52115 7.71262
2.69965 8.49746
2.87818 9.02799
3.05672 11.2053
3.23527 15.4377
3.4138 19.1625
3.59237 24.3155
3.77094 25.8013
3.9495 29.4387
4.12809 34.3069
4.30669 190.368
4.4853 62.3155
4.6639 54.763
4.84253 66.7706
5.02118 85.4263
5.19981 284.354
5.37848 172.649
5.55716 99.9814
5.73586 90.0355
5.91455 90.9641
6.09328 4639.64
6.27201 80.3526
6.45075 66.3262
6.62952 62.0797
6.8083 57.7179
6.98711 54.8842
7.16591 54.4699
7.34475 85.0872
7.5236 53.8454
7.70247 55.0659
7.88135 56.9769
8.06026 61.1246
8.23919 68.0948
8.41812 82.8796
8.59709 1160.55
8.77609 96.2911
8.9551 89.54
9.13412 80.8426
9.31318 81.3527
9.49226 82.9906
9.67134 96.1219
9.85047 97.5728
10.0296 304.916
10.2088 355.55
10.388 101.821
10.5672 526.339
10.7465 84.4692
10.9257 76.5348
11.105 70.7618
11.2844 68.9456
11.4637 63.8692
11.6431 62.7558
11.8225 61.5035
12.002 62.3297
12.1814 156.023
12.3609 68.4475
12.5405 63.3691
12.72 68.3048
12.8996 69.6066
13.0792 77.1199
13.2589 237.038
13.4386 118.567
13.6183 249.123
13.7981 94.2085
13.9779 74.3807
14.1577 70.7991
14.3376 69.934
14.5175 67.3977
14.6974 68.9881
14.8774 106.674
15.0574 144.463
15.2374 69.4369
15.4175 65.343
15.5976 64.2647
15.7778 91.5584
15.958 148.348
16.1382 61.2411
16.3185 57.6547
16.4988 54.2701
16.6792 53.5089
16.8596 54.3073
17.04 54.8012
17.2205 65.5753
17.401 69.232
17.5815 57.9948
17.7622 60.056
17.9428 71.1428
18.1237 137.199
18.3044 90.0439
18.4852 74.8388
18.666 59.2679
18.8469 56.9779
19.0278 55.6525
19.2088 58.1007
19.3898 74.7364
19.5709 53.1294
19.752 52.2549
19.9332 55.0528
20.1144 68.7373
20.2957 63.7739
20.477 52.3655
20.6586 48.7636
20.84 47.8126
21.0215 47.5441
21.203 50.2123
21.3846 48.0759
21.5662 47.969
21.7479 51.437
21.9297 63.3746
22.1115 55.2593
22.2933 48.9649
22.4753 47.84
22.6572 47.884
22.8393 50.9596
23.0214 56.1158
23.2037 47.8683
23.3859 48.6569
23.5682 56.5618
23.7505 47.3075
23.9329 44.3665
24.1154 43.317
24.2979 42.6458
24.4805 42.1863
24.6631 41.8711
24.8458 41.4638
25.0286 42.0378
25.2114 43.884
25.3943 43.7523
25.5773 40.125
25.7605 39.6516
25.9436 39.9944
26.1268 41.0104
26.31 39.2418
26.4933 40.0235
26.6767 41.5041
26.8601 39.6714
27.0437 38.195
27.2272 37.7863
27.4109 37.7263
27.5946 37.6503
27.7784 37.0886
27.9623 37.7718
28.1462 38.088
28.3304 36.4541
28.5145 35.2878
28.6987 35.0674
28.8829 34.8006
29.0673 34.0461
29.2517 33.7167
29.4361 33.5835
29.6207 32.443
29.8053 32.2946
29.99 31.9727
30.1748 31.8482
30.3597 31.6573
30.5447 31.5838
30.7297 31.6097
30.915 31.0312
31.1002 30.5575
31.2855 30.2581
31.4708 30.2882
31.6563 29.8666
31.8418 29.6969
32.0275 29.4207
32.2132 28.8304
32.399 28.4926
32.5848 28.0339
32.7708 27.5997
32.9569 27.549
33.143 27.3118
33.3293 26.9033
33.5158 26.6082
33.7022 26.1169
33.8887 25.8215
34.0753 25.5417
34.262 25.1642
34.4488 24.8328
34.6357 24.567
34.8227 24.1821
35.0098 24.1662
35.1969 23.7848
35.3842 23.5868
35.5716 23.3357
35.759 23.1189
35.9468 22.715
36.1345 22.5311
36.3222 22.2577
36.5101 22.0261
36.6981 21.7735
36.8861 21.4878
37.0743 21.1106
37.2626 20.8561
37.451 20.5969
37.6395 20.5053
37.8281 20.1174
38.0168 19.8199
38.2056 19.5978
38.3945 19.312
38.5837 19.1498
38.7728 18.8871
38.9621 18.64
39.1514 18.4065
39.3409 18.1485
39.5304 17.9832
39.7201 17.6885
39.9099 17.4753
40.0999 17.2896
40.2899 17.0652
40.48 16.8165
40.6703 16.6265
40.8607 16.4191
41.0512 16.1636
41.242 15.9833
41.4327 15.807
41.6236 15.5726
41.8146 15.3908
42.0057 15.1894
42.1969 14.8965
42.3882 14.7684
42.5797 14.5871
42.7713 14.3835
42.963 14.1605
43.1549 13.9871
43.3468 13.7553
43.5389 13.5728
43.7312 13.3653
43.9237 13.2431
44.1162 13.0791
44.3088 12.8716
44.5016 12.6784
44.6945 12.5025
44.8875 12.3206
45.0806 12.1728
45.2739 12.016
45.4673 11.8407
45.6609 11.6292
45.8546 11.5492
46.0484 11.3368
46.2424 11.1156
46.4365 11.0218
46.631 10.8047
46.8254 10.6573
47.0199 10.5535
47.2146 10.3949
47.4095 10.2528
47.6044 10.0631
47.7996 9.96535
47.9948 9.74479
48.1902 9.66592
48.3858 9.486
48.5815 9.35628
48.7774 9.24483
48.9734 9.1126
49.1696 8.96347
49.3661 8.83708
49.5626 8.66922
49.7592 8.54743
49.956 8.43217
50.153 8.30293
50.3501 8.16645
50.5474 8.03778
50.7448 7.94598
50.9424 7.85625
51.1402 7.69303
51.3381 7.52974
51.5362 7.43133
51.7344 7.30212
51.9328 7.17147
52.1316 7.08542
52.3304 6.92422
52.5293 6.80842
52.7284 6.70496
52.9276 6.59155
53.1271 6.51143
53.3267 6.40601
53.5265 6.27638
53.7264 6.17703
53.9266 6.0911
54.1269 5.97557
54.3274 5.80858
54.528 5.69566
54.7289 5.55491
54.9301 5.41532
55.1314 5.26937
55.3328 5.10247
55.5344 4.91134
55.7361 4.73767

File: Ni3Fe_FD0965.xy
TT I
1.27165 7.24447
1.45013 6.02713
1.62863 5.35704
1.80712 4.78838
1.98562 5.03677
2.16411 4.98728
2.34263 6.02526
2.52115 7.47512
2.69965 8.5874
2.87818 8.77433
3.05672 11.433
3.23527 15.0025
3.4138 18.6107
3.59237 23.8398
3.77094 26.0324
3.9495 29.3607
4.12809 34.7022
4.30669 193.424
4.4853 62.4708
4.6639 54.5617
4.84253 66.2578
5.02118 84.5932
5.19981 282.886
5.37848 172.957
5.55716 99.8373
5.73586 90.1181
5.91455 91.0231
6.09328 4633.22
6.27201 80.6662
6.45075 65.9983
6.62952 62.0457
6.8083 57.7079
6.98711 54.8339
7.16591 54.4329
7.34475 85.6829
7.5236 54.0072
7.70247 55.5609
7.88135 56.8406
8.06026 60.9597
8.23919 68.1993
8.41812 83.054
8.59709 1153.25
8.77609 96.2313
8.9551 89.489
9.13412 80.5086
9.31318 80.8071
9.49226 83.1085
9.67134 95.7611
9.85047 97.7383
10.0296 302.828
10.2088 358.204
10.388 101.582
10.5672 524.757
10.7465 84.529
10.9257 76.8281
11.105 70.3226
11.2844 68.813
11.4637 63.5089
11.6431 62.4755
11.8225 61.1222
12.002 61.9832
12.1814 155.179
12.3609 68.663
12.5405 63.2033
12.72 68.2298
12.8996 69.3889
13.0792 76.8382
13.2589 235.293
13.4386 118.858
13.6183 248.482
13.7981 94.2203
13.9779 74.2986
14.1577 70.9059
14.3376 69.9252
14.5175 67.5373
14.6974 69.0107
14.8774 106.257
15.0574 146.231
15.2374 69.3415
15.4175 64.9522
15.5976 64.4699
15.7778 91.0439
15.958 149.46
16.1382 61.0875
16.3185 57.4377
16.4988 54.3768
16.6792 53.3377
16.8596 54.267
17.04 54.5766
17.2205 65.2664
17.401 69.2264
17.5815 57.8889
17.7622 59.8924
17.9428 70.8668
18.1237 136.887
18.3044 89.858
18.4852 74.9245
18.666 59.2217
18.8469 56.9189
19.0278 55.8925
19.2088 58.0351
19.3898 74.7146
19.5709 53.1346
19.752 52.186
19.9332 54.7613
20.1144 68.7561
20.2957 63.5159
20.477 52.5055
20.6586 48.6208
20.84 47.9388
21.0215 47.6584
21.203 49.9952
21.3846 48.0227
21.5662 47.6856
21.7479 51.5183
21.9297 63.4928
22.1115 55.2894
22.2933 48.7794
22.4753 47.7948
22.6572 47.7633
22.8393 50.8082
23.0214 55.9695
23.2037 47.7066
23.3859 48.6492
23.5682 56.4133
23.7505 47.3554
23.9329 44.3499
24.1154 43.3412
24.2979 42.6131
24.4805 42.1095
24.6631 41.9735
24.8458 41.3932
25.0286 42.054
25.2114 43.7954
25.3943 43.7398
25.5773 40.1341
25.7605 39.6468
25.9436 40.0236
26.1268 40.9075
26.31 39.3143
26.4933 39.963
26.6767 41.5038
26.8601 39.7677
27.0437 38.2457
27.2272 37.8649
27.4109 37.7901
27.5946 37.731
27.7784 37.1471
27.9623 37.7667
28.1462 38.1551
28.3304 36.4557
28.5145 35.1858
28.6987 35.0208
28.8829 34.8097
29.0673 34.0329
29.2517 33.8001
29.4361 33.4832
29.6207 32.5887
29.8053 32.2843
29.99 32.0493
30.1748 31.8367
30.3597 31.6663
30.5447 31.5274
30.7297 31.6063
30.915 31.0781
31.1002 30.6086
31.2855 30.4107
31.4708 30.213
31.6563 29.7621
31.8418 29.6794
32.0275 29.3602
32.2132 28.8424
32.399 28.4809
32.5848 28.0501
32.7708 27.6199
32.9569 27.4793
33.143 27.3824
33.3293 26.9197
33.5158 26.6368
33.7022 26.1574
33.8887 25.9078
34.0753 25.5245
34.262 25.1768
34.4488 24.8593
34.6357 24.6079
34.8227 24.296
35.0098 24.0559
35.1969 23.7814
35.3842 23.5828
35.5716 23.3333
35.759 23.0206
35.9468 22.6884
36.1345 22.5065
36.3222 22.2465
36.5101 22.0243
36.6981 21.8134
36.8861 21.4431
37.0743 21.1683
37.2626 20.9153
37.451 20.5918
37.6395 20.4907
37.8281 20.1237
38.0168 19.8777
38.2056 19.582
38.3945 19.3351
38.5837 19.0748
38.7728 18.8969
38.9621 18.5913
39.1514 18.3294
39.3409 18.1689
39.5304 17.9025
39.7201 17.7344
39.9099 17.566
40.0999 17.27
40.2899 17.0465
40.48 16.7918
40.6703 16.6074
40.8607 16.4643
41.0512 16.1942
41.242 15.9238
41.4327 15.764
41.6236 15.6049
41.8146 15.3666
42.0057 15.204
42.1969 14.9321
42.3882 14.7523
42.5797 14.5595
42.7713 14.4052
42.963 14.2126
43.1549 14.0178
43.3468 13.7712
43.5389 13.576
43.7312 13.3872
43.9237 13.1872
44.1162 13.0992
44.3088 12.8473
44.5016 12.6602
44.6945 12.5568
44.8875 12.3857
45.0806 12.1492
45.2739 12.0039
45.4673 11.851
45.6609 11.6341
45.8546 11.5037
46.0484 11.3005
46.2424 11.1501
46.4365 11.0435
46.631 10.8223
46.8254 10.6707
47.0199 10.4865
47.2146 10.4003
47.4095 10.2182
47.6044 10.0896
47.7996 9.92146
47.9948 9.76531
48.1902 9.65401
48.3858 9.52251
48.5815 9.38317
48.7774 9.24027
48.9734 9.05632
49.1696 8.99142
49.3661 8.84661
49.5626 8.68362
49.7592 8.56057
49.956 8.42438
50.153 8.30318
50.3501 8.16574
50.5474 8.02608
50.7448 7.94491
50.9424 7.77888
51.1402 7.66664
51.3381 7.52902
51.5362 7.43119
51.7344 7.30398
51.9328 7.16988
52.1316 7.06177
52.3304 6.96041
52.5293 6.81408
52.7284 6.75608
52.9276 6.61229
53.1271 6.56445
53.3267 6.39435
53.5265 6.25526
53.7264 6.17071
53.9266 6.07473
54.1269 6.00326
54.3274 5.86126
54.528 5.70397
54.7289 5.50432
54.9301 5.37933
55.1314 5.25005
55.3328 5.02179
55.5344 4.92782
55.7361 4.70167

File: Ni3Fe_FD0966.xy
TT I
1.27165 7.2929
1.45013 6.01174
1.62863 5.33335
1.80712 4.6942
1.98562 5.12953
2.16411 5.18863
2.34263 5.92831
2.52115 7.21658
2.69965 8.67294
2.87818 8.87009
3.05672 11.0385
3.23527 14.9472
3.4138 18.9923
3.59237 23.6156
3.77094 26.3517
3.9495 29.6534
4.12809 33.9984
4.30669 195.484
4.4853 62.8973
4.6639 54.8703
4.84253 66.7696
5.02118 84.6722
5.19981 281.377
5.37848 172.743
5.55716 99.4857
5.73586 90.3171
5.91455 90.5695
6.09328 4642.73
6.27201 80.4285
6.45075 66.5255
6.62952 61.7412
6.8083 57.5373
6.98711 55.1273
7.16591 54.6052
7.34475 86.477
7.5236 54.0458
7.70247 55.344
7.88135 56.9336
8.06026 61.0606
8.23919 68.4247
8.41812 83.2998
8.59709 1153.3
8.77609 96.2599
8.9551 89.543
9.13412 80.4924
9.31318 81.0595
9.49226 82.9211
9.67134 95.754
9.85047 97.8853
10.0296 303.231
10.2088 358.784
10.388 101.972
10.5672 525.43
10.7465 84.8999
10.9257 76.9495
11.105 70.4949
11.2844 68.9458
11.4637 63.7421
11.6431 62.5237
11.8225 61.285
12.002 62.2358
12.1814 155.231
12.3609 68.4655
12.5405 63.2958
12.72 68.2344
12.8996 69.4649
13.0792 77.1617
13.2589 234.811
13.4386 118.88
13.6183 248.46
13.7981 94.1577
13.9779 74.526
14.1577 71.1176
14.3376 70.0603
14.5175 67.5679
14.6974 68.7575
14.8774 106.571
15.0574 145.845
15.2374 69.3902
15.4175 64.923
15.5976 64.4613
15.7778 91.0154
15.958 149.33
16.1382 61.1342
16.3185 57.4352
16.4988 54.5059
16.6792 53.5001
16.8596 54.0163
17.04 54.554
17.2205 65.2868
17.401 68.9863
17.5815 57.9045
17.7622 59.9885
17.9428 71.1356
18.1237 137.095
18.3044 89.8504
18.4852 74.9851
18.666 59.2495
18.8469 56.9642
19.0278 55.7139
19.2088 57.9549
19.3898 74.8409
19.5709 53.2037
19.752 52.0214
19.9332 54.8888
20.1144 68.6369
20.2957 63.4991
20.477 52.3833
20.6586 48.7824
20.84 47.9965
21.0215 47.6177
21.203 50.123
21.3846 48.1244
21.5662 47.7529
21.7479 51.3209
21.9297 63.5019
22.1115 55.2666
22.2933 48.8798
22.4753 47.9284
22.6572 47.8293
22.8393 50.9935
23.0214 55.8838
23.2037 47.8001
23.3859 48.588
23.5682 56.4545
23.7505 47.2736
23.9329 44.2255
24.1154 43.2182
24.2979 42.589
24.4805 42.1425
24.6631 42.0301
24.8458 41.3574
25.0286 41.8756
25.2114 43.6933
25.3943 43.6663
25.5773 40.2188
25.7605 39.6577
25.9436 40.0897
26.1268 40.9355
26.31 39.3192
26.4933 39.9414
26.6767 41.3539
26.8601 39.6188
27.0437 38.1393
27.2272 37.8578
27.4109 37.7162
27.5946 37.6703
27.7784 37.0781
27.9623 37.7972
28.1462 38.0696
28.3304 36.4796
28.5145 35.3693
28.6987 35.0575
28.8829 34.7849
29.0673 34.044
29.2517 33.6797
29.4361 33.4375
29.6207 32.6211
29.8053 32.2798
29.99 32.0021
30.1748 31.8237
30.3597 31.6271
30.5447 31.6179
30.7297 31.6556
30.915 31.0039
31.1002 30.5359
31.2855 30.2622
31.4708 30.2981
31.6563 29.8134
31.8418 29.5802
32.0275 29.3719
32.2132 28.8404
32.399 28.385
32.5848 28.0175
32.7708 27.6165
32.9569 27.4492
33.143 27.2943
33.3293 26.9014
33.5158 26.5282
33.7022 26.1002
33.8887 25.8341
34.0753 25.5088
34.262 25.1624
34.4488 24.887
34.6357 24.5999
34.8227 24.3021
35.0098 24.0676
35.1969 23.8069
35.3842 23.6017
35.5716 23.3849
35.759 23.0771
35.9468 22.6691
36.1345 22.5162
36.3222 22.2824
36.5101 22.0507
36.6981 21.6778
36.8861 21.4141
37.0743 21.1109
37.2626 20.9035
37.451 20.6052
37.6395 20.4998
37.8281 20.0913
38.0168 19.863
38.2056 19.6087
38.3945 19.358
38.5837 19.0376
38.7728 18.8633
38.9621 18.6362
39.1514 18.4034
39.3409 18.1051
39.5304 17.9532
39.7201 17.7967
39.9099 17.5836
40.0999 17.2956
40.2899 17.0634
40.48 16.7162
40.6703 16.6217
40.8607 16.4316
41.0512 16.2486
41.242 15.9722
41.4327 15.7594
41.6236 15.5971
41.8146 15.3762
42.0057 15.1293
42.1969 14.9208
42.3882 14.7861
42.5797 14.6113
42.7713 14.357
42.963 14.1583
43.1549 13.9326
43.3468 13.7577
43.5389 13.5355
43.7312 13.3989
43.9237 13.2389
44.1162 13.008
44.3088 12.8346
44.5016 12.6695
44.6945 12.521
44.8875 12.3739
45.0806 12.1954
45.2739 12.0102
45.4673 11.8319
45.6609 11.6598
45.8546 11.5259
46.0484 11.2962
46.2424 11.1678
46.4365 11.0523
46.631 10.856
46.8254 10.688
47.0199 10.502
47.2146 10.3761
47.4095 10.1841
47.6044 10.0622
47.7996 9.91828
47.9948 9.74406
48.1902 9.61985
48.3858 9.50117
48.5815 9.36284
48.7774 9.21326
48.9734 9.07235
49.1696 8.94172
49.3661 8.7857
49.5626 8.64506
49.7592 8.51459
49.956 8.42513
50.153 8.28242
50.3501 8.15345
50.5474 8.0236
50.7448 7.93572
50.9424 7.80578
51.1402 7.68485
51.3381 7.56312
51.5362 7.43344
51.7344 7.30241
51.9328 7.20732
52.1316 7.04017
52.3304 6.92928
52.5293 6.86732
52.7284 6.70897
52.9276 6.64149
53.1271 6.51564
53.3267 6.37436
53.5265 6.2878
53.7264 6.14783
53.9266 6.0311
54.1269 5.95572
54.3274 5.88159
54.528 5.73064
54.7289 5.54315
54.9301 5.38479
55.1314 5.27142
55.3328 5.04582
55.5344 4.90405
55.7361 4.71549

File: Ni3Fe_FD0967.xy
TT I
1.27165 7.25651
1.45013 6.32586
1.62863 5.18253
1.80712 5.41865
1.98562 4.40116
2.16411 5.32809
2.34263 5.88848
2.52115 7.19975
2.69965 8.27659
2.87818 8.45913
3.05672 11.8338
3.23527 14.8453
3.4138 18.5559
3.59237 23.888
3.77094 25.7847
3.9495 29.3095
4.12809 34.5998
4.30669 197.077
4.4853 62.7574
4.6639 54.812
4.84253 66.3256
5.02118 84.8437
5.19981 280.622
5.37848 173.307
5.55716 99.3992
5.73586 90.6514
5.91455 90.8506
6.09328 4634.6
6.27201 81.3086
6.45075 66.5004
6.62952 61.8192
6.8083 57.9614
6.98711 54.8598
7.16591 54.2571
7.34475 86.5837
7.5236 53.8436
7.70247 55.0664
7.88135 56.9511
8.06026 61.1324
8.23919 68.42
8.41812 83.4108
8.59709 1154.16
8.77609 96.388
8.9551 89.5614
9.13412 81.0071
9.31318 81.1501
9.49226 82.8947
9.67134 96.2479
9.85047 97.8755
10.0296 302.365
10.2088 355.249
10.388 101.747
10.5672 527.167
10.7465 84.8275
10.9257 77.1825
11.105 70.9591
11.2844 68.7465
11.4637 63.7134
11.6431 62.3403
11.8225 61.4903
12.002 62.0404
12.1814 155.612
12.3609 68.971
12.5405 63.3786
12.72 68.3707
12.8996 69.6087
13.0792 76.8896
13.2589 235.252
13.4386 119.395
13.6183 248.942
13.7981 94.3576
13.9779 74.4052
14.1577 71.1826
14.3376 70.1627
14.5175 67.4453
14.6974 69.1153
14.8774 106.636
15.0574 145.212
15.2374 69.5331
15.4175 65.2775
15.5976 64.4887
15.7778 91.0448
15.958 149.157
16.1382 61.1373
16.3185 57.6312
16.4988 54.6203
16.6792 53.5935
16.8596 54.0903
17.04 54.654
17.2205 65.3682
17.401 69.0732
17.5815 57.9845
17.7622 60.1476
17.9428 70.9617
18.1237 137.055
18.3044 89.8953
18.4852 74.8544
18.666 59.3641
18.8469 57.0206
19.0278 55.7742
19.2088 58.1353
19.3898 75.1398
19.5709 53.261
19.752 52.2741
19.9332 54.8272
20.1144 68.6538
20.2957 63.6389
20.477 52.4595
20.6586 48.7698
20.84 47.9272
21.0215 47.572
21.203 50.0958
21.3846 47.9831
21.5662 47.9292
21.7479 51.4808
21.9297 63.3879
22.1115 55.1664
22.2933 48.8219
22.4753 48.0449
22.6572 47.8041
22.8393 50.9376
23.0214 56.0633
23.2037 47.9259
23.3859 48.62
23.5682 56.5708
23.7505 47.3861
23.9329 44.252
24.1154 43.2853
24.2979 42.5339
24.4805 42.2584
24.6631 42.0805
24.8458 41.5343
25.0286 42.0746
25.2114 43.7897
25.3943 43.8357
25.5773 40.1756
25.7605 39.7141
25.9436 40.0174
26.1268 41.057
26.31 39.1994
26.4933 40.0924
26.6767 41.5021
26.8601 39.7315
27.0437 38.1799
27.2272 37.7834
27.4109 37.6173
27.5946 37.6686
27.7784 37.0897
27.9623 37.7483
28.1462 38.1449
28.3304 36.3908
28.5145 35.3703
28.6987 34.957
28.8829 34.74
29.0673 34.101
29.2517 33.6813
29.4361 33.6154
29.6207 32.6807
29.8053 32.3567
29.99 31.837
30.1748 31.7663
30.3597 31.6776
30.5447 31.5791
30.7297 31.6251
30.915 31.1542
31.1002 30.6296
31.2855 30.3245
31.4708 30.2273
31.6563 29.84
31.8418 29.6333
32.0275 29.3879
32.2132 28.8981
32.399 28.4231
32.5848 27.9294
32.7708 27.678
32.9569 27.447
33.143 27.2963
33.3293 26.892
33.5158 26.5942
33.7022 26.0653
33.8887 25.8067
34.0753 25.5855
34.262 25.2263
34.4488 24.7985
34.6357 24.5568
34.8227 24.1676
35.0098 23.9873
35.1969 23.7695
35.3842 23.5577
35.5716 23.3626
35.759 23.1016
35.9468 22.7185
36.1345 22.4543
36.3222 22.2621
36.5101 22.0554
36.6981 21.7034
36.8861 21.4458
37.0743 21.0968
37.2626 20.8969
37.451 20.6868
37.6395 20.519
37.8281 20.118
38.0168 19.8422
38.2056 19.5878
38.3945 19.3035
38.5837 19.058
38.7728 18.8474
38.9621 18.6541
39.1514 18.3916
39.3409 18.1527
39.5304 17.9145
39.7201 17.7642
39.9099 17.5428
40.0999 17.2322
40.2899 17.0551
40.48 16.7826
40.6703 16.5907
40.8607 16.4526
41.0512 16.22
41.242 15.9387
41.4327 15.8042
41.6236 15.5054
41.8146 15.3739
42.0057 15.11
42.1969 14.9584
42.3882 14.7819
42.5797 14.5447
42.7713 14.3683
42.963 14.1307
43.1549 13.9805
43.3468 13.7499
43.5389 13.6396
43.7312 13.3888
43.9237 13.1854
44.1162 13.0107
44.3088 12.8571
44.5016 12.6579
44.6945 12.513
44.8875 12.3411
45.0806 12.1755
45.2739 11.9923
45.4673 11.7946
45.6609 11.6509
45.8546 11.474
46.0484 11.3516
46.2424 11.1849
46.4365 11.023
46.631 10.882
46.8254 10.6752
47.0199 10.5389
47.2146 10.3709
47.4095 10.2247
47.6044 10.078
47.7996 9.88333
47.9948 9.74342
48.1902 9.61467
48.3858 9.50138
48.5815 9.38642
48.7774 9.23694
48.9734 9.08529
49.1696 8.9566
49.3661 8.82234
49.5626 8.6953
49.7592 8.55454
49.956 8.40739
50.153 8.31019
50.3501 8.1615
50.5474 8.06847
50.7448 7.91791
50.9424 7.81675
51.1402 7.69587
51.3381 7.54495
51.5362 7.38782
51.7344 7.2962
51.9328 7.18698
52.1316 7.08413
52.3304 6.94812
52.5293 6.83824
52.7284 6.7339
52.9276 6.6315
53.1271 6.54142
53.3267 6.39151
53.5265 6.29154
53.7264 6.1907
53.9266 6.0584
54.1269 5.98216
54.3274 5.79762
54.528 5.72089
54.7289 5.61367
54.9301 5.38564
55.1314 5.29205
55.3328 5.05023
55.5344 4.90112
55.7361 4.74123

File: Ni3Fe_FD0968.xy
TT I
1.27165 6.76045
1.45013 5.54833
1.62863 4.92553
1.80712 4.69939
1.98562 5.05125
2.16411 5.3983
2.34263 5.83587
2.52115 7.26505
2.69965 8.43681
2.87818 8.53122
3.05672 11.0934
3.23527 15.0572
3.4138 19.0444
3.59237 23.9016
3.77094 25.6005
3.9495 29.7469
4.12809 34.3045
4.30669 201.363
4.4853 63.1206
4.6639 54.5537
4.84253 66.0857
5.02118 84.8099
5.19981 280.181
5.37848 173.317
5.55716 99.8901
5.73586 90.1313
5.91455 91.1961
6.09328 4613.47
6.27201 80.2053
6.45075 65.9736
6.62952 61.8029
6.8083 57.7229
6.98711 55.1634
7.16591 54.6274
7.34475 87.2972
7.5236 53.8928
7.70247 55.187
7.88135 56.9686
8.06026 61.3015
8.23919 68.2095
8.41812 83.1104
8.59709 1147.4
8.77609 96.332
8.9551 89.3761
9.13412 80.2855
9.31318 81.1119
9.49226 83.1236
9.67134 95.9878
9.85047 97.7168
10.0296 301.583
10.2088 356.402
10.388 102.165
10.5672 527.632
10.7465 84.7674
10.9257 76.9079
11.105 70.8113
11.2844 69.0257
11.4637 63.9051
11.6431 62.6018
11.8225 61.0786
12.002 62.4147
12.1814 154.99
12.3609 68.7309
12.5405 63.2523
12.72 68.4328
12.8996 69.6642
13.0792 77.1161
13.2589 234.631
13.4386 119.241
13.6183 248.654
13.7981 94.2786
13.9779 74.4452
14.1577 70.872
14.3376 70.048
14.5175 67.4968
14.6974 68.4874
14.8774 106.136
15.0574 145.426
15.2374 69.5034
15.4175 65.1695
15.5976 64.2868
15.7778 90.923
15.958 149.68
16.1382 61.3256
16.3185 57.5685
16.4988 54.1397
16.6792 53.299
16.8596 54.5359
17.04 54.6537
17.2205 65.2841
17.401 69.2223
17.5815 58.0146
17.7622 59.9201
17.9428 70.9779
18.1237 137.392
18.3044 90.0569
18.4852 75.159
18.666 59.2775
18.8469 56.9709
19.0278 55.9615
19.2088 58.0625
19.3898 74.9641
19.5709 53.2528
19.752 52.0751
19.9332 54.9217
20.1144 68.7534
20.2957 63.7885
20.477 52.5117
20.6586 48.7624
20.84 47.7772
21.0215 47.8118
21.203 49.991
21.3846 47.9929
21.5662 47.9524
21.7479 51.2516
21.9297 63.4484
22.1115 55.2968
22.2933 48.7854
22.4753 47.8349
22.6572 47.7888
22.8393 50.8524
23.0214 56.0193
23.2037 47.8384
23.3859 48.5264
23.5682 56.4947
23.7505 47.1766
23.9329 44.3825
24.1154 43.2057
24.2979 42.6338
24.4805 42.2179
24.6631 41.9264
24.8458 41.4286
25.0286 42.0055
25.2114 43.857
25.3943 43.7394
25.5773 40.1678
25.7605 39.5425
25.9436 40.1519
26.1268 40.9428
26.31 39.3716
26.4933 39.9132
26.6767 41.3684
26.8601 39.7563
27.0437 38.1817
27.2272 37.8196
27.4109 37.7926
27.5946 37.5746
27.7784 37.1228
27.9623 37.6352
28.1462 38.1685
28.3304 36.5181
28.5145 35.3386
28.6987 35.0262
28.8829 34.6853
29.0673 34.1644
29.2517 33.7076
29.4361 33.4595
29.6207 32.6096
29.8053 32.2304
29.99 31.9644
30.1748 31.9195
30.3597 31.6538
30.5447 31.5527
30.7297 31.581
30.915 31.1003
31.1002 30.5221
31.2855 30.24
31.4708 30.2716
31.6563 29.8364
31.8418 29.6191
32.0275 29.3817
32.2132 28.9437
32.399 28.4362
32.5848 27.9293
32.7708 27.6699
32.9569 27.4742
33.143 27.2578
33.3293 26.9443
33.5158 26.5298
33.7022 26.0847
33.8887 25.9063
34.0753 25.5294
34.262 25.1735
34.4488 24.7982
34.6357 24.5076
34.8227 24.2915
35.0098 24.012
35.1969 23.7444
35.3842 23.6008
35.5716 23.3667
35.759 23.0188
35.9468 22.7259
36.1345 22.4782
36.3222 22.2577
36.5101 21.9372
36.6981 21.7065
36.8861 21.3893
37.0743 21.1988
37.2626 20.9019
37.451 20.6576
37.6395 20.4642
37.8281 20.1147
38.0168 19.863
38.2056 19.6083
38.3945 19.3299
38.5837 19.1582
38.7728 18.8789
38.9621 18.5956
39.1514 18.415
39.3409 18.1183
39.5304 17.886
39.7201 17.7613
39.9099 17.5005
40.0999 17.2937
40.2899 17.0871
40.48 16.7711
40.6703 16.6174
40.8607 16.4227
41.0512 16.274
41.242 15.9985
41.4327 15.732
41.6236 15.5348
41.8146 15.4201
42.0057 15.1515
42.1969 15.0009
42.3882 14.8029
42.5797 14.5894
42.7713 14.4739
42.963 14.171
43.1549 14.0148
43.3468 13.7517
43.5389 13.585
43.7312 13.4222
43.9237 13.2147
44.1162 13.034
44.3088 12.8529
44.5016 12.666
44.6945 12.4957
44.8875 12.3502
45.0806 12.1617
45.2739 11.9637
45.4673 11.8422
45.6609 11.6614
45.8546 11.4606
46.0484 11.3269
46.2424 11.1466
46.4365 11.0216
46.631 10.8209
46.8254 10.6292
47.0199 10.5046
47.2146 10.3384
47.4095 10.209
47.6044 10.0533
47.7996 9.92504
47.9948 9.75879
48.1902 9.68305
48.3858 9.53897
48.5815 9.37595
48.7774 9.2519
48.9734 9.12453
49.1696 8.97254
49.3661 8.77544
49.5626 8.64535
49.7592 8.55465
49.956 8.41474
50.153 8.28886
50.3501 8.12723
50.5474 8.04292
50.7448 7.92821
50.9424 7.80073
51.1402 7.6635
51.3381 7.54186
51.5362 7.42837
51.7344 7.284
51.9328 7.16089
52.1316 7.05804
52.3304 6.96595
52.5293 6.82775
52.7284 6.71594
52.9276 6.59154
53.1271 6.50269
53.3267 6.38721
53.5265 6.30386
53.7264 6.16371
53.9266 6.09395
54.1269 5.91763
54.3274 5.87127
54.528 5.73198
54.7289 5.54779
54.9301 5.41175
55.1314 5.264
55.3328 5.05901
55.5344 4.86939
55.7361 4.68667