Folder: NiFe_MOF_catalyst_paper/XRD (part 51)

File: Ni3Fe_FD0263.xy
TT I
1.27165 7.73614
1.45013 6.31463
1.62863 5.49541
1.80712 4.85444
1.98562 4.72593
2.16411 4.69921
2.34263 4.70005
2.52115 5.34371
2.69965 6.01202
2.87818 8.57942
3.05672 11.5025
3.23527 15.4089
3.4138 19.0708
3.59237 23.8049
3.77094 26.5819
3.9495 30.8368
4.12809 35.8173
4.30669 152.767
4.4853 60.5767
4.6639 57.9341
4.84253 70.9877
5.02118 93.73
5.19981 554.045
5.37848 272.405
5.55716 110.345
5.73586 98.8565
5.91455 104.79
6.09328 3707.91
6.27201 90.18
6.45075 71.0616
6.62952 65.0914
6.8083 61.0264
6.98711 58.0592
7.16591 57.0791
7.34475 80.7256
7.5236 56.2189
7.70247 58.3536
7.88135 60.1474
8.06026 64.9648
8.23919 72.8007
8.41812 89.4632
8.59709 1110.73
8.77609 110.612
8.9551 94.0834
9.13412 86.0634
9.31318 87.087
9.49226 88.8657
9.67134 99.9641
9.85047 105.077
10.0296 453.578
10.2088 597.575
10.388 110.994
10.5672 448.218
10.7465 91.6769
10.9257 81.4254
11.105 74.7674
11.2844 72.2977
11.4637 67.5671
11.6431 66.1031
11.8225 65.2121
12.002 66.6791
12.1814 143.832
12.3609 74.0659
12.5405 67.4635
12.72 71.8484
12.8996 74.2125
13.0792 83.1996
13.2589 232.179
13.4386 152.348
13.6183 231.108
13.7981 114.869
13.9779 79.5539
14.1577 75.6951
14.3376 74.1027
14.5175 72.2343
14.6974 73.5737
14.8774 117.893
15.0574 176.342
15.2374 73.41
15.4175 69.3919
15.5976 68.8978
15.7778 102.551
15.958 174.847
16.1382 65.0944
16.3185 61.0393
16.4988 58.0869
16.6792 56.948
16.8596 57.4063
17.04 58.321
17.2205 68.7335
17.401 77.9029
17.5815 61.8492
17.7622 63.9397
17.9428 80.7047
18.1237 135.471
18.3044 91.3484
18.4852 84.99
18.666 63.1458
18.8469 60.7159
19.0278 59.304
19.2088 62.872
19.3898 76.7024
19.5709 57.1226
19.752 55.83
19.9332 59.3092
20.1144 71.3687
20.2957 64.6942
20.477 57.3896
20.6586 51.8254
20.84 50.941
21.0215 50.895
21.203 52.5014
21.3846 51.5389
21.5662 51.0054
21.7479 55.1535
21.9297 66.1116
22.1115 57.678
22.2933 52.5196
22.4753 50.9286
22.6572 51.1068
22.8393 53.7023
23.0214 59.7077
23.2037 51.072
23.3859 52.3353
23.5682 57.6275
23.7505 51.4409
23.9329 47.251
24.1154 46.0447
24.2979 45.2406
24.4805 44.7017
24.6631 44.6058
24.8458 43.9761
25.0286 44.7179
25.2114 46.2897
25.3943 46.3525
25.5773 42.7703
25.7605 42.2287
25.9436 42.5208
26.1268 43.5006
26.31 42.0074
26.4933 42.4308
26.6767 43.7226
26.8601 42.1334
27.0437 40.6062
27.2272 40.1296
27.4109 40.0699
27.5946 40.0672
27.7784 39.63
27.9623 39.7704
28.1462 40.4732
28.3304 39.0053
28.5145 37.4135
28.6987 37.0849
28.8829 36.6717
29.0673 36.2502
29.2517 35.7402
29.4361 35.5463
29.6207 34.5712
29.8053 34.2996
29.99 33.8847
30.1748 33.765
30.3597 33.63
30.5447 33.5955
30.7297 33.4591
30.915 32.9442
31.1002 32.4261
31.2855 32.1668
31.4708 32.1549
31.6563 31.7723
31.8418 31.4573
32.0275 31.2596
32.2132 30.709
32.399 30.2432
32.5848 29.6754
32.7708 29.4572
32.9569 29.1762
33.143 28.8988
33.3293 28.5684
33.5158 28.212
33.7022 27.7554
33.8887 27.4939
34.0753 27.0871
34.262 26.7888
34.4488 26.3707
34.6357 26.0936
34.8227 25.7259
35.0098 25.5357
35.1969 25.2391
35.3842 25.0317
35.5716 24.7238
35.759 24.4766
35.9468 24.0541
36.1345 23.9107
36.3222 23.6797
36.5101 23.4069
36.6981 23.108
36.8861 22.7059
37.0743 22.4491
37.2626 22.1221
37.451 21.8749
37.6395 21.7609
37.8281 21.3446
38.0168 21.1062
38.2056 20.8257
38.3945 20.5041
38.5837 20.2632
38.7728 20.059
38.9621 19.8542
39.1514 19.4802
39.3409 19.3106
39.5304 19.0364
39.7201 18.8413
39.9099 18.6089
40.0999 18.3726
40.2899 18.0829
40.48 17.8719
40.6703 17.6726
40.8607 17.4502
41.0512 17.253
41.242 16.9733
41.4327 16.7979
41.6236 16.5075
41.8146 16.3314
42.0057 16.0982
42.1969 15.8301
42.3882 15.6723
42.5797 15.4503
42.7713 15.2986
42.963 15.018
43.1549 14.8719
43.3468 14.6275
43.5389 14.4251
43.7312 14.2258
43.9237 14.0387
44.1162 13.8126
44.3088 13.6364
44.5016 13.4645
44.6945 13.3163
44.8875 13.0514
45.0806 12.9292
45.2739 12.7632
45.4673 12.5945
45.6609 12.3837
45.8546 12.1805
46.0484 12.0193
46.2424 11.8279
46.4365 11.6852
46.631 11.4717
46.8254 11.2889
47.0199 11.1408
47.2146 10.9683
47.4095 10.7989
47.6044 10.6508
47.7996 10.5679
47.9948 10.3843
48.1902 10.2281
48.3858 10.0469
48.5815 9.96599
48.7774 9.79384
48.9734 9.61035
49.1696 9.47259
49.3661 9.34563
49.5626 9.16361
49.7592 9.07983
49.956 8.95462
50.153 8.77229
50.3501 8.62732
50.5474 8.51783
50.7448 8.35372
50.9424 8.23537
51.1402 8.16674
51.3381 7.96461
51.5362 7.8857
51.7344 7.77356
51.9328 7.60497
52.1316 7.43877
52.3304 7.34104
52.5293 7.24122
52.7284 7.12397
52.9276 7.04987
53.1271 6.88593
53.3267 6.78353
53.5265 6.59669
53.7264 6.54823
53.9266 6.43398
54.1269 6.31882
54.3274 6.18451
54.528 5.95063
54.7289 5.8691
54.9301 5.6645
55.1314 5.52735
55.3328 5.27151
55.5344 5.10182
55.7361 5.00633

File: Ni3Fe_FD0264.xy
TT I
1.27165 7.74943
1.45013 6.43015
1.62863 5.44608
1.80712 4.9068
1.98562 4.90191
2.16411 4.90583
2.34263 5.10616
2.52115 5.89189
2.69965 6.2945
2.87818 8.50282
3.05672 11.1558
3.23527 14.9215
3.4138 19.3386
3.59237 23.8204
3.77094 26.2298
3.9495 30.3147
4.12809 35.7263
4.30669 158.336
4.4853 60.8401
4.6639 57.7017
4.84253 70.4357
5.02118 93.1082
5.19981 549.615
5.37848 271.903
5.55716 110.09
5.73586 98.5842
5.91455 104.715
6.09328 3693.23
6.27201 90.0116
6.45075 71.0148
6.62952 64.9736
6.8083 60.8108
6.98711 57.9287
7.16591 57.3495
7.34475 82.18
7.5236 56.7416
7.70247 58.2062
7.88135 60.1669
8.06026 65.3437
8.23919 72.4188
8.41812 89.8089
8.59709 1106.62
8.77609 110.255
8.9551 94.4351
9.13412 86.2837
9.31318 87.2948
9.49226 88.5802
9.67134 100.207
9.85047 105.295
10.0296 448.892
10.2088 600.87
10.388 110.809
10.5672 451.4
10.7465 91.8438
10.9257 81.433
11.105 74.6469
11.2844 72.7188
11.4637 67.6468
11.6431 66.2304
11.8225 65.1593
12.002 66.7757
12.1814 143.912
12.3609 74.0791
12.5405 67.4891
12.72 72.1104
12.8996 74.3167
13.0792 83.1283
13.2589 231.363
13.4386 151.129
13.6183 231.386
13.7981 115.403
13.9779 79.3951
14.1577 75.5016
14.3376 74.0377
14.5175 71.8709
14.6974 73.6253
14.8774 117.618
15.0574 177.413
15.2374 73.4896
15.4175 69.5387
15.5976 68.997
15.7778 102.185
15.958 175.908
16.1382 65.2827
16.3185 60.8649
16.4988 57.9427
16.6792 56.8291
16.8596 57.3563
17.04 58.2034
17.2205 68.5224
17.401 77.6056
17.5815 61.7927
17.7622 63.8736
17.9428 80.4924
18.1237 135.596
18.3044 91.2514
18.4852 85.0639
18.666 63.1623
18.8469 60.6853
19.0278 59.482
19.2088 62.7217
19.3898 76.7428
19.5709 56.9057
19.752 55.5033
19.9332 59.2898
20.1144 71.5291
20.2957 64.8288
20.477 57.3353
20.6586 51.978
20.84 50.9616
21.0215 50.7071
21.203 52.5984
21.3846 51.5132
21.5662 51.1348
21.7479 55.1654
21.9297 66.2001
22.1115 57.8229
22.2933 52.6492
22.4753 51.1172
22.6572 51.2684
22.8393 53.7859
23.0214 59.6508
23.2037 51.1578
23.3859 52.2427
23.5682 57.555
23.7505 51.5692
23.9329 47.2658
24.1154 46.1717
24.2979 45.3808
24.4805 44.7585
24.6631 44.7807
24.8458 44.1487
25.0286 44.6802
25.2114 46.2967
25.3943 46.4811
25.5773 42.8112
25.7605 42.2289
25.9436 42.5064
26.1268 43.3195
26.31 42.0547
26.4933 42.52
26.6767 43.8144
26.8601 42.2391
27.0437 40.7176
27.2272 40.3245
27.4109 39.9522
27.5946 40.102
27.7784 39.4902
27.9623 39.907
28.1462 40.4542
28.3304 38.7946
28.5145 37.6036
28.6987 37.1721
28.8829 36.824
29.0673 36.22
29.2517 35.7389
29.4361 35.5538
29.6207 34.6125
29.8053 34.4072
29.99 34.039
30.1748 33.7761
30.3597 33.7055
30.5447 33.5973
30.7297 33.4604
30.915 33.1786
31.1002 32.4848
31.2855 32.1772
31.4708 32.0887
31.6563 31.7635
31.8418 31.4812
32.0275 31.2648
32.2132 30.7114
32.399 30.2607
32.5848 29.7441
32.7708 29.4041
32.9569 29.2208
33.143 28.971
33.3293 28.7014
33.5158 28.1947
33.7022 27.6867
33.8887 27.5648
34.0753 27.1447
34.262 26.8148
34.4488 26.501
34.6357 26.0594
34.8227 25.7891
35.0098 25.6117
35.1969 25.2928
35.3842 24.9897
35.5716 24.7876
35.759 24.4505
35.9468 24.0968
36.1345 23.9292
36.3222 23.6016
36.5101 23.4366
36.6981 23.0462
36.8861 22.7856
37.0743 22.4267
37.2626 22.2189
37.451 21.9573
37.6395 21.7246
37.8281 21.3772
38.0168 21.1052
38.2056 20.7395
38.3945 20.5915
38.5837 20.2914
38.7728 19.9915
38.9621 19.8262
39.1514 19.5422
39.3409 19.3017
39.5304 19.0446
39.7201 18.8486
39.9099 18.6055
40.0999 18.3786
40.2899 18.1352
40.48 17.8352
40.6703 17.6492
40.8607 17.4587
41.0512 17.254
41.242 16.9777
41.4327 16.7426
41.6236 16.5085
41.8146 16.3524
42.0057 16.0675
42.1969 15.8859
42.3882 15.7283
42.5797 15.4881
42.7713 15.2745
42.963 15.0429
43.1549 14.846
43.3468 14.601
43.5389 14.4539
43.7312 14.2005
43.9237 14.0146
44.1162 13.8269
44.3088 13.6492
44.5016 13.4888
44.6945 13.257
44.8875 13.0832
45.0806 12.8794
45.2739 12.7449
45.4673 12.5589
45.6609 12.3689
45.8546 12.193
46.0484 12.0121
46.2424 11.8034
46.4365 11.6463
46.631 11.4912
46.8254 11.3209
47.0199 11.1647
47.2146 10.9818
47.4095 10.83
47.6044 10.6642
47.7996 10.5137
47.9948 10.3565
48.1902 10.2237
48.3858 10.074
48.5815 9.92311
48.7774 9.77539
48.9734 9.64357
49.1696 9.50942
49.3661 9.34816
49.5626 9.14739
49.7592 9.0662
49.956 8.90723
50.153 8.77337
50.3501 8.63766
50.5474 8.52029
50.7448 8.40213
50.9424 8.26131
51.1402 8.14597
51.3381 7.99121
51.5362 7.91351
51.7344 7.71881
51.9328 7.60677
52.1316 7.51051
52.3304 7.39069
52.5293 7.20752
52.7284 7.14914
52.9276 7.03229
53.1271 6.88153
53.3267 6.79373
53.5265 6.64421
53.7264 6.55388
53.9266 6.4067
54.1269 6.32444
54.3274 6.21364
54.528 6.01784
54.7289 5.8433
54.9301 5.69379
55.1314 5.54548
55.3328 5.30794
55.5344 5.18922
55.7361 5.02115

File: Ni3Fe_FD0265.xy
TT I
1.27165 7.65418
1.45013 6.8489
1.62863 5.5636
1.80712 5.45804
1.98562 5.60394
2.16411 5.13609
2.34263 4.61523
2.52115 4.71274
2.69965 6.56585
2.87818 8.13918
3.05672 10.7018
3.23527 15.4074
3.4138 19.4717
3.59237 23.7956
3.77094 26.7688
3.9495 30.2035
4.12809 35.5002
4.30669 164.854
4.4853 61.3616
4.6639 57.5376
4.84253 70.4272
5.02118 93.2435
5.19981 545.83
5.37848 269.891
5.55716 109.597
5.73586 98.9204
5.91455 104.172
6.09328 3695.26
6.27201 89.8837
6.45075 70.7736
6.62952 65.201
6.8083 60.8869
6.98711 58.0619
7.16591 57.6224
7.34475 84.0112
7.5236 56.3697
7.70247 58.3022
7.88135 60.1116
8.06026 64.8223
8.23919 72.4803
8.41812 89.3576
8.59709 1097.29
8.77609 110.493
8.9551 94.5198
9.13412 85.7607
9.31318 86.8936
9.49226 88.5996
9.67134 100.134
9.85047 105.457
10.0296 445.507
10.2088 607.922
10.388 110.849
10.5672 451.879
10.7465 92.2922
10.9257 81.5399
11.105 74.7304
11.2844 72.6173
11.4637 67.716
11.6431 66.225
11.8225 65.2061
12.002 66.7194
12.1814 143.788
12.3609 74.3614
12.5405 67.5925
12.72 71.7906
12.8996 74.0927
13.0792 82.7732
13.2589 230.115
13.4386 152.518
13.6183 230.834
13.7981 115.487
13.9779 79.454
14.1577 75.5463
14.3376 74.078
14.5175 72.0602
14.6974 73.6432
14.8774 117.028
15.0574 177.744
15.2374 73.6578
15.4175 69.4308
15.5976 68.8512
15.7778 101.898
15.958 176.034
16.1382 65.0595
16.3185 60.7357
16.4988 57.852
16.6792 56.8856
16.8596 57.4712
17.04 58.2204
17.2205 68.7961
17.401 77.823
17.5815 61.7052
17.7622 64.0774
17.9428 80.443
18.1237 135.675
18.3044 91.3324
18.4852 85.523
18.666 63.2497
18.8469 60.7501
19.0278 59.4251
19.2088 62.5877
19.3898 76.9003
19.5709 56.9646
19.752 55.6998
19.9332 59.2508
20.1144 71.8339
20.2957 64.7031
20.477 57.2819
20.6586 52.0645
20.84 51.0596
21.0215 51.0038
21.203 52.44
21.3846 51.5028
21.5662 51.0975
21.7479 55.1449
21.9297 66.13
22.1115 58.0004
22.2933 52.6182
22.4753 51.0503
22.6572 51.2087
22.8393 53.7958
23.0214 59.7695
23.2037 51.0003
23.3859 52.4566
23.5682 57.7254
23.7505 51.4741
23.9329 47.3117
24.1154 46.1082
24.2979 45.3443
24.4805 44.8395
24.6631 44.6828
24.8458 44.1419
25.0286 44.7037
25.2114 46.3151
25.3943 46.4721
25.5773 42.7712
25.7605 42.3208
25.9436 42.6568
26.1268 43.3485
26.31 42.0324
26.4933 42.3975
26.6767 43.7595
26.8601 42.1979
27.0437 40.6823
27.2272 40.2771
27.4109 40.0053
27.5946 40.1058
27.7784 39.5014
27.9623 39.8793
28.1462 40.5601
28.3304 38.9899
28.5145 37.4757
28.6987 37.1378
28.8829 36.9799
29.0673 36.3085
29.2517 35.7629
29.4361 35.6354
29.6207 34.6705
29.8053 34.2568
29.99 34.0719
30.1748 33.8281
30.3597 33.7468
30.5447 33.6014
30.7297 33.4605
30.915 33.0457
31.1002 32.5886
31.2855 32.211
31.4708 32.0761
31.6563 31.7775
31.8418 31.4139
32.0275 31.2802
32.2132 30.6255
32.399 30.152
32.5848 29.6753
32.7708 29.3798
32.9569 29.2395
33.143 28.9026
33.3293 28.5632
33.5158 28.2068
33.7022 27.7545
33.8887 27.4376
34.0753 27.1104
34.262 26.7979
34.4488 26.4455
34.6357 26.061
34.8227 25.7856
35.0098 25.5005
35.1969 25.2727
35.3842 24.9492
35.5716 24.8217
35.759 24.4684
35.9468 24.0912
36.1345 23.8708
36.3222 23.6133
36.5101 23.368
36.6981 23.0618
36.8861 22.8048
37.0743 22.4244
37.2626 22.2221
37.451 21.9123
37.6395 21.7216
37.8281 21.4041
38.0168 21.0947
38.2056 20.7851
38.3945 20.5327
38.5837 20.2991
38.7728 20.0615
38.9621 19.9024
39.1514 19.5527
39.3409 19.2682
39.5304 19.0597
39.7201 18.8268
39.9099 18.5593
40.0999 18.3569
40.2899 18.092
40.48 17.8394
40.6703 17.72
40.8607 17.4155
41.0512 17.2249
41.242 16.967
41.4327 16.7312
41.6236 16.5159
41.8146 16.3287
42.0057 16.1339
42.1969 15.8637
42.3882 15.6728
42.5797 15.4197
42.7713 15.2589
42.963 15.0352
43.1549 14.884
43.3468 14.6438
43.5389 14.4462
43.7312 14.1836
43.9237 14.0173
44.1162 13.812
44.3088 13.6223
44.5016 13.4399
44.6945 13.334
44.8875 13.1006
45.0806 12.9041
45.2739 12.6798
45.4673 12.5572
45.6609 12.3138
45.8546 12.1955
46.0484 12.0406
46.2424 11.878
46.4365 11.6722
46.631 11.4706
46.8254 11.3198
47.0199 11.1611
47.2146 10.9931
47.4095 10.8362
47.6044 10.6322
47.7996 10.5416
47.9948 10.3801
48.1902 10.2075
48.3858 10.0335
48.5815 9.8752
48.7774 9.77301
48.9734 9.61432
49.1696 9.4872
49.3661 9.36189
49.5626 9.19922
49.7592 9.06542
49.956 8.89194
50.153 8.81452
50.3501 8.64904
50.5474 8.54039
50.7448 8.3916
50.9424 8.30035
51.1402 8.14481
51.3381 7.97018
51.5362 7.86377
51.7344 7.75976
51.9328 7.57539
52.1316 7.44564
52.3304 7.35184
52.5293 7.20401
52.7284 7.11217
52.9276 6.98813
53.1271 6.8741
53.3267 6.74641
53.5265 6.58833
53.7264 6.51864
53.9266 6.43376
54.1269 6.31539
54.3274 6.20089
54.528 5.99869
54.7289 5.89138
54.9301 5.67395
55.1314 5.53127
55.3328 5.32389
55.5344 5.08755
55.7361 4.98203

File: Ni3Fe_FD0266.xy
TT I
1.27165 7.72227
1.45013 6.4495
1.62863 5.04621
1.80712 5.33971
1.98562 4.64746
2.16411 4.63394
2.34263 5.10717
2.52115 6.00185
2.69965 6.28936
2.87818 8.43614
3.05672 11.3181
3.23527 14.8833
3.4138 19.2101
3.59237 24.3003
3.77094 26.6253
3.9495 30.4129
4.12809 35.462
4.30669 169.489
4.4853 62.3869
4.6639 57.8141
4.84253 70.4318
5.02118 93.6228
5.19981 549.611
5.37848 267.466
5.55716 109.964
5.73586 98.9813
5.91455 104.668
6.09328 3713.65
6.27201 90.0386
6.45075 71.1965
6.62952 65.4913
6.8083 61.1343
6.98711 58.0957
7.16591 57.8596
7.34475 84.4464
7.5236 56.7187
7.70247 58.6978
7.88135 59.7146
8.06026 64.9916
8.23919 72.8755
8.41812 89.9679
8.59709 1102.41
8.77609 110.14
8.9551 94.6637
9.13412 86.0492
9.31318 87.3987
9.49226 88.7657
9.67134 100.904
9.85047 105.592
10.0296 442.509
10.2088 604.097
10.388 111.415
10.5672 456.024
10.7465 91.8123
10.9257 81.7014
11.105 75.1325
11.2844 72.9134
11.4637 67.6408
11.6431 66.4967
11.8225 65.2335
12.002 66.9134
12.1814 144.563
12.3609 74.4609
12.5405 67.594
12.72 72.1838
12.8996 74.1143
13.0792 82.8436
13.2589 230.241
13.4386 150.734
13.6183 230.597
13.7981 114.582
13.9779 79.7226
14.1577 75.4606
14.3376 74.4165
14.5175 72.1462
14.6974 73.7796
14.8774 116.951
15.0574 176.669
15.2374 73.94
15.4175 69.5402
15.5976 68.7884
15.7778 101.511
15.958 175.313
16.1382 65.2529
16.3185 61.0133
16.4988 57.9108
16.6792 56.9421
16.8596 57.5917
17.04 58.5063
17.2205 68.6491
17.401 77.5986
17.5815 61.9383
17.7622 64.0577
17.9428 80.5083
18.1237 135.809
18.3044 91.1584
18.4852 85.5275
18.666 63.0661
18.8469 60.8521
19.0278 59.5502
19.2088 62.8053
19.3898 76.9338
19.5709 57.0214
19.752 55.665
19.9332 59.406
20.1144 71.9403
20.2957 64.7964
20.477 57.1547
20.6586 51.9456
20.84 51.0327
21.0215 50.9242
21.203 52.5102
21.3846 51.6103
21.5662 51.1052
21.7479 55.0939
21.9297 66.1563
22.1115 57.9131
22.2933 52.5105
22.4753 51.0363
22.6572 51.0354
22.8393 53.6913
23.0214 59.7753
23.2037 51.1357
23.3859 52.1995
23.5682 57.5519
23.7505 51.4569
23.9329 47.2748
24.1154 46.2136
24.2979 45.348
24.4805 44.7629
24.6631 44.6595
24.8458 43.9951
25.0286 44.7008
25.2114 46.4552
25.3943 46.3031
25.5773 42.8391
25.7605 42.154
25.9436 42.4754
26.1268 43.3668
26.31 41.9728
26.4933 42.4516
26.6767 43.6271
26.8601 42.1631
27.0437 40.672
27.2272 40.2985
27.4109 40.1427
27.5946 40.0357
27.7784 39.5738
27.9623 39.9194
28.1462 40.5213
28.3304 38.8399
28.5145 37.4868
28.6987 37.2351
28.8829 36.8856
29.0673 36.2669
29.2517 35.8738
29.4361 35.4921
29.6207 34.6315
29.8053 34.3092
29.99 34.0236
30.1748 33.8233
30.3597 33.7074
30.5447 33.5009
30.7297 33.5915
30.915 33.0104
31.1002 32.5035
31.2855 32.2351
31.4708 31.9834
31.6563 31.6671
31.8418 31.4923
32.0275 31.1638
32.2132 30.707
32.399 30.2392
32.5848 29.7737
32.7708 29.3293
32.9569 29.1509
33.143 28.9807
33.3293 28.6462
33.5158 28.2994
33.7022 27.7007
33.8887 27.5118
34.0753 27.1314
34.262 26.7463
34.4488 26.5183
34.6357 26.0489
34.8227 25.8095
35.0098 25.5423
35.1969 25.1697
35.3842 24.8912
35.5716 24.7118
35.759 24.4106
35.9468 24.0044
36.1345 23.884
36.3222 23.6035
36.5101 23.4472
36.6981 23.0843
36.8861 22.7712
37.0743 22.381
37.2626 22.2215
37.451 21.8947
37.6395 21.721
37.8281 21.3948
38.0168 21.0951
38.2056 20.7697
38.3945 20.4975
38.5837 20.2723
38.7728 20.0182
38.9621 19.8675
39.1514 19.5205
39.3409 19.2854
39.5304 19.0618
39.7201 18.9
39.9099 18.4996
40.0999 18.4392
40.2899 18.1184
40.48 17.8283
40.6703 17.7064
40.8607 17.3897
41.0512 17.2186
41.242 16.9736
41.4327 16.7779
41.6236 16.5676
41.8146 16.333
42.0057 16.0604
42.1969 15.9222
42.3882 15.7035
42.5797 15.4355
42.7713 15.2458
42.963 15.0428
43.1549 14.804
43.3468 14.6008
43.5389 14.4401
43.7312 14.2226
43.9237 14.0231
44.1162 13.84
44.3088 13.6365
44.5016 13.4556
44.6945 13.2702
44.8875 13.0997
45.0806 12.8889
45.2739 12.7493
45.4673 12.5175
45.6609 12.3382
45.8546 12.2103
46.0484 12.0067
46.2424 11.7811
46.4365 11.6816
46.631 11.5042
46.8254 11.3055
47.0199 11.1446
47.2146 11.0481
47.4095 10.7845
47.6044 10.6753
47.7996 10.4972
47.9948 10.339
48.1902 10.197
48.3858 10.0465
48.5815 9.93641
48.7774 9.77698
48.9734 9.6411
49.1696 9.47226
49.3661 9.35247
49.5626 9.16845
49.7592 9.05581
49.956 8.8864
50.153 8.77611
50.3501 8.62521
50.5474 8.52116
50.7448 8.38002
50.9424 8.25018
51.1402 8.14574
51.3381 7.99289
51.5362 7.86513
51.7344 7.70087
51.9328 7.60709
52.1316 7.43759
52.3304 7.33684
52.5293 7.23
52.7284 7.10461
52.9276 6.98017
53.1271 6.85534
53.3267 6.71558
53.5265 6.65506
53.7264 6.47642
53.9266 6.36897
54.1269 6.30823
54.3274 6.18186
54.528 5.96993
54.7289 5.84307
54.9301 5.67198
55.1314 5.552
55.3328 5.3265
55.5344 5.13297
55.7361 5.02551

File: Ni3Fe_FD0267.xy
TT I
1.27165 7.68115
1.45013 6.67115
1.62863 5.7126
1.80712 4.77954
1.98562 5.07528
2.16411 4.56009
2.34263 5.30288
2.52115 5.29384
2.69965 6.8999
2.87818 8.08002
3.05672 11.1533
3.23527 15.3243
3.4138 18.7907
3.59237 24.3417
3.77094 26.738
3.9495 30.1249
4.12809 35.8111
4.30669 174.902
4.4853 62.7849
4.6639 57.4253
4.84253 70.6654
5.02118 93.7539
5.19981 546.261
5.37848 266.689
5.55716 109.978
5.73586 98.4301
5.91455 104.027
6.09328 3718.29
6.27201 90.0615
6.45075 71.0668
6.62952 65.8683
6.8083 61.2054
6.98711 57.8308
7.16591 57.5968
7.34475 85.2886
7.5236 56.8875
7.70247 58.4806
7.88135 59.9496
8.06026 65.0749
8.23919 72.6086
8.41812 90.1614
8.59709 1097.45
8.77609 110.281
8.9551 95.1105
9.13412 86.1387
9.31318 87.3909
9.49226 88.5603
9.67134 101.175
9.85047 105.353
10.0296 439.38
10.2088 598.564
10.388 111.176
10.5672 461.072
10.7465 91.7219
10.9257 81.6477
11.105 75.0779
11.2844 72.6397
11.4637 67.7416
11.6431 66.4276
11.8225 65.1633
12.002 66.8577
12.1814 144.146
12.3609 74.6959
12.5405 67.5177
12.72 72.3373
12.8996 74.2583
13.0792 82.9692
13.2589 229.53
13.4386 151.84
13.6183 229.95
13.7981 113.504
13.9779 79.4204
14.1577 75.5301
14.3376 74.41
14.5175 71.9118
14.6974 73.6286
14.8774 116.416
15.0574 176.529
15.2374 73.8539
15.4175 69.3524
15.5976 68.8188
15.7778 100.772
15.958 174.356
16.1382 65.2463
16.3185 60.914
16.4988 58.0317
16.6792 56.7237
16.8596 57.6202
17.04 58.3999
17.2205 68.7166
17.401 77.4667
17.5815 61.8817
17.7622 64.0042
17.9428 80.0551
18.1237 136.12
18.3044 91.0505
18.4852 85.8563
18.666 63.2515
18.8469 60.5812
19.0278 59.4848
19.2088 62.5951
19.3898 77.0797
19.5709 57.0531
19.752 55.5922
19.9332 59.2369
20.1144 71.8057
20.2957 64.7491
20.477 57.3236
20.6586 51.8132
20.84 50.9199
21.0215 50.9304
21.203 52.5229
21.3846 51.5558
21.5662 51.0104
21.7479 54.9941
21.9297 66.2982
22.1115 57.8182
22.2933 52.7833
22.4753 50.9984
22.6572 51.1033
22.8393 53.9838
23.0214 59.5786
23.2037 51.1697
23.3859 52.4638
23.5682 57.6234
23.7505 51.5211
23.9329 47.1287
24.1154 46.0464
24.2979 45.3345
24.4805 44.7976
24.6631 44.7374
24.8458 44.026
25.0286 44.6076
25.2114 46.2699
25.3943 46.3839
25.5773 42.7616
25.7605 42.2895
25.9436 42.4619
26.1268 43.4075
26.31 41.9503
26.4933 42.3538
26.6767 43.7888
26.8601 42.2608
27.0437 40.5999
27.2272 40.1844
27.4109 40.0707
27.5946 40.0472
27.7784 39.5689
27.9623 39.8086
28.1462 40.4293
28.3304 38.9275
28.5145 37.4454
28.6987 37.209
28.8829 36.8141
29.0673 36.2589
29.2517 35.6307
29.4361 35.5111
29.6207 34.5955
29.8053 34.3505
29.99 34.0048
30.1748 33.7637
30.3597 33.7127
30.5447 33.5442
30.7297 33.4836
30.915 33.0083
31.1002 32.4598
31.2855 32.1759
31.4708 31.9969
31.6563 31.6785
31.8418 31.3817
32.0275 31.2627
32.2132 30.5875
32.399 30.152
32.5848 29.6941
32.7708 29.371
32.9569 29.2336
33.143 28.9501
33.3293 28.5269
33.5158 28.2193
33.7022 27.6604
33.8887 27.4402
34.0753 27.0842
34.262 26.7598
34.4488 26.3851
34.6357 26.0456
34.8227 25.7525
35.0098 25.5741
35.1969 25.2734
35.3842 25.0516
35.5716 24.7082
35.759 24.4859
35.9468 24.0733
36.1345 23.8376
36.3222 23.6968
36.5101 23.349
36.6981 23.0872
36.8861 22.8036
37.0743 22.4389
37.2626 22.1774
37.451 21.9137
37.6395 21.7326
37.8281 21.4373
38.0168 21.0637
38.2056 20.8257
38.3945 20.5143
38.5837 20.2305
38.7728 20.0208
38.9621 19.7182
39.1514 19.5181
39.3409 19.2874
39.5304 19.0997
39.7201 18.8509
39.9099 18.6197
40.0999 18.3457
40.2899 18.0905
40.48 17.7886
40.6703 17.6316
40.8607 17.4493
41.0512 17.2256
41.242 16.9704
41.4327 16.711
41.6236 16.5291
41.8146 16.3539
42.0057 16.1199
42.1969 15.8641
42.3882 15.6722
42.5797 15.5019
42.7713 15.2559
42.963 15.0797
43.1549 14.8057
43.3468 14.6078
43.5389 14.3813
43.7312 14.2083
43.9237 13.9909
44.1162 13.8408
44.3088 13.6363
44.5016 13.4216
44.6945 13.2973
44.8875 13.095
45.0806 12.8654
45.2739 12.7107
45.4673 12.5398
45.6609 12.3588
45.8546 12.2262
46.0484 12.0376
46.2424 11.8546
46.4365 11.6684
46.631 11.4648
46.8254 11.3211
47.0199 11.1487
47.2146 11.0243
47.4095 10.8013
47.6044 10.6748
47.7996 10.5032
47.9948 10.3179
48.1902 10.2111
48.3858 10.0481
48.5815 9.919
48.7774 9.83057
48.9734 9.63558
49.1696 9.50385
49.3661 9.33707
49.5626 9.17174
49.7592 9.05423
49.956 8.89944
50.153 8.79689
50.3501 8.65868
50.5474 8.50718
50.7448 8.43232
50.9424 8.25223
51.1402 8.17221
51.3381 7.98492
51.5362 7.87127
51.7344 7.715
51.9328 7.5856
52.1316 7.47246
52.3304 7.35571
52.5293 7.21686
52.7284 7.1396
52.9276 6.97915
53.1271 6.89591
53.3267 6.77264
53.5265 6.63865
53.7264 6.55378
53.9266 6.42374
54.1269 6.24961
54.3274 6.18585
54.528 6.00578
54.7289 5.82268
54.9301 5.65963
55.1314 5.58888
55.3328 5.32241
55.5344 5.11758
55.7361 4.96755