Folder: NiFe_MOF_catalyst_paper/XRD (part 45)

File: Ni3Fe_FD0230.xy
TT I
1.27165 8.0792
1.45013 6.4554
1.62863 5.48958
1.80712 5.1108
1.98562 4.58967
2.16411 4.35433
2.34263 4.2217
2.52115 4.5887
2.69965 6.1085
2.87818 7.76633
3.05672 11.2983
3.23527 14.5911
3.4138 19.0289
3.59237 22.5598
3.77094 26.0765
3.9495 30.0027
4.12809 34.9266
4.30669 40.8
4.4853 48.6845
4.6639 58.086
4.84253 71.6308
5.02118 96.286
5.19981 884.092
5.37848 277.995
5.55716 112.456
5.73586 101.371
5.91455 110.031
6.09328 3657.85
6.27201 88.7829
6.45075 71.1983
6.62952 63.9377
6.8083 60.0871
6.98711 57.3174
7.16591 56.5311
7.34475 55.6352
7.5236 55.9384
7.70247 57.8453
7.88135 60.3586
8.06026 65.0808
8.23919 73.0353
8.41812 90.3043
8.59709 1063.62
8.77609 110.439
8.9551 90.618
9.13412 86.62
9.31318 88.2536
9.49226 89.5977
9.67134 95.628
9.85047 106.619
10.0296 516.715
10.2088 555.401
10.388 114.907
10.5672 445.027
10.7465 92.1831
10.9257 80.5888
11.105 74.7447
11.2844 70.6571
11.4637 67.6301
11.6431 66.4035
11.8225 65.1136
12.002 68.8532
12.1814 141.58
12.3609 70.0257
12.5405 67.2236
12.72 69.6492
12.8996 74.8213
13.0792 86.4172
13.2589 228.75
13.4386 150.568
13.6183 225.946
13.7981 111.532
13.9779 79.9148
14.1577 75.242
14.3376 73.0741
14.5175 72.6157
14.6974 74.5167
14.8774 119.512
15.0574 171.07
15.2374 72.358
15.4175 69.7391
15.5976 69.7826
15.7778 103.157
15.958 175.471
16.1382 63.8435
16.3185 60.1603
16.4988 58.0477
16.6792 56.7196
16.8596 57.4377
17.04 59.3487
17.2205 68.9376
17.401 77.1897
17.5815 62.0883
17.7622 64.7622
17.9428 82.594
18.1237 138.876
18.3044 90.1047
18.4852 83.6048
18.666 63.3295
18.8469 61.0025
19.0278 59.6879
19.2088 62.9523
19.3898 76.2959
19.5709 56.9401
19.752 55.927
19.9332 59.4245
20.1144 72.6308
20.2957 64.4894
20.477 56.7424
20.6586 52.0581
20.84 51.2412
21.0215 51.192
21.203 52.4467
21.3846 51.5651
21.5662 51.9256
21.7479 55.4179
21.9297 66.6346
22.1115 57.5753
22.2933 52.5706
22.4753 50.8104
22.6572 51.8974
22.8393 54.2518
23.0214 59.9865
23.2037 51.3772
23.3859 52.512
23.5682 57.7465
23.7505 51.3263
23.9329 47.4315
24.1154 46.18
24.2979 45.4231
24.4805 44.7502
24.6631 44.7859
24.8458 44.3058
25.0286 45.052
25.2114 46.5628
25.3943 46.682
25.5773 42.8934
25.7605 42.3587
25.9436 42.7051
26.1268 43.6615
26.31 42.1166
26.4933 42.5641
26.6767 44.0348
26.8601 42.2582
27.0437 40.7039
27.2272 40.411
27.4109 40.1299
27.5946 40.3564
27.7784 39.6712
27.9623 40.0723
28.1462 40.5248
28.3304 39.0316
28.5145 37.646
28.6987 37.1105
28.8829 36.956
29.0673 36.29
29.2517 35.9261
29.4361 35.6994
29.6207 34.6922
29.8053 34.4123
29.99 34.126
30.1748 33.9299
30.3597 33.8028
30.5447 33.6405
30.7297 33.6615
30.915 33.1398
31.1002 32.5998
31.2855 32.323
31.4708 32.085
31.6563 31.8006
31.8418 31.4652
32.0275 31.2293
32.2132 30.74
32.399 30.2379
32.5848 29.7433
32.7708 29.4297
32.9569 29.335
33.143 29.0759
33.3293 28.6091
33.5158 28.2954
33.7022 27.7794
33.8887 27.5591
34.0753 27.1906
34.262 26.8
34.4488 26.5127
34.6357 26.1222
34.8227 25.8458
35.0098 25.5748
35.1969 25.2838
35.3842 25.0364
35.5716 24.8478
35.759 24.5576
35.9468 24.1495
36.1345 23.9597
36.3222 23.6162
36.5101 23.4699
36.6981 23.1577
36.8861 22.8175
37.0743 22.5371
37.2626 22.2077
37.451 21.8933
37.6395 21.7823
37.8281 21.4972
38.0168 21.1278
38.2056 20.901
38.3945 20.5781
38.5837 20.3302
38.7728 20.0544
38.9621 19.8193
39.1514 19.5224
39.3409 19.2865
39.5304 19.1127
39.7201 18.8726
39.9099 18.6007
40.0999 18.3961
40.2899 18.1624
40.48 17.8963
40.6703 17.6754
40.8607 17.4669
41.0512 17.2503
41.242 17.0207
41.4327 16.7519
41.6236 16.5172
41.8146 16.3593
42.0057 16.1158
42.1969 15.9022
42.3882 15.6754
42.5797 15.4659
42.7713 15.2965
42.963 15.0776
43.1549 14.8275
43.3468 14.6431
43.5389 14.4392
43.7312 14.2345
43.9237 14.0566
44.1162 13.8527
44.3088 13.6471
44.5016 13.4639
44.6945 13.3028
44.8875 13.0798
45.0806 12.8989
45.2739 12.7694
45.4673 12.5396
45.6609 12.3652
45.8546 12.204
46.0484 12.0131
46.2424 11.8485
46.4365 11.6748
46.631 11.4803
46.8254 11.3249
47.0199 11.1465
47.2146 11.022
47.4095 10.8005
47.6044 10.7054
47.7996 10.5532
47.9948 10.3568
48.1902 10.239
48.3858 10.0262
48.5815 9.92599
48.7774 9.77547
48.9734 9.65279
49.1696 9.47717
49.3661 9.30472
49.5626 9.19288
49.7592 9.08564
49.956 8.93815
50.153 8.81055
50.3501 8.65135
50.5474 8.54197
50.7448 8.41005
50.9424 8.26153
51.1402 8.14177
51.3381 8.01162
51.5362 7.87265
51.7344 7.72525
51.9328 7.61542
52.1316 7.4701
52.3304 7.40323
52.5293 7.23975
52.7284 7.12904
52.9276 7.00261
53.1271 6.90717
53.3267 6.79923
53.5265 6.65037
53.7264 6.52121
53.9266 6.42509
54.1269 6.29313
54.3274 6.17416
54.528 6.04256
54.7289 5.88893
54.9301 5.67726
55.1314 5.53867
55.3328 5.32197
55.5344 5.11709
55.7361 4.96872

File: Ni3Fe_FD0231.xy
TT I
1.27165 8.29431
1.45013 6.68715
1.62863 6.04776
1.80712 4.6872
1.98562 5.05818
2.16411 4.29024
2.34263 4.85776
2.52115 4.76326
2.69965 6.43437
2.87818 7.97709
3.05672 11.2767
3.23527 15.3898
3.4138 18.7828
3.59237 22.7706
3.77094 25.971
3.9495 29.9893
4.12809 35.0441
4.30669 41.1502
4.4853 48.5653
4.6639 58.4133
4.84253 72.0224
5.02118 96.9474
5.19981 889.884
5.37848 276.147
5.55716 112.413
5.73586 101.313
5.91455 110.498
6.09328 3671.27
6.27201 88.8988
6.45075 71.113
6.62952 64.3695
6.8083 60.5408
6.98711 57.6459
7.16591 57.0889
7.34475 55.7392
7.5236 56.6184
7.70247 58.1295
7.88135 60.246
8.06026 65.3623
8.23919 73.4242
8.41812 90.8754
8.59709 1071.35
8.77609 110.814
8.9551 90.5432
9.13412 87.4549
9.31318 88.6758
9.49226 89.4824
9.67134 95.6996
9.85047 106.857
10.0296 517.951
10.2088 549.274
10.388 115.55
10.5672 447.147
10.7465 92.4926
10.9257 80.8084
11.105 75.0755
11.2844 71.005
11.4637 67.8694
11.6431 66.3069
11.8225 65.4909
12.002 68.7494
12.1814 141.944
12.3609 70.1622
12.5405 67.4382
12.72 69.8224
12.8996 74.7333
13.0792 86.5815
13.2589 230.106
13.4386 149.545
13.6183 227.33
13.7981 110.639
13.9779 80.0877
14.1577 75.4031
14.3376 73.1681
14.5175 72.8018
14.6974 74.5879
14.8774 119.637
15.0574 169.714
15.2374 72.6369
15.4175 69.8444
15.5976 69.9966
15.7778 103.627
15.958 173.911
16.1382 63.7703
16.3185 60.377
16.4988 57.8703
16.6792 56.8927
16.8596 57.5062
17.04 59.4762
17.2205 68.9674
17.401 77.1236
17.5815 62.2076
17.7622 64.4136
17.9428 82.5901
18.1237 139.048
18.3044 90.3222
18.4852 83.5399
18.666 63.5243
18.8469 60.9889
19.0278 59.7505
19.2088 62.9289
19.3898 76.4367
19.5709 56.9283
19.752 56.2536
19.9332 59.4078
20.1144 72.3726
20.2957 64.4149
20.477 56.6942
20.6586 51.975
20.84 51.458
21.0215 51.2479
21.203 52.4668
21.3846 51.6529
21.5662 51.8481
21.7479 55.5521
21.9297 66.8309
22.1115 57.785
22.2933 52.4926
22.4753 50.9997
22.6572 51.8837
22.8393 54.2898
23.0214 59.9157
23.2037 51.4586
23.3859 52.5801
23.5682 57.6411
23.7505 51.0299
23.9329 47.4134
24.1154 46.1137
24.2979 45.4653
24.4805 44.8986
24.6631 44.9091
24.8458 44.496
25.0286 45.1533
25.2114 46.5948
25.3943 46.7301
25.5773 42.9198
25.7605 42.5849
25.9436 42.7329
26.1268 43.6142
26.31 42.1746
26.4933 42.5325
26.6767 43.9386
26.8601 42.41
27.0437 40.7999
27.2272 40.4016
27.4109 40.2842
27.5946 40.3109
27.7784 39.7675
27.9623 39.7894
28.1462 40.4688
28.3304 38.8675
28.5145 37.6823
28.6987 37.2965
28.8829 36.9761
29.0673 36.3084
29.2517 35.9194
29.4361 35.6876
29.6207 34.6822
29.8053 34.4403
29.99 34.1689
30.1748 33.8864
30.3597 33.8057
30.5447 33.5799
30.7297 33.5678
30.915 33.0487
31.1002 32.5675
31.2855 32.2349
31.4708 32.1988
31.6563 31.8474
31.8418 31.4634
32.0275 31.3071
32.2132 30.7322
32.399 30.1895
32.5848 29.7177
32.7708 29.5217
32.9569 29.3762
33.143 29.0933
33.3293 28.6071
33.5158 28.1683
33.7022 27.8188
33.8887 27.5538
34.0753 27.2335
34.262 26.8325
34.4488 26.4985
34.6357 26.1383
34.8227 25.8341
35.0098 25.6214
35.1969 25.2427
35.3842 25.0815
35.5716 24.813
35.759 24.4522
35.9468 24.1901
36.1345 23.9363
36.3222 23.7267
36.5101 23.4722
36.6981 23.1599
36.8861 22.8168
37.0743 22.449
37.2626 22.2681
37.451 21.9979
37.6395 21.7634
37.8281 21.4302
38.0168 21.1128
38.2056 20.7755
38.3945 20.5522
38.5837 20.3666
38.7728 20.038
38.9621 19.794
39.1514 19.6035
39.3409 19.3577
39.5304 19.0021
39.7201 18.9077
39.9099 18.6458
40.0999 18.4075
40.2899 18.1897
40.48 17.8883
40.6703 17.6693
40.8607 17.5247
41.0512 17.2729
41.242 16.9946
41.4327 16.8223
41.6236 16.5108
41.8146 16.3281
42.0057 16.1229
42.1969 15.8956
42.3882 15.6748
42.5797 15.4659
42.7713 15.2923
42.963 15.0602
43.1549 14.8692
43.3468 14.6508
43.5389 14.4263
43.7312 14.2216
43.9237 14.0557
44.1162 13.8285
44.3088 13.6482
44.5016 13.4636
44.6945 13.3087
44.8875 13.1326
45.0806 12.8722
45.2739 12.7727
45.4673 12.5663
45.6609 12.3802
45.8546 12.2614
46.0484 12.0031
46.2424 11.8837
46.4365 11.6863
46.631 11.508
46.8254 11.3616
47.0199 11.1682
47.2146 11.0329
47.4095 10.8167
47.6044 10.642
47.7996 10.5254
47.9948 10.32
48.1902 10.1914
48.3858 10.0703
48.5815 9.94354
48.7774 9.78738
48.9734 9.65676
49.1696 9.50566
49.3661 9.33078
49.5626 9.16488
49.7592 9.05002
49.956 8.95524
50.153 8.80693
50.3501 8.68713
50.5474 8.48957
50.7448 8.37167
50.9424 8.28064
51.1402 8.13304
51.3381 7.96227
51.5362 7.84775
51.7344 7.72875
51.9328 7.60513
52.1316 7.46886
52.3304 7.40911
52.5293 7.25119
52.7284 7.14141
52.9276 7.0199
53.1271 6.87596
53.3267 6.76113
53.5265 6.66635
53.7264 6.50658
53.9266 6.43778
54.1269 6.29778
54.3274 6.16319
54.528 6.01295
54.7289 5.79381
54.9301 5.70602
55.1314 5.55329
55.3328 5.3296
55.5344 5.15278
55.7361 4.96712

File: Ni3Fe_FD0232.xy
TT I
1.27165 7.93612
1.45013 6.32258
1.62863 6.04287
1.80712 5.21737
1.98562 5.2523
2.16411 4.86837
2.34263 4.66265
2.52115 4.92565
2.69965 6.72793
2.87818 8.64499
3.05672 11.363
3.23527 15.1928
3.4138 19.0163
3.59237 22.6527
3.77094 25.6661
3.9495 30.2821
4.12809 34.9086
4.30669 40.6012
4.4853 48.3458
4.6639 58.6367
4.84253 71.5648
5.02118 96.1973
5.19981 886.626
5.37848 276.438
5.55716 112.706
5.73586 101.189
5.91455 110.152
6.09328 3673.62
6.27201 89.2807
6.45075 71.1015
6.62952 64.1303
6.8083 59.8774
6.98711 57.3023
7.16591 56.6341
7.34475 55.973
7.5236 56.1892
7.70247 58.218
7.88135 60.3084
8.06026 65.2483
8.23919 73.0353
8.41812 90.4877
8.59709 1070.06
8.77609 110.621
8.9551 90.7679
9.13412 86.6758
9.31318 88.287
9.49226 89.3057
9.67134 95.611
9.85047 106.555
10.0296 518.096
10.2088 556.679
10.388 115.58
10.5672 447.454
10.7465 92.2292
10.9257 80.9931
11.105 74.9836
11.2844 70.7544
11.4637 67.7321
11.6431 66.4761
11.8225 65.2093
12.002 68.772
12.1814 141.62
12.3609 70.0165
12.5405 67.2553
12.72 69.7324
12.8996 74.6603
13.0792 86.3859
13.2589 229.815
13.4386 149.856
13.6183 227.16
13.7981 111.054
13.9779 80.2383
14.1577 74.9709
14.3376 72.9894
14.5175 72.5692
14.6974 74.5465
14.8774 119.886
15.0574 170.263
15.2374 72.2656
15.4175 70.0471
15.5976 69.986
15.7778 103.608
15.958 174.881
16.1382 63.7935
16.3185 60.2835
16.4988 58.116
16.6792 57.1194
16.8596 57.4174
17.04 59.4685
17.2205 69.0038
17.401 77.2866
17.5815 61.9903
17.7622 64.4895
17.9428 82.6851
18.1237 138.947
18.3044 90.3906
18.4852 83.5598
18.666 63.3614
18.8469 61.0201
19.0278 59.4831
19.2088 62.7322
19.3898 76.3486
19.5709 57.1484
19.752 56.1708
19.9332 59.5834
20.1144 72.7029
20.2957 64.4968
20.477 56.7451
20.6586 51.9984
20.84 51.2312
21.0215 51.2165
21.203 52.5391
21.3846 51.6268
21.5662 51.8596
21.7479 55.7079
21.9297 66.7942
22.1115 57.9221
22.2933 52.5009
22.4753 50.9935
22.6572 51.8724
22.8393 54.3126
23.0214 59.8806
23.2037 51.4838
23.3859 52.7747
23.5682 57.7236
23.7505 51.1515
23.9329 47.4522
24.1154 46.2318
24.2979 45.4759
24.4805 44.9266
24.6631 44.9307
24.8458 44.2865
25.0286 45.1667
25.2114 46.4851
25.3943 46.5894
25.5773 42.8359
25.7605 42.3535
25.9436 42.6901
26.1268 43.5316
26.31 42.1949
26.4933 42.5066
26.6767 43.8373
26.8601 42.3475
27.0437 40.7742
27.2272 40.3462
27.4109 40.107
27.5946 40.2796
27.7784 39.7751
27.9623 40.0279
28.1462 40.6347
28.3304 38.9949
28.5145 37.5975
28.6987 37.1108
28.8829 36.9009
29.0673 36.3916
29.2517 35.9613
29.4361 35.6778
29.6207 34.663
29.8053 34.3681
29.99 34.0312
30.1748 33.8589
30.3597 33.7872
30.5447 33.719
30.7297 33.5845
30.915 33.147
31.1002 32.5607
31.2855 32.2361
31.4708 32.1712
31.6563 31.8635
31.8418 31.4947
32.0275 31.2681
32.2132 30.7416
32.399 30.2812
32.5848 29.8721
32.7708 29.4317
32.9569 29.3675
33.143 29.0432
33.3293 28.6139
33.5158 28.3116
33.7022 27.8432
33.8887 27.5314
34.0753 27.0764
34.262 26.8619
34.4488 26.4414
34.6357 26.1735
34.8227 25.7918
35.0098 25.6078
35.1969 25.3151
35.3842 25.0725
35.5716 24.8347
35.759 24.4624
35.9468 24.1725
36.1345 23.9682
36.3222 23.7309
36.5101 23.4931
36.6981 23.1679
36.8861 22.7744
37.0743 22.4347
37.2626 22.1683
37.451 21.8894
37.6395 21.7603
37.8281 21.3625
38.0168 21.0991
38.2056 20.8863
38.3945 20.5979
38.5837 20.3524
38.7728 20.0844
38.9621 19.8411
39.1514 19.5319
39.3409 19.3164
39.5304 19.0202
39.7201 18.8888
39.9099 18.6115
40.0999 18.3838
40.2899 18.1643
40.48 17.9167
40.6703 17.6916
40.8607 17.4746
41.0512 17.2541
41.242 17.0076
41.4327 16.7777
41.6236 16.5445
41.8146 16.3341
42.0057 16.1101
42.1969 15.862
42.3882 15.7321
42.5797 15.4466
42.7713 15.2418
42.963 15.041
43.1549 14.8935
43.3468 14.6429
43.5389 14.4523
43.7312 14.2807
43.9237 14.044
44.1162 13.8438
44.3088 13.6806
44.5016 13.4261
44.6945 13.2996
44.8875 13.0522
45.0806 12.8958
45.2739 12.7252
45.4673 12.5518
45.6609 12.3564
45.8546 12.209
46.0484 12.0199
46.2424 11.8554
46.4365 11.7045
46.631 11.5234
46.8254 11.3294
47.0199 11.166
47.2146 11.0515
47.4095 10.8184
47.6044 10.6555
47.7996 10.5203
47.9948 10.3332
48.1902 10.2315
48.3858 10.0524
48.5815 9.93058
48.7774 9.8202
48.9734 9.67201
49.1696 9.4767
49.3661 9.31713
49.5626 9.20125
49.7592 9.07817
49.956 8.92521
50.153 8.78663
50.3501 8.65598
50.5474 8.53996
50.7448 8.37136
50.9424 8.27409
51.1402 8.13693
51.3381 8.02272
51.5362 7.87724
51.7344 7.7824
51.9328 7.63057
52.1316 7.4527
52.3304 7.33043
52.5293 7.22967
52.7284 7.13075
52.9276 6.99683
53.1271 6.93175
53.3267 6.78449
53.5265 6.66421
53.7264 6.55815
53.9266 6.43074
54.1269 6.34362
54.3274 6.17742
54.528 5.96419
54.7289 5.85746
54.9301 5.67354
55.1314 5.54252
55.3328 5.33529
55.5344 5.13008
55.7361 5.01292

File: Ni3Fe_FD0233.xy
TT I
1.27165 7.53422
1.45013 6.32759
1.62863 6.27771
1.80712 5.26817
1.98562 5.07335
2.16411 4.44743
2.34263 5.02518
2.52115 5.40161
2.69965 6.41485
2.87818 8.16178
3.05672 11.0906
3.23527 14.7634
3.4138 19.0711
3.59237 22.1797
3.77094 25.925
3.9495 30.3182
4.12809 34.8582
4.30669 40.2908
4.4853 48.4452
4.6639 57.9071
4.84253 71.5041
5.02118 96.6909
5.19981 884.77
5.37848 275.379
5.55716 111.75
5.73586 101.116
5.91455 110.078
6.09328 3682.58
6.27201 88.7875
6.45075 71.1635
6.62952 64.1781
6.8083 60.5002
6.98711 57.3535
7.16591 56.7094
7.34475 55.8944
7.5236 56.1586
7.70247 58.5438
7.88135 60.2908
8.06026 65.3767
8.23919 73.7453
8.41812 91.1461
8.59709 1075.77
8.77609 111.055
8.9551 90.715
9.13412 87.1498
9.31318 88.5038
9.49226 89.5434
9.67134 95.7984
9.85047 106.952
10.0296 517.809
10.2088 551.648
10.388 115.509
10.5672 448.426
10.7465 92.3378
10.9257 80.9934
11.105 74.8024
11.2844 70.5051
11.4637 68.0119
11.6431 66.6038
11.8225 65.3416
12.002 68.5951
12.1814 142.455
12.3609 70.0015
12.5405 67.5584
12.72 69.5803
12.8996 74.7653
13.0792 86.3365
13.2589 230.801
13.4386 149.2
13.6183 227.268
13.7981 110.783
13.9779 80.1481
14.1577 75.3134
14.3376 73.2767
14.5175 72.4473
14.6974 74.6379
14.8774 120.333
15.0574 169.078
15.2374 72.5869
15.4175 69.8423
15.5976 69.7899
15.7778 103.655
15.958 173.83
16.1382 63.9147
16.3185 60.3067
16.4988 58.0881
16.6792 57.0634
16.8596 57.1854
17.04 59.4646
17.2205 68.7588
17.401 77.0121
17.5815 62.1528
17.7622 64.497
17.9428 82.733
18.1237 138.895
18.3044 90.4403
18.4852 83.247
18.666 63.5138
18.8469 61.0463
19.0278 59.713
19.2088 62.8933
19.3898 76.1047
19.5709 56.9421
19.752 56.1024
19.9332 59.4989
20.1144 72.4596
20.2957 64.5037
20.477 56.9031
20.6586 52.0784
20.84 51.2634
21.0215 51.2212
21.203 52.5788
21.3846 51.6032
21.5662 51.8416
21.7479 55.5025
21.9297 66.7608
22.1115 57.6588
22.2933 52.5284
22.4753 51.1298
22.6572 51.9538
22.8393 54.223
23.0214 59.8505
23.2037 51.4195
23.3859 52.546
23.5682 57.7033
23.7505 51.2189
23.9329 47.3054
24.1154 46.196
24.2979 45.5702
24.4805 44.8684
24.6631 44.8339
24.8458 44.3645
25.0286 44.9994
25.2114 46.6951
25.3943 46.7027
25.5773 42.9399
25.7605 42.5512
25.9436 42.7111
26.1268 43.5195
26.31 42.17
26.4933 42.5793
26.6767 43.9231
26.8601 42.3738
27.0437 40.7151
27.2272 40.4623
27.4109 40.0734
27.5946 40.2865
27.7784 39.7703
27.9623 39.9386
28.1462 40.6013
28.3304 38.9117
28.5145 37.6355
28.6987 37.2884
28.8829 37.0163
29.0673 36.2282
29.2517 35.9286
29.4361 35.569
29.6207 34.5785
29.8053 34.4483
29.99 34.0866
30.1748 33.8716
30.3597 33.8053
30.5447 33.5558
30.7297 33.7256
30.915 33.1736
31.1002 32.5768
31.2855 32.2478
31.4708 32.2376
31.6563 31.8134
31.8418 31.4644
32.0275 31.3608
32.2132 30.7671
32.399 30.3703
32.5848 29.8671
32.7708 29.3937
32.9569 29.3928
33.143 29.0504
33.3293 28.6665
33.5158 28.2895
33.7022 27.8144
33.8887 27.4925
34.0753 27.2569
34.262 26.8838
34.4488 26.4747
34.6357 26.066
34.8227 25.8842
35.0098 25.6299
35.1969 25.3136
35.3842 25.0481
35.5716 24.7619
35.759 24.5398
35.9468 24.1425
36.1345 24.0015
36.3222 23.7295
36.5101 23.4841
36.6981 23.1474
36.8861 22.7655
37.0743 22.4793
37.2626 22.2227
37.451 21.9233
37.6395 21.7657
37.8281 21.3378
38.0168 21.1632
38.2056 20.8725
38.3945 20.5575
38.5837 20.3215
38.7728 20.0644
38.9621 19.8037
39.1514 19.6163
39.3409 19.2725
39.5304 19.0789
39.7201 18.8146
39.9099 18.5994
40.0999 18.428
40.2899 18.1692
40.48 17.8894
40.6703 17.6898
40.8607 17.5248
41.0512 17.3079
41.242 17.0003
41.4327 16.7484
41.6236 16.5252
41.8146 16.3525
42.0057 16.046
42.1969 15.8627
42.3882 15.6821
42.5797 15.5153
42.7713 15.2479
42.963 15.0348
43.1549 14.8305
43.3468 14.6166
43.5389 14.4586
43.7312 14.1963
43.9237 14.0508
44.1162 13.8119
44.3088 13.6736
44.5016 13.4938
44.6945 13.2967
44.8875 13.0567
45.0806 12.9416
45.2739 12.7282
45.4673 12.5729
45.6609 12.3568
45.8546 12.1926
46.0484 12.029
46.2424 11.8183
46.4365 11.6808
46.631 11.5589
46.8254 11.2939
47.0199 11.155
47.2146 10.9961
47.4095 10.85
47.6044 10.6843
47.7996 10.5364
47.9948 10.3761
48.1902 10.211
48.3858 10.0897
48.5815 9.92408
48.7774 9.7931
48.9734 9.67498
49.1696 9.48351
49.3661 9.30408
49.5626 9.1902
49.7592 9.06043
49.956 8.92812
50.153 8.79703
50.3501 8.6448
50.5474 8.51487
50.7448 8.37136
50.9424 8.26074
51.1402 8.13308
51.3381 7.99218
51.5362 7.86601
51.7344 7.71289
51.9328 7.55409
52.1316 7.47772
52.3304 7.3396
52.5293 7.20896
52.7284 7.11373
52.9276 7.01679
53.1271 6.89233
53.3267 6.76691
53.5265 6.65553
53.7264 6.53219
53.9266 6.42383
54.1269 6.30228
54.3274 6.18748
54.528 6.04496
54.7289 5.84117
54.9301 5.65294
55.1314 5.54612
55.3328 5.32075
55.5344 5.1029
55.7361 5.00287

File: Ni3Fe_FD0234.xy
TT I
1.27165 7.97277
1.45013 6.47613
1.62863 6.17597
1.80712 4.90146
1.98562 5.26063
2.16411 4.75705
2.34263 3.80696
2.52115 5.88392
2.69965 6.03193
2.87818 7.34462
3.05672 11.1929
3.23527 15.3446
3.4138 19.2753
3.59237 22.0887
3.77094 26.2752
3.9495 30.3037
4.12809 34.9222
4.30669 40.5589
4.4853 48.7294
4.6639 58.2522
4.84253 71.8189
5.02118 96.3711
5.19981 888.115
5.37848 274.024
5.55716 111.763
5.73586 101.625
5.91455 109.976
6.09328 3671.47
6.27201 88.7506
6.45075 71.3194
6.62952 64.2344
6.8083 59.7417
6.98711 57.6478
7.16591 56.7877
7.34475 56.0044
7.5236 56.4345
7.70247 57.9652
7.88135 60.5537
8.06026 65.3173
8.23919 73.2727
8.41812 90.3963
8.59709 1073.9
8.77609 110.672
8.9551 90.8091
9.13412 86.6928
9.31318 88.1963
9.49226 89.6903
9.67134 95.4877
9.85047 106.569
10.0296 517.155
10.2088 553.839
10.388 115.391
10.5672 450.402
10.7465 92.3163
10.9257 80.8427
11.105 74.8855
11.2844 70.4374
11.4637 67.7836
11.6431 66.3729
11.8225 65.057
12.002 68.9574
12.1814 141.683
12.3609 69.8745
12.5405 67.4927
12.72 69.8262
12.8996 74.903
13.0792 86.4532
13.2589 231.014
13.4386 149.449
13.6183 227.055
13.7981 110.398
13.9779 79.9742
14.1577 75.2333
14.3376 73.3048
14.5175 72.5299
14.6974 74.5905
14.8774 120.237
15.0574 169.672
15.2374 72.5737
15.4175 69.8823
15.5976 69.8914
15.7778 103.376
15.958 174.272
16.1382 63.9361
16.3185 60.2312
16.4988 57.8834
16.6792 57.002
16.8596 57.2808
17.04 59.3604
17.2205 69.1711
17.401 76.8832
17.5815 62.1186
17.7622 64.6885
17.9428 82.8287
18.1237 139.236
18.3044 90.4513
18.4852 83.0791
18.666 63.3153
18.8469 60.9207
19.0278 59.8065
19.2088 62.9446
19.3898 76.4822
19.5709 56.9473
19.752 56.0008
19.9332 59.5668
20.1144 72.5551
20.2957 64.5041
20.477 56.6473
20.6586 52.1097
20.84 51.2281
21.0215 51.1197
21.203 52.5799
21.3846 51.5039
21.5662 51.8971
21.7479 55.4991
21.9297 66.7218
22.1115 57.9585
22.2933 52.482
22.4753 50.9235
22.6572 51.9356
22.8393 54.1189
23.0214 59.9552
23.2037 51.27
23.3859 52.4727
23.5682 57.7126
23.7505 51.0342
23.9329 47.3976
24.1154 46.0835
24.2979 45.5876
24.4805 44.9942
24.6631 44.8566
24.8458 44.3111
25.0286 45.1188
25.2114 46.6083
25.3943 46.5417
25.5773 42.7769
25.7605 42.3833
25.9436 42.795
26.1268 43.5745
26.31 42.2164
26.4933 42.5854
26.6767 43.987
26.8601 42.203
27.0437 40.6599
27.2272 40.5226
27.4109 40.1255
27.5946 40.4019
27.7784 39.6966
27.9623 39.937
28.1462 40.6111
28.3304 39.0043
28.5145 37.4883
28.6987 37.2866
28.8829 37.0076
29.0673 36.3465
29.2517 35.7793
29.4361 35.6108
29.6207 34.6806
29.8053 34.3405
29.99 34.1574
30.1748 33.933
30.3597 33.7436
30.5447 33.6403
30.7297 33.6971
30.915 33.1942
31.1002 32.575
31.2855 32.2511
31.4708 32.1603
31.6563 31.8415
31.8418 31.5084
32.0275 31.3145
32.2132 30.7348
32.399 30.2836
32.5848 29.8176
32.7708 29.5171
32.9569 29.2991
33.143 29.0342
33.3293 28.616
33.5158 28.3441
33.7022 27.8274
33.8887 27.5031
34.0753 27.1622
34.262 26.7907
34.4488 26.5119
34.6357 26.0743
34.8227 25.7548
35.0098 25.6447
35.1969 25.2713
35.3842 25.071
35.5716 24.9423
35.759 24.5368
35.9468 24.1103
36.1345 23.9444
36.3222 23.746
36.5101 23.4662
36.6981 23.1874
36.8861 22.7817
37.0743 22.486
37.2626 22.2498
37.451 21.9341
37.6395 21.8263
37.8281 21.4599
38.0168 21.1247
38.2056 20.82
38.3945 20.5823
38.5837 20.347
38.7728 20.0474
38.9621 19.8227
39.1514 19.5537
39.3409 19.3349
39.5304 19.0164
39.7201 18.8244
39.9099 18.6216
40.0999 18.3909
40.2899 18.1212
40.48 17.9296
40.6703 17.6946
40.8607 17.4928
41.0512 17.2781
41.242 16.9918
41.4327 16.8162
41.6236 16.4743
41.8146 16.3258
42.0057 16.1684
42.1969 15.9374
42.3882 15.748
42.5797 15.5036
42.7713 15.2611
42.963 15.0526
43.1549 14.8557
43.3468 14.6108
43.5389 14.4524
43.7312 14.2392
43.9237 14.0613
44.1162 13.8167
44.3088 13.6051
44.5016 13.4284
44.6945 13.2641
44.8875 13.0592
45.0806 12.8732
45.2739 12.751
45.4673 12.5534
45.6609 12.3729
45.8546 12.227
46.0484 11.9855
46.2424 11.851
46.4365 11.6828
46.631 11.4512
46.8254 11.282
47.0199 11.1713
47.2146 10.9813
47.4095 10.7965
47.6044 10.6811
47.7996 10.4889
47.9948 10.3527
48.1902 10.2094
48.3858 10.0603
48.5815 10.0002
48.7774 9.76752
48.9734 9.63074
49.1696 9.50075
49.3661 9.34974
49.5626 9.17372
49.7592 9.06187
49.956 8.95323
50.153 8.79324
50.3501 8.64686
50.5474 8.5119
50.7448 8.43223
50.9424 8.25353
51.1402 8.11722
51.3381 7.99453
51.5362 7.87675
51.7344 7.74466
51.9328 7.58808
52.1316 7.47412
52.3304 7.35174
52.5293 7.24605
52.7284 7.12207
52.9276 6.99067
53.1271 6.92457
53.3267 6.77628
53.5265 6.64777
53.7264 6.53396
53.9266 6.43918
54.1269 6.28309
54.3274 6.18965
54.528 6.03056
54.7289 5.87875
54.9301 5.72205
55.1314 5.58974
55.3328 5.34793
55.5344 5.14609
55.7361 5.01798