Folder: NiFe_MOF_catalyst_paper/XRD (part 35)

File: Ni3Fe_FD0178.xy
TT I
1.27165 7.79752
1.45013 6.20804
1.62863 5.47068
1.80712 5.19657
1.98562 5.40773
2.16411 4.56275
2.34263 3.88826
2.52115 4.7028
2.69965 6.23367
2.87818 8.73515
3.05672 11.7221
3.23527 15.3178
3.4138 18.7218
3.59237 22.2716
3.77094 24.8724
3.9495 28.7835
4.12809 33.5752
4.30669 37.9435
4.4853 45.6036
4.6639 54.5066
4.84253 66.7241
5.02118 90.7153
5.19981 522.163
5.37848 409.525
5.55716 107.508
5.73586 95.8161
5.91455 104.734
6.09328 2874.74
6.27201 88.5053
6.45075 66.8103
6.62952 60.3744
6.8083 55.9145
6.98711 53.9443
7.16591 52.7074
7.34475 52.7015
7.5236 55.7543
7.70247 54.268
7.88135 56.8064
8.06026 60.9701
8.23919 68.2923
8.41812 83.9605
8.59709 921.06
8.77609 115.301
8.9551 85.981
9.13412 81.7249
9.31318 86.1987
9.49226 83.8527
9.67134 89.1539
9.85047 99.649
10.0296 535.387
10.2088 946.574
10.388 105.227
10.5672 345.334
10.7465 90.7037
10.9257 76.3286
11.105 70.6953
11.2844 66.5963
11.4637 64.0268
11.6431 62.6154
11.8225 61.5913
12.002 65.4295
12.1814 121.583
12.3609 73.6371
12.5405 63.6682
12.72 65.5773
12.8996 70.1112
13.0792 79.5616
13.2589 209.999
13.4386 201.535
13.6183 199.45
13.7981 149.869
13.9779 76.5898
14.1577 74.1985
14.3376 69.6132
14.5175 68.7473
14.6974 70.1899
14.8774 121.441
15.0574 205.131
15.2374 69.2054
15.4175 66.7657
15.5976 66.2236
15.7778 107.499
15.958 187.522
16.1382 61.9359
16.3185 57.6914
16.4988 55.4258
16.6792 54.4584
16.8596 54.7664
17.04 55.5952
17.2205 66.002
17.401 81.5507
17.5815 59.4562
17.7622 61.9305
17.9428 83.9476
18.1237 118.644
18.3044 89.3268
18.4852 94.6889
18.666 61.306
18.8469 58.7306
19.0278 57.2387
19.2088 62.1003
19.3898 70.416
19.5709 56.6237
19.752 53.8286
19.9332 58.7373
20.1144 68.0817
20.2957 61.8906
20.477 59.1992
20.6586 50.154
20.84 49.4978
21.0215 49.3882
21.203 50.2811
21.3846 50.6903
21.5662 49.4684
21.7479 54.5339
21.9297 63.1218
22.1115 56.9965
22.2933 52.8603
22.4753 49.4663
22.6572 49.4132
22.8393 52.6309
23.0214 57.8635
23.2037 50.1209
23.3859 52.107
23.5682 54.5813
23.7505 53.2382
23.9329 46.0526
24.1154 44.6268
24.2979 44.1288
24.4805 43.4635
24.6631 43.5666
24.8458 42.9545
25.0286 43.3342
25.2114 45.0157
25.3943 45.3839
25.5773 42.1828
25.7605 41.1393
25.9436 41.4359
26.1268 42.1924
26.31 41.1147
26.4933 41.3869
26.6767 42.5516
26.8601 41.6482
27.0437 39.8553
27.2272 39.3767
27.4109 39.0216
27.5946 39.2615
27.7784 38.9417
27.9623 38.8769
28.1462 39.8451
28.3304 38.4639
28.5145 36.6228
28.6987 36.2488
28.8829 35.8538
29.0673 35.4971
29.2517 34.9208
29.4361 34.6912
29.6207 33.8272
29.8053 33.3441
29.99 33.0956
30.1748 32.7502
30.3597 32.884
30.5447 32.6899
30.7297 32.6264
30.915 32.4346
31.1002 31.8587
31.2855 31.3988
31.4708 31.2696
31.6563 31.1397
31.8418 30.7325
32.0275 30.499
32.2132 30.0434
32.399 29.4992
32.5848 29.0237
32.7708 28.6724
32.9569 28.4946
33.143 28.3624
33.3293 27.9598
33.5158 27.6416
33.7022 27.0707
33.8887 26.8052
34.0753 26.5049
34.262 26.1096
34.4488 25.757
34.6357 25.3873
34.8227 25.1037
35.0098 24.934
35.1969 24.5809
35.3842 24.3921
35.5716 24.1556
35.759 23.8645
35.9468 23.5318
36.1345 23.3222
36.3222 23.1156
36.5101 22.7838
36.6981 22.5315
36.8861 22.2451
37.0743 21.8573
37.2626 21.641
37.451 21.3804
37.6395 21.1813
37.8281 20.8722
38.0168 20.5637
38.2056 20.3804
38.3945 20.0009
38.5837 19.8401
38.7728 19.4969
38.9621 19.3267
39.1514 18.9785
39.3409 18.7398
39.5304 18.5137
39.7201 18.3756
39.9099 18.1592
40.0999 17.9135
40.2899 17.6486
40.48 17.4458
40.6703 17.2246
40.8607 17.0819
41.0512 16.8169
41.242 16.5681
41.4327 16.3314
41.6236 16.0998
41.8146 15.8768
42.0057 15.6648
42.1969 15.4509
42.3882 15.3179
42.5797 15.0535
42.7713 14.8602
42.963 14.6665
43.1549 14.4895
43.3468 14.271
43.5389 14.0616
43.7312 13.8695
43.9237 13.6535
44.1162 13.5202
44.3088 13.2683
44.5016 13.0997
44.6945 12.9711
44.8875 12.7872
45.0806 12.57
45.2739 12.3792
45.4673 12.2417
45.6609 12.0445
45.8546 11.886
46.0484 11.7383
46.2424 11.555
46.4365 11.4272
46.631 11.2175
46.8254 11.0393
47.0199 10.8751
47.2146 10.7435
47.4095 10.5744
47.6044 10.397
47.7996 10.2524
47.9948 10.122
48.1902 9.93184
48.3858 9.82963
48.5815 9.70613
48.7774 9.55559
48.9734 9.42697
49.1696 9.23093
49.3661 9.15426
49.5626 8.92497
49.7592 8.8581
49.956 8.72922
50.153 8.57432
50.3501 8.43453
50.5474 8.32345
50.7448 8.1859
50.9424 8.08979
51.1402 7.93741
51.3381 7.82004
51.5362 7.7059
51.7344 7.55217
51.9328 7.40872
52.1316 7.27354
52.3304 7.19435
52.5293 7.05033
52.7284 6.98488
52.9276 6.86593
53.1271 6.71176
53.3267 6.63284
53.5265 6.48914
53.7264 6.38041
53.9266 6.32154
54.1269 6.1379
54.3274 6.02354
54.528 5.83839
54.7289 5.71123
54.9301 5.52667
55.1314 5.36952
55.3328 5.1784
55.5344 4.95524
55.7361 4.79034

File: Ni3Fe_FD0179.xy
TT I
1.27165 8.05462
1.45013 6.90321
1.62863 5.58378
1.80712 4.74931
1.98562 5.03242
2.16411 4.92089
2.34263 3.8318
2.52115 4.19529
2.69965 6.05984
2.87818 7.77441
3.05672 11.2776
3.23527 15.2117
3.4138 18.9079
3.59237 22.075
3.77094 24.9211
3.9495 28.5416
4.12809 33.0459
4.30669 37.9711
4.4853 45.4422
4.6639 54.4713
4.84253 66.6621
5.02118 91.1314
5.19981 523.502
5.37848 406.203
5.55716 107.607
5.73586 95.5667
5.91455 104.842
6.09328 2877.34
6.27201 88.2367
6.45075 66.8104
6.62952 60.1329
6.8083 56.2442
6.98711 53.886
7.16591 52.8741
7.34475 52.3365
7.5236 55.5989
7.70247 54.4661
7.88135 56.668
8.06026 61.036
8.23919 68.1709
8.41812 84.2956
8.59709 922.322
8.77609 115.658
8.9551 85.9759
9.13412 81.7611
9.31318 85.9894
9.49226 84.0951
9.67134 89.1665
9.85047 99.4986
10.0296 535.717
10.2088 936.781
10.388 104.816
10.5672 347.02
10.7465 90.7738
10.9257 76.3601
11.105 70.7554
11.2844 66.438
11.4637 64.0985
11.6431 62.6167
11.8225 61.4641
12.002 65.3326
12.1814 121.475
12.3609 73.3614
12.5405 63.5555
12.72 65.8491
12.8996 70.3568
13.0792 79.7001
13.2589 210.205
13.4386 200.619
13.6183 199.618
13.7981 148.39
13.9779 76.5869
14.1577 74.3865
14.3376 69.5342
14.5175 68.8105
14.6974 70.3272
14.8774 121.742
15.0574 205.029
15.2374 69.5503
15.4175 66.7885
15.5976 66.3114
15.7778 107.491
15.958 187.191
16.1382 62.2046
16.3185 57.8079
16.4988 55.2805
16.6792 54.264
16.8596 54.6726
17.04 55.7501
17.2205 66.0091
17.401 81.4668
17.5815 59.4157
17.7622 61.822
17.9428 83.8624
18.1237 118.615
18.3044 89.4061
18.4852 94.5155
18.666 61.5032
18.8469 58.6876
19.0278 57.0607
19.2088 62.1386
19.3898 70.4628
19.5709 56.5115
19.752 53.7688
19.9332 58.6216
20.1144 68.0881
20.2957 62.0129
20.477 58.9826
20.6586 50.1211
20.84 49.2845
21.0215 49.6965
21.203 50.2213
21.3846 50.7892
21.5662 49.3698
21.7479 54.5469
21.9297 63.185
22.1115 56.7881
22.2933 52.6223
22.4753 49.2823
22.6572 49.6463
22.8393 52.551
23.0214 57.9375
23.2037 50.2348
23.3859 52.1077
23.5682 54.5074
23.7505 53.2244
23.9329 46.1388
24.1154 44.7893
24.2979 44.1672
24.4805 43.5277
24.6631 43.5807
24.8458 42.9247
25.0286 43.4705
25.2114 45.1707
25.3943 45.3448
25.5773 42.0139
25.7605 41.0493
25.9436 41.4803
26.1268 42.0423
26.31 41.2931
26.4933 41.4328
26.6767 42.5331
26.8601 41.6442
27.0437 39.8857
27.2272 39.2684
27.4109 38.9707
27.5946 39.1241
27.7784 38.9319
27.9623 38.9417
28.1462 39.8967
28.3304 38.4163
28.5145 36.6974
28.6987 36.2857
28.8829 35.7511
29.0673 35.5457
29.2517 34.8421
29.4361 34.6298
29.6207 33.8848
29.8053 33.4096
29.99 33.1051
30.1748 32.8214
30.3597 33.0185
30.5447 32.7433
30.7297 32.721
30.915 32.4162
31.1002 31.8166
31.2855 31.4572
31.4708 31.3442
31.6563 31.1487
31.8418 30.6778
32.0275 30.4824
32.2132 30.0781
32.399 29.419
32.5848 28.8454
32.7708 28.6727
32.9569 28.5536
33.143 28.2089
33.3293 27.9432
33.5158 27.6498
33.7022 27.0863
33.8887 26.7198
34.0753 26.455
34.262 26.0582
34.4488 25.6886
34.6357 25.4482
34.8227 25.1018
35.0098 24.8274
35.1969 24.646
35.3842 24.3474
35.5716 24.2275
35.759 23.9594
35.9468 23.5326
36.1345 23.2393
36.3222 23.0832
36.5101 22.8402
36.6981 22.5624
36.8861 22.1676
37.0743 21.8985
37.2626 21.5288
37.451 21.3209
37.6395 21.2657
37.8281 20.7984
38.0168 20.5457
38.2056 20.3408
38.3945 19.9506
38.5837 19.7529
38.7728 19.5009
38.9621 19.2653
39.1514 19.0227
39.3409 18.7829
39.5304 18.6181
39.7201 18.3054
39.9099 18.1725
40.0999 17.9213
40.2899 17.6332
40.48 17.4156
40.6703 17.2474
40.8607 17.0414
41.0512 16.7574
41.242 16.5267
41.4327 16.3087
41.6236 16.0907
41.8146 15.9131
42.0057 15.6823
42.1969 15.5141
42.3882 15.2832
42.5797 15.0815
42.7713 14.8235
42.963 14.6569
43.1549 14.5052
43.3468 14.21
43.5389 14.0396
43.7312 13.8501
43.9237 13.6921
44.1162 13.5597
44.3088 13.3049
44.5016 13.1041
44.6945 12.9836
44.8875 12.8126
45.0806 12.5474
45.2739 12.3913
45.4673 12.2621
45.6609 12.0559
45.8546 11.8889
46.0484 11.7079
46.2424 11.5295
46.4365 11.384
46.631 11.178
46.8254 11.0425
47.0199 10.8651
47.2146 10.7507
47.4095 10.5855
47.6044 10.3734
47.7996 10.2323
47.9948 10.0855
48.1902 9.96645
48.3858 9.82299
48.5815 9.72761
48.7774 9.51841
48.9734 9.40311
49.1696 9.26495
49.3661 9.13929
49.5626 8.96452
49.7592 8.86707
49.956 8.70983
50.153 8.58279
50.3501 8.44145
50.5474 8.31351
50.7448 8.17593
50.9424 8.07006
51.1402 7.95705
51.3381 7.80437
51.5362 7.68089
51.7344 7.54722
51.9328 7.40384
52.1316 7.25549
52.3304 7.18684
52.5293 7.05888
52.7284 6.92785
52.9276 6.8451
53.1271 6.75291
53.3267 6.59892
53.5265 6.47314
53.7264 6.39456
53.9266 6.25724
54.1269 6.11924
54.3274 5.99296
54.528 5.87768
54.7289 5.68663
54.9301 5.50592
55.1314 5.36309
55.3328 5.12224
55.5344 4.93389
55.7361 4.86014

File: Ni3Fe_FD0180.xy
TT I
1.27165 7.82298
1.45013 6.25625
1.62863 5.34172
1.80712 4.75253
1.98562 4.52103
2.16411 4.29032
2.34263 4.01999
2.52115 5.34107
2.69965 6.07446
2.87818 7.77199
3.05672 11.6906
3.23527 15.2335
3.4138 18.5288
3.59237 21.7499
3.77094 25.1141
3.9495 28.7947
4.12809 33.4738
4.30669 38.3492
4.4853 44.7952
4.6639 54.1164
4.84253 66.6634
5.02118 91.3024
5.19981 523.556
5.37848 406.126
5.55716 107.831
5.73586 95.7644
5.91455 105.036
6.09328 2879.17
6.27201 88.753
6.45075 66.7083
6.62952 59.8862
6.8083 56.0099
6.98711 53.8356
7.16591 52.8045
7.34475 52.4713
7.5236 55.5452
7.70247 54.4687
7.88135 56.7687
8.06026 60.8724
8.23919 68.2483
8.41812 84.0428
8.59709 923.706
8.77609 114.806
8.9551 85.6463
9.13412 81.7252
9.31318 85.9195
9.49226 84.4009
9.67134 89.1967
9.85047 99.5247
10.0296 535.12
10.2088 932.836
10.388 104.969
10.5672 346.624
10.7465 90.6615
10.9257 76.5588
11.105 70.7853
11.2844 66.9309
11.4637 63.9819
11.6431 62.5649
11.8225 61.2985
12.002 65.0883
12.1814 121.802
12.3609 73.3144
12.5405 63.5178
12.72 65.6329
12.8996 70.3405
13.0792 79.4265
13.2589 209.97
13.4386 201.299
13.6183 199.734
13.7981 149.488
13.9779 76.7339
14.1577 74.0657
14.3376 69.5142
14.5175 68.7414
14.6974 70.2462
14.8774 121.463
15.0574 205.24
15.2374 69.5675
15.4175 66.492
15.5976 66.2184
15.7778 107.593
15.958 187.363
16.1382 62.0932
16.3185 57.6247
16.4988 55.5005
16.6792 54.3855
16.8596 54.6797
17.04 55.8732
17.2205 65.9952
17.401 81.4587
17.5815 59.5149
17.7622 61.8082
17.9428 83.8608
18.1237 118.848
18.3044 89.4008
18.4852 94.5883
18.666 61.386
18.8469 58.6543
19.0278 57.1114
19.2088 61.9652
19.3898 70.2911
19.5709 56.5077
19.752 53.7818
19.9332 58.6598
20.1144 68.1748
20.2957 61.8633
20.477 59.0128
20.6586 50.0905
20.84 49.4904
21.0215 49.3653
21.203 50.1748
21.3846 50.9396
21.5662 49.1943
21.7479 54.4066
21.9297 63.1596
22.1115 56.8374
22.2933 52.7735
22.4753 49.2844
22.6572 49.6219
22.8393 52.6463
23.0214 58.1551
23.2037 50.2301
23.3859 52.0402
23.5682 54.4777
23.7505 53.0945
23.9329 45.9588
24.1154 44.7992
24.2979 44.1889
24.4805 43.4432
24.6631 43.6118
24.8458 42.8231
25.0286 43.4058
25.2114 45.0514
25.3943 45.4784
25.5773 42.0858
25.7605 41.0901
25.9436 41.3623
26.1268 42.2004
26.31 41.1739
26.4933 41.5077
26.6767 42.5171
26.8601 41.7032
27.0437 39.7971
27.2272 39.3976
27.4109 38.9542
27.5946 39.1205
27.7784 38.8695
27.9623 38.9082
28.1462 39.8183
28.3304 38.3649
28.5145 36.6899
28.6987 36.2843
28.8829 35.9451
29.0673 35.502
29.2517 34.8231
29.4361 34.7556
29.6207 33.8625
29.8053 33.3622
29.99 33.1155
30.1748 32.8971
30.3597 32.8762
30.5447 32.7427
30.7297 32.6833
30.915 32.4019
31.1002 31.746
31.2855 31.4324
31.4708 31.2457
31.6563 31.114
31.8418 30.7174
32.0275 30.5129
32.2132 30.0033
32.399 29.4591
32.5848 29.0445
32.7708 28.6622
32.9569 28.5572
33.143 28.2146
33.3293 27.9321
33.5158 27.6035
33.7022 27.1421
33.8887 26.7393
34.0753 26.4616
34.262 26.0662
34.4488 25.6951
34.6357 25.4162
34.8227 25.239
35.0098 24.9501
35.1969 24.5606
35.3842 24.3287
35.5716 24.217
35.759 23.9009
35.9468 23.512
36.1345 23.2239
36.3222 23.1314
36.5101 22.7831
36.6981 22.5019
36.8861 22.1662
37.0743 21.8818
37.2626 21.611
37.451 21.3789
37.6395 21.1841
37.8281 20.8267
38.0168 20.5793
38.2056 20.2499
38.3945 19.997
38.5837 19.811
38.7728 19.5762
38.9621 19.2751
39.1514 19.0574
39.3409 18.8445
39.5304 18.5816
39.7201 18.3854
39.9099 18.1789
40.0999 17.9231
40.2899 17.7341
40.48 17.4275
40.6703 17.2032
40.8607 17.0025
41.0512 16.7312
41.242 16.5256
41.4327 16.3722
41.6236 16.0575
41.8146 15.8736
42.0057 15.6521
42.1969 15.4564
42.3882 15.2854
42.5797 15.1049
42.7713 14.8777
42.963 14.628
43.1549 14.4458
43.3468 14.2488
43.5389 13.9751
43.7312 13.8567
43.9237 13.7027
44.1162 13.4758
44.3088 13.291
44.5016 13.1306
44.6945 12.901
44.8875 12.7155
45.0806 12.5701
45.2739 12.3743
45.4673 12.2241
45.6609 12.0609
45.8546 11.9078
46.0484 11.7334
46.2424 11.5448
46.4365 11.4265
46.631 11.2078
46.8254 10.9917
47.0199 10.8753
47.2146 10.7443
47.4095 10.5645
47.6044 10.3841
47.7996 10.2554
47.9948 10.0755
48.1902 9.94095
48.3858 9.8185
48.5815 9.6565
48.7774 9.55563
48.9734 9.39685
49.1696 9.24732
49.3661 9.14758
49.5626 8.94241
49.7592 8.85599
49.956 8.72565
50.153 8.58806
50.3501 8.43464
50.5474 8.32756
50.7448 8.24014
50.9424 8.07473
51.1402 7.93636
51.3381 7.79827
51.5362 7.68941
51.7344 7.55049
51.9328 7.4186
52.1316 7.2902
52.3304 7.18961
52.5293 7.06901
52.7284 6.94468
52.9276 6.85025
53.1271 6.73524
53.3267 6.59918
53.5265 6.43888
53.7264 6.40575
53.9266 6.26119
54.1269 6.19208
54.3274 6.02919
54.528 5.83384
54.7289 5.71375
54.9301 5.529
55.1314 5.38056
55.3328 5.13852
55.5344 4.98246
55.7361 4.82252

File: Ni3Fe_FD0181.xy
TT I
1.27165 8.28845
1.45013 6.33829
1.62863 5.7508
1.80712 5.15284
1.98562 5.15963
2.16411 4.40404
2.34263 4.08012
2.52115 4.43118
2.69965 6.25866
2.87818 7.71279
3.05672 11.555
3.23527 15.0179
3.4138 18.7429
3.59237 21.8904
3.77094 25.5079
3.9495 28.9818
4.12809 33.556
4.30669 38.0304
4.4853 45.0738
4.6639 54.0922
4.84253 66.5546
5.02118 90.6216
5.19981 517.063
5.37848 407.313
5.55716 107.739
5.73586 95.3682
5.91455 104.439
6.09328 2871.89
6.27201 88.2084
6.45075 66.7031
6.62952 60.2714
6.8083 56.0573
6.98711 53.5554
7.16591 52.7635
7.34475 52.3911
7.5236 55.7198
7.70247 54.3435
7.88135 56.3853
8.06026 61.1629
8.23919 68.4676
8.41812 83.6561
8.59709 921.864
8.77609 114.526
8.9551 85.4708
9.13412 81.8231
9.31318 86.0787
9.49226 84.1663
9.67134 89.0922
9.85047 99.0537
10.0296 533.499
10.2088 937.441
10.388 104.706
10.5672 345.272
10.7465 90.3729
10.9257 76.1745
11.105 70.8198
11.2844 66.3957
11.4637 63.6893
11.6431 62.5793
11.8225 61.5606
12.002 65.2426
12.1814 121.549
12.3609 74.0875
12.5405 63.4728
12.72 65.7637
12.8996 70.3663
13.0792 79.3759
13.2589 209.871
13.4386 200.942
13.6183 199.323
13.7981 149.876
13.9779 76.4579
14.1577 74.1537
14.3376 69.4426
14.5175 68.6322
14.6974 70.0654
14.8774 121.598
15.0574 204.874
15.2374 69.4398
15.4175 66.5175
15.5976 65.8194
15.7778 107.581
15.958 187.169
16.1382 61.9397
16.3185 57.613
16.4988 55.3126
16.6792 54.6433
16.8596 54.7708
17.04 55.7603
17.2205 65.9154
17.401 81.7318
17.5815 59.3686
17.7622 61.5534
17.9428 83.6813
18.1237 118.626
18.3044 89.4227
18.4852 94.7459
18.666 61.1124
18.8469 58.5036
19.0278 57.2199
19.2088 62.0079
19.3898 70.0436
19.5709 56.4921
19.752 53.7397
19.9332 58.4474
20.1144 67.9277
20.2957 61.6224
20.477 58.9435
20.6586 50.202
20.84 49.2879
21.0215 49.4069
21.203 50.2813
21.3846 50.7673
21.5662 49.271
21.7479 54.4403
21.9297 63.1626
22.1115 56.8577
22.2933 52.711
22.4753 49.2482
22.6572 49.5119
22.8393 52.558
23.0214 57.7846
23.2037 50.1682
23.3859 52.0771
23.5682 54.4144
23.7505 53.3665
23.9329 46.0457
24.1154 44.6969
24.2979 43.947
24.4805 43.2642
24.6631 43.4835
24.8458 42.9363
25.0286 43.4166
25.2114 45.1837
25.3943 45.3843
25.5773 42.0851
25.7605 41.0718
25.9436 41.3582
26.1268 42.0902
26.31 41.1809
26.4933 41.3208
26.6767 42.5174
26.8601 41.6441
27.0437 39.8801
27.2272 39.3458
27.4109 38.982
27.5946 38.9874
27.7784 38.8329
27.9623 38.7703
28.1462 39.686
28.3304 38.3831
28.5145 36.6822
28.6987 36.1817
28.8829 35.9304
29.0673 35.3844
29.2517 34.8613
29.4361 34.5997
29.6207 33.8397
29.8053 33.4101
29.99 33.14
30.1748 32.8655
30.3597 32.9705
30.5447 32.7334
30.7297 32.7387
30.915 32.38
31.1002 31.6866
31.2855 31.3693
31.4708 31.2863
31.6563 31.0745
31.8418 30.5441
32.0275 30.451
32.2132 30.038
32.399 29.374
32.5848 28.9958
32.7708 28.5824
32.9569 28.4717
33.143 28.2351
33.3293 27.9253
33.5158 27.6124
33.7022 27.0165
33.8887 26.8072
34.0753 26.456
34.262 26.0527
34.4488 25.7734
34.6357 25.4819
34.8227 25.177
35.0098 24.9137
35.1969 24.6061
35.3842 24.4544
35.5716 24.1798
35.759 23.9122
35.9468 23.5009
36.1345 23.3651
36.3222 23.1056
36.5101 22.8084
36.6981 22.4865
36.8861 22.1326
37.0743 21.8751
37.2626 21.5811
37.451 21.3326
37.6395 21.197
37.8281 20.9043
38.0168 20.5139
38.2056 20.2234
38.3945 20.0766
38.5837 19.793
38.7728 19.5466
38.9621 19.2421
39.1514 19.0274
39.3409 18.8262
39.5304 18.5035
39.7201 18.3931
39.9099 18.158
40.0999 17.9126
40.2899 17.6683
40.48 17.4053
40.6703 17.2381
40.8607 17.0354
41.0512 16.7865
41.242 16.5513
41.4327 16.3286
41.6236 16.0927
41.8146 15.9167
42.0057 15.5936
42.1969 15.4851
42.3882 15.2885
42.5797 15.1031
42.7713 14.8535
42.963 14.6612
43.1549 14.4001
43.3468 14.2482
43.5389 14.0552
43.7312 13.8761
43.9237 13.638
44.1162 13.5005
44.3088 13.2995
44.5016 13.1355
44.6945 12.9425
44.8875 12.7613
45.0806 12.5791
45.2739 12.3435
45.4673 12.2425
45.6609 12.044
45.8546 11.8946
46.0484 11.6673
46.2424 11.5505
46.4365 11.3906
46.631 11.2069
46.8254 11.0309
47.0199 10.9059
47.2146 10.6886
47.4095 10.525
47.6044 10.4241
47.7996 10.2414
47.9948 10.1167
48.1902 9.96405
48.3858 9.80155
48.5815 9.68919
48.7774 9.52248
48.9734 9.42882
49.1696 9.2645
49.3661 9.1299
49.5626 8.94772
49.7592 8.81764
49.956 8.7163
50.153 8.56653
50.3501 8.45424
50.5474 8.33246
50.7448 8.20826
50.9424 8.08111
51.1402 7.93615
51.3381 7.78871
51.5362 7.68881
51.7344 7.55809
51.9328 7.45452
52.1316 7.29892
52.3304 7.15315
52.5293 7.05645
52.7284 7.00956
52.9276 6.84224
53.1271 6.69399
53.3267 6.60331
53.5265 6.506
53.7264 6.38482
53.9266 6.2653
54.1269 6.12637
54.3274 6.05714
54.528 5.8161
54.7289 5.70344
54.9301 5.51339
55.1314 5.37815
55.3328 5.15602
55.5344 4.9262
55.7361 4.87913

File: Ni3Fe_FD0182.xy
TT I
1.27165 8.29413
1.45013 6.46103
1.62863 5.51847
1.80712 4.44476
1.98562 4.32761
2.16411 4.8759
2.34263 3.99057
2.52115 4.59233
2.69965 6.37467
2.87818 8.21762
3.05672 11.2718
3.23527 15.0007
3.4138 18.5603
3.59237 21.8993
3.77094 25.0604
3.9495 28.6625
4.12809 32.971
4.30669 37.5006
4.4853 45.1751
4.6639 54.0239
4.84253 66.5345
5.02118 91.4437
5.19981 519.248
5.37848 407.57
5.55716 107.672
5.73586 95.7303
5.91455 104.439
6.09328 2889.78
6.27201 88.4263
6.45075 67.0624
6.62952 60.3421
6.8083 55.9499
6.98711 54.0806
7.16591 52.8987
7.34475 52.5384
7.5236 55.7778
7.70247 54.5036
7.88135 56.54
8.06026 60.8572
8.23919 68.0445
8.41812 84.0669
8.59709 925.294
8.77609 114.63
8.9551 85.6112
9.13412 81.8217
9.31318 86.1704
9.49226 84.0828
9.67134 89.4886
9.85047 99.4507
10.0296 532.929
10.2088 930.453
10.388 104.833
10.5672 345.914
10.7465 90.7184
10.9257 75.9555
11.105 70.6646
11.2844 66.5633
11.4637 64.0546
11.6431 62.5971
11.8225 61.5475
12.002 65.1109
12.1814 122.269
12.3609 73.8543
12.5405 63.5302
12.72 65.6
12.8996 70.1893
13.0792 79.9763
13.2589 210.787
13.4386 200.318
13.6183 199.794
13.7981 149.47
13.9779 76.7629
14.1577 74.1921
14.3376 69.4796
14.5175 68.9647
14.6974 70.1464
14.8774 121.638
15.0574 204.377
15.2374 69.6768
15.4175 66.5709
15.5976 66.1906
15.7778 107.656
15.958 187.523
16.1382 62.0917
16.3185 57.8184
16.4988 55.3715
16.6792 54.2819
16.8596 54.7601
17.04 55.782
17.2205 65.89
17.401 81.4771
17.5815 59.4659
17.7622 61.6758
17.9428 83.8056
18.1237 118.816
18.3044 89.4881
18.4852 94.6008
18.666 61.3597
18.8469 58.7569
19.0278 57.1421
19.2088 62.1357
19.3898 70.2069
19.5709 56.6212
19.752 53.7908
19.9332 58.6024
20.1144 68.1322
20.2957 61.8789
20.477 58.9875
20.6586 50.2047
20.84 49.4006
21.0215 49.4089
21.203 50.3518
21.3846 50.8926
21.5662 49.3879
21.7479 54.5025
21.9297 63.2771
22.1115 56.9552
22.2933 52.6286
22.4753 49.2141
22.6572 49.3932
22.8393 52.8091
23.0214 58.2847
23.2037 50.2396
23.3859 52.1773
23.5682 54.4993
23.7505 53.3317
23.9329 46.2063
24.1154 44.9231
24.2979 44.0051
24.4805 43.4375
24.6631 43.4963
24.8458 42.8831
25.0286 43.4193
25.2114 45.1796
25.3943 45.4221
25.5773 42.1238
25.7605 41.0613
25.9436 41.4001
26.1268 42.1744
26.31 41.2595
26.4933 41.435
26.6767 42.5764
26.8601 41.7928
27.0437 39.9435
27.2272 39.3225
27.4109 39.0173
27.5946 39.0946
27.7784 38.8549
27.9623 38.9625
28.1462 39.9105
28.3304 38.3415
28.5145 36.7558
28.6987 36.1964
28.8829 35.8448
29.0673 35.4256
29.2517 34.8086
29.4361 34.5616
29.6207 33.9381
29.8053 33.523
29.99 33.0975
30.1748 32.9265
30.3597 32.9737
30.5447 32.8021
30.7297 32.6469
30.915 32.3662
31.1002 31.7854
31.2855 31.4216
31.4708 31.2782
31.6563 31.106
31.8418 30.6918
32.0275 30.5975
32.2132 30.0994
32.399 29.4388
32.5848 29.03
32.7708 28.6968
32.9569 28.5797
33.143 28.3165
33.3293 28.0483
33.5158 27.6367
33.7022 27.0669
33.8887 26.7373
34.0753 26.4947
34.262 26.0289
34.4488 25.7359
34.6357 25.4383
34.8227 25.1064
35.0098 24.9121
35.1969 24.6773
35.3842 24.337
35.5716 24.3164
35.759 23.9934
35.9468 23.5538
36.1345 23.3049
36.3222 23.0762
36.5101 22.7479
36.6981 22.5397
36.8861 22.2375
37.0743 21.9375
37.2626 21.5862
37.451 21.3414
37.6395 21.2127
37.8281 20.8074
38.0168 20.5298
38.2056 20.3163
38.3945 20.0886
38.5837 19.779
38.7728 19.4775
38.9621 19.3706
39.1514 19.0732
39.3409 18.7667
39.5304 18.5975
39.7201 18.3768
39.9099 18.2246
40.0999 17.9425
40.2899 17.6423
40.48 17.418
40.6703 17.1683
40.8607 17.0446
41.0512 16.7712
41.242 16.5454
41.4327 16.3392
41.6236 16.0751
41.8146 15.9433
42.0057 15.7116
42.1969 15.5092
42.3882 15.3459
42.5797 15.0868
42.7713 14.8844
42.963 14.661
43.1549 14.4861
43.3468 14.2726
43.5389 14.0161
43.7312 13.8456
43.9237 13.6519
44.1162 13.4331
44.3088 13.3497
44.5016 13.1482
44.6945 12.9228
44.8875 12.7103
45.0806 12.5688
45.2739 12.4041
45.4673 12.2433
45.6609 12.0982
45.8546 11.866
46.0484 11.6976
46.2424 11.5344
46.4365 11.372
46.631 11.1967
46.8254 11.0323
47.0199 10.8647
47.2146 10.768
47.4095 10.5451
47.6044 10.4421
47.7996 10.2482
47.9948 10.0702
48.1902 9.92624
48.3858 9.87116
48.5815 9.67565
48.7774 9.52777
48.9734 9.41983
49.1696 9.29811
49.3661 9.14298
49.5626 8.95355
49.7592 8.84179
49.956 8.71066
50.153 8.60726
50.3501 8.45866
50.5474 8.34323
50.7448 8.17782
50.9424 8.05261
51.1402 7.96033
51.3381 7.81242
51.5362 7.70069
51.7344 7.54092
51.9328 7.42284
52.1316 7.30709
52.3304 7.20012
52.5293 7.10392
52.7284 6.91365
52.9276 6.85696
53.1271 6.78267
53.3267 6.56996
53.5265 6.52164
53.7264 6.3655
53.9266 6.22631
54.1269 6.11078
54.3274 5.98515
54.528 5.89191
54.7289 5.73605
54.9301 5.50371
55.1314 5.3462
55.3328 5.14973
55.5344 4.99635
55.7361 4.88794