Folder: NiFe_MOF_catalyst_paper/XRD (part 196)

File: Ni3Fe_FD1057.xy
TT I
1.27165 7.16245
1.45013 5.74314
1.62863 4.40948
1.80712 4.18733
1.98562 4.01791
2.16411 4.44641
2.34263 5.63588
2.52115 7.37014
2.69965 8.78977
2.87818 8.78344
3.05672 10.3859
3.23527 14.9738
3.4138 18.2228
3.59237 21.0338
3.77094 24.6035
3.9495 28.374
4.12809 32.5042
4.30669 55.9922
4.4853 46.2677
4.6639 52.5643
4.84253 64.2197
5.02118 83.3453
5.19981 233.169
5.37848 210.796
5.55716 97.4916
5.73586 87.9931
5.91455 89.0199
6.09328 4520.7
6.27201 76.0775
6.45075 63.9404
6.62952 57.8616
6.8083 54.5369
6.98711 52.5142
7.16591 51.7772
7.34475 56.3616
7.5236 58.8696
7.70247 52.9268
7.88135 54.7666
8.06026 58.6108
8.23919 65.5322
8.41812 78.0915
8.59709 1093.85
8.77609 95.1404
8.9551 82.7264
9.13412 79.0293
9.31318 88.8742
9.49226 81.3771
9.67134 86.2465
9.85047 94.2339
10.0296 351.598
10.2088 437.302
10.388 98.1025
10.5672 509.843
10.7465 86.2419
10.9257 73.8234
11.105 68.3931
11.2844 65.2892
11.4637 62.0422
11.6431 60.598
11.8225 59.8139
12.002 66.3319
12.1814 145.829
12.3609 64.5957
12.5405 61.4442
12.72 63.953
12.8996 67.9773
13.0792 76.6011
13.2589 229.428
13.4386 127.092
13.6183 237.869
13.7981 99.899
13.9779 73.6362
14.1577 75.341
14.3376 67.2763
14.5175 66.4234
14.6974 67.3022
14.8774 110.257
15.0574 160.104
15.2374 66.5714
15.4175 64.1451
15.5976 63.3456
15.7778 94.7694
15.958 168.687
16.1382 59.957
16.3185 55.6496
16.4988 53.3725
16.6792 52.5904
16.8596 52.9163
17.04 53.9422
17.2205 64.896
17.401 71.9194
17.5815 57.409
17.7622 59.8618
17.9428 73.4757
18.1237 142.474
18.3044 88.9527
18.4852 78.8603
18.666 58.9954
18.8469 56.4759
19.0278 54.9287
19.2088 58.2925
19.3898 76.0953
19.5709 52.9648
19.752 51.8485
19.9332 55.129
20.1144 70.3772
20.2957 63.7225
20.477 52.8411
20.6586 48.4652
20.84 47.882
21.0215 47.3439
21.203 49.6244
21.3846 47.9353
21.5662 47.7053
21.7479 51.9557
21.9297 65.3618
22.1115 55.7925
22.2933 49.1264
22.4753 47.5007
22.6572 47.7312
22.8393 51.2491
23.0214 57.4425
23.2037 47.9858
23.3859 49.2807
23.5682 57.1542
23.7505 48.2531
23.9329 44.2636
24.1154 43.1891
24.2979 42.4459
24.4805 42.0651
24.6631 42.0203
24.8458 41.1975
25.0286 42.0056
25.2114 44.1226
25.3943 44.3845
25.5773 40.1209
25.7605 39.5724
25.9436 40.2542
26.1268 41.2449
26.31 39.3483
26.4933 40.1551
26.6767 41.9549
26.8601 40.1596
27.0437 38.3971
27.2272 37.9374
27.4109 37.8019
27.5946 37.9658
27.7784 37.417
27.9623 37.9579
28.1462 38.8348
28.3304 36.8351
28.5145 35.3186
28.6987 35.1402
28.8829 34.9529
29.0673 34.1675
29.2517 33.8323
29.4361 33.636
29.6207 32.6317
29.8053 32.3245
29.99 31.9961
30.1748 32.0639
30.3597 31.7414
30.5447 31.7308
30.7297 31.7981
30.915 31.3246
31.1002 30.5952
31.2855 30.4218
31.4708 30.3063
31.6563 29.9403
31.8418 29.6414
32.0275 29.6102
32.2132 29.0451
32.399 28.4401
32.5848 28.0558
32.7708 27.7832
32.9569 27.5977
33.143 27.4242
33.3293 27.1035
33.5158 26.6644
33.7022 26.1471
33.8887 25.8454
34.0753 25.6134
34.262 25.2791
34.4488 24.8713
34.6357 24.6417
34.8227 24.2753
35.0098 24.174
35.1969 23.7977
35.3842 23.6913
35.5716 23.4812
35.759 23.1825
35.9468 22.837
36.1345 22.6082
36.3222 22.3627
36.5101 22.1441
36.6981 21.786
36.8861 21.5145
37.0743 21.204
37.2626 20.9705
37.451 20.7448
37.6395 20.5415
37.8281 20.2301
38.0168 19.8932
38.2056 19.704
38.3945 19.3052
38.5837 19.1841
38.7728 18.9415
38.9621 18.7033
39.1514 18.405
39.3409 18.1881
39.5304 17.9483
39.7201 17.8147
39.9099 17.5866
40.0999 17.3138
40.2899 17.1175
40.48 16.9017
40.6703 16.6533
40.8607 16.4788
41.0512 16.2467
41.242 16.022
41.4327 15.7849
41.6236 15.5786
41.8146 15.4473
42.0057 15.2471
42.1969 15.0236
42.3882 14.8103
42.5797 14.5815
42.7713 14.3506
42.963 14.1889
43.1549 14.0017
43.3468 13.8367
43.5389 13.6116
43.7312 13.4642
43.9237 13.2468
44.1162 13.0639
44.3088 12.8801
44.5016 12.7313
44.6945 12.5477
44.8875 12.3996
45.0806 12.1677
45.2739 12.0185
45.4673 11.8387
45.6609 11.6656
45.8546 11.5178
46.0484 11.396
46.2424 11.1654
46.4365 11.042
46.631 10.8591
46.8254 10.7026
47.0199 10.5315
47.2146 10.4011
47.4095 10.2523
47.6044 10.1025
47.7996 9.94191
47.9948 9.78955
48.1902 9.65691
48.3858 9.48721
48.5815 9.39875
48.7774 9.23964
48.9734 9.09636
49.1696 8.96019
49.3661 8.81886
49.5626 8.64749
49.7592 8.5615
49.956 8.42142
50.153 8.33142
50.3501 8.19235
50.5474 8.09438
50.7448 7.91047
50.9424 7.81169
51.1402 7.70399
51.3381 7.58036
51.5362 7.42839
51.7344 7.2857
51.9328 7.19064
52.1316 7.04443
52.3304 6.9565
52.5293 6.83653
52.7284 6.75238
52.9276 6.60097
53.1271 6.53394
53.3267 6.40287
53.5265 6.31956
53.7264 6.16572
53.9266 6.1062
54.1269 5.99822
54.3274 5.85472
54.528 5.76684
54.7289 5.56343
54.9301 5.41258
55.1314 5.27342
55.3328 5.12143
55.5344 4.92081
55.7361 4.77265

File: Ni3Fe_FD1058.xy
TT I
1.27165 6.92717
1.45013 5.71354
1.62863 4.7344
1.80712 4.05191
1.98562 4.45028
2.16411 4.27382
2.34263 5.18841
2.52115 6.93713
2.69965 8.99709
2.87818 8.90301
3.05672 10.7636
3.23527 14.8977
3.4138 18.3372
3.59237 21.4359
3.77094 24.7022
3.9495 28.3148
4.12809 32.5178
4.30669 56.1068
4.4853 46.2796
4.6639 52.5038
4.84253 64.2108
5.02118 82.881
5.19981 232.67
5.37848 209.785
5.55716 97.4854
5.73586 87.9585
5.91455 89.0955
6.09328 4546.63
6.27201 75.7627
6.45075 63.65
6.62952 58.115
6.8083 54.8645
6.98711 52.7719
7.16591 51.5408
7.34475 55.786
7.5236 58.6255
7.70247 53.1599
7.88135 54.8248
8.06026 59.0451
8.23919 65.5017
8.41812 78.0406
8.59709 1096.01
8.77609 94.889
8.9551 82.4094
9.13412 79.2343
9.31318 89.5001
9.49226 80.9937
9.67134 86.4279
9.85047 93.9835
10.0296 350.918
10.2088 439.187
10.388 97.6708
10.5672 506.237
10.7465 86.5518
10.9257 73.4217
11.105 68.1279
11.2844 65.1389
11.4637 61.9094
11.6431 60.6448
11.8225 59.5873
12.002 66.5403
12.1814 146.302
12.3609 64.5126
12.5405 61.46
12.72 63.9596
12.8996 68.0242
13.0792 76.784
13.2589 229.247
13.4386 127.639
13.6183 237.815
13.7981 100.215
13.9779 73.5266
14.1577 75.1973
14.3376 67.3684
14.5175 66.5949
14.6974 67.5024
14.8774 110.169
15.0574 160.25
15.2374 66.5136
15.4175 64.1356
15.5976 63.485
15.7778 94.8602
15.958 168.862
16.1382 59.9832
16.3185 55.6165
16.4988 53.3242
16.6792 52.5423
16.8596 53.0435
17.04 53.8449
17.2205 64.6929
17.401 72.2864
17.5815 57.463
17.7622 60.137
17.9428 73.5155
18.1237 142.327
18.3044 88.801
18.4852 79.0545
18.666 58.9437
18.8469 56.2742
19.0278 55.0121
19.2088 58.1242
19.3898 76.2279
19.5709 53.0912
19.752 51.7909
19.9332 55.3333
20.1144 70.5537
20.2957 63.4821
20.477 52.9237
20.6586 48.3546
20.84 47.9187
21.0215 47.4784
21.203 49.7465
21.3846 48.0242
21.5662 47.7057
21.7479 51.8476
21.9297 65.4401
22.1115 56.0099
22.2933 49.2075
22.4753 47.6318
22.6572 47.6804
22.8393 51.3356
23.0214 57.5185
23.2037 47.8015
23.3859 49.4007
23.5682 57.3792
23.7505 48.3326
23.9329 44.2501
24.1154 43.1792
24.2979 42.5375
24.4805 42.0176
24.6631 42.0542
24.8458 41.3639
25.0286 42.035
25.2114 44.1487
25.3943 44.3276
25.5773 40.1626
25.7605 39.5742
25.9436 40.0609
26.1268 41.3769
26.31 39.4171
26.4933 40.0107
26.6767 41.8099
26.8601 40.0505
27.0437 38.2865
27.2272 37.8749
27.4109 37.7513
27.5946 38.0407
27.7784 37.4238
27.9623 38.0756
28.1462 38.8585
28.3304 36.8938
28.5145 35.4298
28.6987 35.1328
28.8829 34.9591
29.0673 34.2338
29.2517 33.8159
29.4361 33.7994
29.6207 32.6193
29.8053 32.2729
29.99 32.037
30.1748 31.8757
30.3597 31.8091
30.5447 31.7167
30.7297 31.9536
30.915 31.2873
31.1002 30.676
31.2855 30.4687
31.4708 30.4002
31.6563 29.9388
31.8418 29.733
32.0275 29.5751
32.2132 28.9789
32.399 28.5315
32.5848 28.1898
32.7708 27.743
32.9569 27.5849
33.143 27.4506
33.3293 27.056
33.5158 26.6959
33.7022 26.1652
33.8887 25.9021
34.0753 25.6255
34.262 25.2382
34.4488 24.8604
34.6357 24.6417
34.8227 24.3993
35.0098 24.0858
35.1969 23.8815
35.3842 23.6691
35.5716 23.4668
35.759 23.1994
35.9468 22.8209
36.1345 22.5949
36.3222 22.306
36.5101 22.1755
36.6981 21.8206
36.8861 21.4982
37.0743 21.2394
37.2626 20.9671
37.451 20.6966
37.6395 20.5308
37.8281 20.1914
38.0168 19.9624
38.2056 19.6309
38.3945 19.4192
38.5837 19.1687
38.7728 18.9463
38.9621 18.6405
39.1514 18.4593
39.3409 18.2586
39.5304 18.0196
39.7201 17.8348
39.9099 17.5966
40.0999 17.3719
40.2899 17.1215
40.48 16.9132
40.6703 16.7207
40.8607 16.5496
41.0512 16.307
41.242 16.0049
41.4327 15.8072
41.6236 15.6369
41.8146 15.4194
42.0057 15.1998
42.1969 14.9597
42.3882 14.8207
42.5797 14.6126
42.7713 14.439
42.963 14.2336
43.1549 14.0191
43.3468 13.7909
43.5389 13.6428
43.7312 13.4221
43.9237 13.2642
44.1162 13.0818
44.3088 12.9084
44.5016 12.6971
44.6945 12.523
44.8875 12.3244
45.0806 12.1963
45.2739 12.0261
45.4673 11.868
45.6609 11.6922
45.8546 11.5402
46.0484 11.3561
46.2424 11.1527
46.4365 11.0578
46.631 10.8904
46.8254 10.6945
47.0199 10.5427
47.2146 10.3837
47.4095 10.2407
47.6044 10.0656
47.7996 9.92077
47.9948 9.81026
48.1902 9.67519
48.3858 9.5573
48.5815 9.36969
48.7774 9.24008
48.9734 9.13643
49.1696 8.95924
49.3661 8.79795
49.5626 8.67327
49.7592 8.55246
49.956 8.45616
50.153 8.34146
50.3501 8.17837
50.5474 8.04076
50.7448 7.93826
50.9424 7.86464
51.1402 7.71923
51.3381 7.57792
51.5362 7.44114
51.7344 7.30248
51.9328 7.19401
52.1316 7.06454
52.3304 6.98243
52.5293 6.83178
52.7284 6.75503
52.9276 6.6158
53.1271 6.51538
53.3267 6.41469
53.5265 6.27899
53.7264 6.21518
53.9266 6.08109
54.1269 5.97635
54.3274 5.86937
54.528 5.76387
54.7289 5.5557
54.9301 5.46756
55.1314 5.30118
55.3328 5.0657
55.5344 4.87785
55.7361 4.76536

File: Ni3Fe_FD1059.xy
TT I
1.27165 7.27156
1.45013 6.3025
1.62863 4.47257
1.80712 4.56343
1.98562 3.55139
2.16411 4.20562
2.34263 5.02861
2.52115 7.33792
2.69965 8.04233
2.87818 8.89785
3.05672 10.9005
3.23527 14.3871
3.4138 18.3199
3.59237 21.1501
3.77094 24.7397
3.9495 28.4673
4.12809 32.5149
4.30669 56.7654
4.4853 46.635
4.6639 52.5272
4.84253 64.2379
5.02118 83.0125
5.19981 229.821
5.37848 210.556
5.55716 97.1659
5.73586 88.0812
5.91455 88.917
6.09328 4564.17
6.27201 75.8291
6.45075 63.7403
6.62952 58.0329
6.8083 54.2871
6.98711 52.6819
7.16591 51.3995
7.34475 56.0118
7.5236 58.6339
7.70247 53.2187
7.88135 54.611
8.06026 58.9027
8.23919 65.6097
8.41812 77.936
8.59709 1090.37
8.77609 94.548
8.9551 82.7268
9.13412 78.9201
9.31318 89.2311
9.49226 80.8448
9.67134 86.6114
9.85047 94.0454
10.0296 348.263
10.2088 449.402
10.388 97.8814
10.5672 508.083
10.7465 85.6624
10.9257 73.7828
11.105 68.2062
11.2844 64.8095
11.4637 61.7946
11.6431 60.9337
11.8225 59.5829
12.002 66.2249
12.1814 146.069
12.3609 64.8234
12.5405 61.4158
12.72 63.8268
12.8996 67.6762
13.0792 76.7275
13.2589 228.519
13.4386 128.306
13.6183 235.92
13.7981 100.899
13.9779 73.7263
14.1577 74.9211
14.3376 67.4831
14.5175 66.2787
14.6974 67.262
14.8774 110.06
15.0574 160.742
15.2374 66.6253
15.4175 64.0705
15.5976 63.4677
15.7778 94.7062
15.958 169.368
16.1382 59.8366
16.3185 55.9502
16.4988 53.5493
16.6792 52.5182
16.8596 52.9862
17.04 53.9056
17.2205 64.8133
17.401 72.3819
17.5815 57.1651
17.7622 59.8495
17.9428 73.3636
18.1237 142.818
18.3044 88.7981
18.4852 79.052
18.666 58.8709
18.8469 56.436
19.0278 55.0393
19.2088 58.1231
19.3898 76.2598
19.5709 53.0841
19.752 51.8707
19.9332 55.2387
20.1144 70.5254
20.2957 63.532
20.477 52.9701
20.6586 48.4554
20.84 47.8548
21.0215 47.4731
21.203 49.5857
21.3846 48.0633
21.5662 47.6179
21.7479 51.7015
21.9297 65.3655
22.1115 55.8958
22.2933 49.1022
22.4753 47.691
22.6572 47.7253
22.8393 51.0866
23.0214 57.4869
23.2037 47.9472
23.3859 49.4523
23.5682 57.2153
23.7505 48.3513
23.9329 44.3422
24.1154 43.0778
24.2979 42.4159
24.4805 42.0039
24.6631 42.0121
24.8458 41.2964
25.0286 41.9906
25.2114 44.292
25.3943 44.3731
25.5773 40.1451
25.7605 39.6565
25.9436 40.1877
26.1268 41.186
26.31 39.4491
26.4933 40.0014
26.6767 41.9198
26.8601 40.2656
27.0437 38.2706
27.2272 37.9857
27.4109 37.7724
27.5946 37.9802
27.7784 37.4541
27.9623 37.9684
28.1462 38.7163
28.3304 36.8321
28.5145 35.4393
28.6987 35.0743
28.8829 34.8426
29.0673 34.1391
29.2517 33.8094
29.4361 33.6602
29.6207 32.6037
29.8053 32.3163
29.99 32.111
30.1748 31.8901
30.3597 31.7522
30.5447 31.698
30.7297 31.8267
30.915 31.3259
31.1002 30.6306
31.2855 30.4451
31.4708 30.4424
31.6563 29.9928
31.8418 29.8106
32.0275 29.5489
32.2132 28.9896
32.399 28.5438
32.5848 28.0094
32.7708 27.6582
32.9569 27.7006
33.143 27.4222
33.3293 27.0234
33.5158 26.5547
33.7022 26.1704
33.8887 25.9275
34.0753 25.6562
34.262 25.3188
34.4488 24.9279
34.6357 24.6038
34.8227 24.4171
35.0098 24.0483
35.1969 23.8146
35.3842 23.6801
35.5716 23.5538
35.759 23.0574
35.9468 22.8133
36.1345 22.5773
36.3222 22.3568
36.5101 22.1289
36.6981 21.8809
36.8861 21.4667
37.0743 21.1604
37.2626 20.9442
37.451 20.6953
37.6395 20.5188
37.8281 20.1685
38.0168 19.9054
38.2056 19.6882
38.3945 19.4003
38.5837 19.1677
38.7728 18.9456
38.9621 18.6528
39.1514 18.4
39.3409 18.1721
39.5304 18.0198
39.7201 17.7788
39.9099 17.5424
40.0999 17.338
40.2899 17.1176
40.48 16.8353
40.6703 16.6949
40.8607 16.4537
41.0512 16.2773
41.242 15.9979
41.4327 15.8052
41.6236 15.6195
41.8146 15.4528
42.0057 15.2569
42.1969 14.9688
42.3882 14.846
42.5797 14.5672
42.7713 14.4456
42.963 14.1979
43.1549 14.0134
43.3468 13.8153
43.5389 13.6045
43.7312 13.4772
43.9237 13.2393
44.1162 13.0828
44.3088 12.9236
44.5016 12.7131
44.6945 12.5282
44.8875 12.3863
45.0806 12.1735
45.2739 12.0444
45.4673 11.8741
45.6609 11.6897
45.8546 11.5038
46.0484 11.3913
46.2424 11.1969
46.4365 11.0418
46.631 10.8681
46.8254 10.6644
47.0199 10.5612
47.2146 10.4285
47.4095 10.2182
47.6044 10.0991
47.7996 9.94785
47.9948 9.79424
48.1902 9.65977
48.3858 9.48978
48.5815 9.40903
48.7774 9.2665
48.9734 9.09676
49.1696 8.95316
49.3661 8.83185
49.5626 8.68574
49.7592 8.56156
49.956 8.46158
50.153 8.31987
50.3501 8.15603
50.5474 8.07681
50.7448 7.93315
50.9424 7.80615
51.1402 7.69263
51.3381 7.58195
51.5362 7.43756
51.7344 7.36257
51.9328 7.18393
52.1316 7.05523
52.3304 6.92856
52.5293 6.83286
52.7284 6.77489
52.9276 6.62534
53.1271 6.58095
53.3267 6.41362
53.5265 6.28826
53.7264 6.19823
53.9266 6.07727
54.1269 5.97639
54.3274 5.82835
54.528 5.72208
54.7289 5.53188
54.9301 5.45207
55.1314 5.30199
55.3328 5.11671
55.5344 4.92816
55.7361 4.72964

File: Ni3Fe_FD1060.xy
TT I
1.27165 7.16279
1.45013 5.66884
1.62863 4.85145
1.80712 4.71642
1.98562 4.0693
2.16411 4.37304
2.34263 5.07736
2.52115 7.32916
2.69965 9.03366
2.87818 8.64477
3.05672 11.0984
3.23527 14.4877
3.4138 17.7218
3.59237 21.2186
3.77094 24.7075
3.9495 27.9078
4.12809 32.1516
4.30669 56.9385
4.4853 46.0657
4.6639 52.848
4.84253 64.0791
5.02118 83.0027
5.19981 231.469
5.37848 210.949
5.55716 97.4853
5.73586 87.8429
5.91455 89.1839
6.09328 4551.41
6.27201 75.8978
6.45075 63.7757
6.62952 58.1723
6.8083 54.7858
6.98711 52.5648
7.16591 51.6056
7.34475 56.0257
7.5236 58.6643
7.70247 53.3785
7.88135 54.9621
8.06026 59.0421
8.23919 65.7476
8.41812 77.9399
8.59709 1099.6
8.77609 95.0953
8.9551 82.5855
9.13412 79.0289
9.31318 89.0865
9.49226 81.052
9.67134 86.531
9.85047 94.0534
10.0296 351.0
10.2088 443.421
10.388 97.7971
10.5672 509.519
10.7465 86.4481
10.9257 73.8065
11.105 68.4075
11.2844 64.9297
11.4637 62.079
11.6431 60.9143
11.8225 59.806
12.002 66.5442
12.1814 146.468
12.3609 65.0504
12.5405 61.6432
12.72 64.3055
12.8996 67.9375
13.0792 76.8455
13.2589 229.959
13.4386 127.67
13.6183 237.995
13.7981 100.551
13.9779 73.5382
14.1577 75.2133
14.3376 67.348
14.5175 66.695
14.6974 67.6932
14.8774 110.441
15.0574 161.004
15.2374 66.5878
15.4175 64.1435
15.5976 63.529
15.7778 94.9884
15.958 169.493
16.1382 60.0273
16.3185 55.643
16.4988 53.5231
16.6792 52.4904
16.8596 52.9173
17.04 54.0643
17.2205 64.8742
17.401 72.2783
17.5815 57.3485
17.7622 60.2754
17.9428 73.6168
18.1237 142.991
18.3044 89.16
18.4852 79.3391
18.666 59.0713
18.8469 56.4646
19.0278 55.1925
19.2088 58.2461
19.3898 76.232
19.5709 52.9934
19.752 51.8104
19.9332 55.407
20.1144 70.5466
20.2957 63.7069
20.477 53.013
20.6586 48.4876
20.84 47.7685
21.0215 47.4085
21.203 49.8492
21.3846 48.0222
21.5662 47.7728
21.7479 51.8985
21.9297 65.4506
22.1115 56.0357
22.2933 49.2691
22.4753 47.6278
22.6572 47.7806
22.8393 51.3158
23.0214 57.5534
23.2037 47.8683
23.3859 49.4035
23.5682 57.4489
23.7505 48.1637
23.9329 44.4234
24.1154 43.0956
24.2979 42.5795
24.4805 42.0777
24.6631 42.0666
24.8458 41.3611
25.0286 42.1189
25.2114 44.2972
25.3943 44.3879
25.5773 40.3299
25.7605 39.5479
25.9436 40.1639
26.1268 41.4373
26.31 39.4782
26.4933 40.0936
26.6767 42.0133
26.8601 40.1044
27.0437 38.3406
27.2272 38.0007
27.4109 37.7516
27.5946 37.9385
27.7784 37.2787
27.9623 38.049
28.1462 38.6215
28.3304 36.8871
28.5145 35.4169
28.6987 35.0544
28.8829 34.9234
29.0673 34.1466
29.2517 33.8878
29.4361 33.7725
29.6207 32.7117
29.8053 32.3021
29.99 32.1263
30.1748 31.9689
30.3597 31.7168
30.5447 31.7568
30.7297 31.956
30.915 31.3101
31.1002 30.7131
31.2855 30.3942
31.4708 30.5102
31.6563 29.9986
31.8418 29.7874
32.0275 29.6302
32.2132 29.031
32.399 28.5371
32.5848 28.0207
32.7708 27.8546
32.9569 27.6457
33.143 27.5201
33.3293 27.1241
33.5158 26.7781
33.7022 26.2118
33.8887 26.0096
34.0753 25.674
34.262 25.2982
34.4488 25.0037
34.6357 24.6252
34.8227 24.2957
35.0098 24.2002
35.1969 23.8591
35.3842 23.7268
35.5716 23.4823
35.759 23.2301
35.9468 22.8356
36.1345 22.7003
36.3222 22.4056
36.5101 22.1721
36.6981 21.8905
36.8861 21.5352
37.0743 21.2763
37.2626 20.9791
37.451 20.6978
37.6395 20.6352
37.8281 20.1863
38.0168 19.9192
38.2056 19.6789
38.3945 19.4155
38.5837 19.2031
38.7728 18.9487
38.9621 18.6619
39.1514 18.4305
39.3409 18.2252
39.5304 17.9921
39.7201 17.8091
39.9099 17.6037
40.0999 17.3953
40.2899 17.0962
40.48 16.897
40.6703 16.6911
40.8607 16.5244
41.0512 16.3029
41.242 16.0718
41.4327 15.8726
41.6236 15.6259
41.8146 15.4805
42.0057 15.2125
42.1969 15.0148
42.3882 14.8145
42.5797 14.6404
42.7713 14.4683
42.963 14.2799
43.1549 14.0693
43.3468 13.8377
43.5389 13.6966
43.7312 13.4293
43.9237 13.2472
44.1162 13.094
44.3088 12.9581
44.5016 12.7326
44.6945 12.5715
44.8875 12.373
45.0806 12.2145
45.2739 12.0258
45.4673 11.8799
45.6609 11.7193
45.8546 11.5714
46.0484 11.4065
46.2424 11.2105
46.4365 11.0747
46.631 10.883
46.8254 10.7211
47.0199 10.5661
47.2146 10.4064
47.4095 10.2262
47.6044 10.0918
47.7996 9.97004
47.9948 9.78529
48.1902 9.66687
48.3858 9.52559
48.5815 9.40142
48.7774 9.30091
48.9734 9.12837
49.1696 8.96864
49.3661 8.87265
49.5626 8.68336
49.7592 8.59608
49.956 8.45989
50.153 8.31707
50.3501 8.20156
50.5474 8.07008
50.7448 7.94882
50.9424 7.82691
51.1402 7.70519
51.3381 7.54948
51.5362 7.43143
51.7344 7.33079
51.9328 7.2098
52.1316 7.08485
52.3304 6.96377
52.5293 6.86647
52.7284 6.72295
52.9276 6.66885
53.1271 6.50225
53.3267 6.40176
53.5265 6.27156
53.7264 6.20214
53.9266 6.10014
54.1269 5.97831
54.3274 5.89632
54.528 5.71871
54.7289 5.59515
54.9301 5.42297
55.1314 5.37485
55.3328 5.06483
55.5344 4.84582
55.7361 4.76075

File: Ni3Fe_FD1062.xy
TT I
1.27165 7.2753
1.45013 5.46383
1.62863 5.22072
1.80712 4.08121
1.98562 3.88595
2.16411 4.35389
2.34263 4.73003
2.52115 6.70217
2.69965 8.36559
2.87818 8.98245
3.05672 10.9741
3.23527 14.523
3.4138 17.9143
3.59237 21.243
3.77094 24.4453
3.9495 28.0191
4.12809 32.5735
4.30669 56.5435
4.4853 46.5123
4.6639 52.6565
4.84253 64.38
5.02118 83.089
5.19981 230.248
5.37848 210.328
5.55716 97.3689
5.73586 88.2709
5.91455 88.8422
6.09328 4576.39
6.27201 76.0075
6.45075 63.6071
6.62952 57.8028
6.8083 54.761
6.98711 52.5313
7.16591 51.4618
7.34475 55.8312
7.5236 58.0643
7.70247 53.1412
7.88135 54.6563
8.06026 58.8282
8.23919 65.8233
8.41812 77.6685
8.59709 1098.41
8.77609 95.12
8.9551 82.5676
9.13412 79.0532
9.31318 89.0878
9.49226 81.1546
9.67134 86.439
9.85047 94.1222
10.0296 349.316
10.2088 449.022
10.388 98.2765
10.5672 509.602
10.7465 86.5534
10.9257 73.671
11.105 68.2323
11.2844 65.0609
11.4637 62.0387
11.6431 60.5246
11.8225 59.8611
12.002 66.467
12.1814 146.79
12.3609 64.8978
12.5405 61.3656
12.72 64.0879
12.8996 67.8638
13.0792 76.7133
13.2589 229.294
13.4386 128.063
13.6183 237.535
13.7981 100.79
13.9779 73.5365
14.1577 75.0329
14.3376 67.3436
14.5175 66.6007
14.6974 67.5463
14.8774 110.387
15.0574 161.037
15.2374 66.7015
15.4175 64.2337
15.5976 63.6348
15.7778 95.0003
15.958 169.96
16.1382 60.1132
16.3185 55.8006
16.4988 53.6141
16.6792 52.6987
16.8596 52.9915
17.04 53.8027
17.2205 64.8285
17.401 72.5116
17.5815 57.3927
17.7622 59.9449
17.9428 73.5698
18.1237 142.839
18.3044 89.3645
18.4852 79.2121
18.666 59.053
18.8469 56.5881
19.0278 54.9687
19.2088 58.0605
19.3898 76.3478
19.5709 53.0776
19.752 51.7969
19.9332 55.1158
20.1144 70.7183
20.2957 63.6193
20.477 52.8329
20.6586 48.3559
20.84 47.8345
21.0215 47.5795
21.203 49.6341
21.3846 47.9415
21.5662 47.5399
21.7479 51.9856
21.9297 65.2868
22.1115 55.9817
22.2933 49.0851
22.4753 47.7067
22.6572 47.7111
22.8393 51.2752
23.0214 57.6123
23.2037 47.8714
23.3859 49.4257
23.5682 57.2855
23.7505 48.4014
23.9329 44.3838
24.1154 43.2313
24.2979 42.6128
24.4805 42.0739
24.6631 42.0486
24.8458 41.4026
25.0286 42.1219
25.2114 44.3178
25.3943 44.3788
25.5773 40.1157
25.7605 39.7137
25.9436 40.214
26.1268 41.4269
26.31 39.4781
26.4933 40.1044
26.6767 42.1619
26.8601 40.1267
27.0437 38.3058
27.2272 37.9784
27.4109 37.7408
27.5946 38.026
27.7784 37.3364
27.9623 38.0511
28.1462 38.7784
28.3304 36.8202
28.5145 35.4843
28.6987 35.1482
28.8829 34.8827
29.0673 34.1989
29.2517 33.7235
29.4361 33.7484
29.6207 32.571
29.8053 32.3401
29.99 32.1151
30.1748 31.9828
30.3597 31.782
30.5447 31.7631
30.7297 32.029
30.915 31.2679
31.1002 30.7556
31.2855 30.452
31.4708 30.5513
31.6563 30.001
31.8418 29.8967
32.0275 29.6281
32.2132 28.9496
32.399 28.429
32.5848 28.0862
32.7708 27.7277
32.9569 27.7334
33.143 27.4443
33.3293 27.0819
33.5158 26.714
33.7022 26.2131
33.8887 26.0546
34.0753 25.6524
34.262 25.3148
34.4488 24.9896
34.6357 24.6268
34.8227 24.3392
35.0098 24.1074
35.1969 23.8511
35.3842 23.6323
35.5716 23.5642
35.759 23.2167
35.9468 22.821
36.1345 22.5793
36.3222 22.4803
36.5101 22.2411
36.6981 21.8293
36.8861 21.4434
37.0743 21.2304
37.2626 21.0128
37.451 20.7008
37.6395 20.5328
37.8281 20.2
38.0168 19.9822
38.2056 19.6779
38.3945 19.3907
38.5837 19.1232
38.7728 18.9929
38.9621 18.6844
39.1514 18.3741
39.3409 18.2141
39.5304 17.9917
39.7201 17.8556
39.9099 17.6549
40.0999 17.3852
40.2899 17.1663
40.48 16.914
40.6703 16.7274
40.8607 16.5236
41.0512 16.2768
41.242 16.0458
41.4327 15.8412
41.6236 15.6319
41.8146 15.4289
42.0057 15.2497
42.1969 15.0365
42.3882 14.8641
42.5797 14.5413
42.7713 14.4507
42.963 14.2592
43.1549 14.0661
43.3468 13.8207
43.5389 13.6501
43.7312 13.456
43.9237 13.3012
44.1162 13.0811
44.3088 12.9039
44.5016 12.7272
44.6945 12.5829
44.8875 12.3728
45.0806 12.2101
45.2739 12.0374
45.4673 11.926
45.6609 11.6761
45.8546 11.5277
46.0484 11.3718
46.2424 11.1921
46.4365 11.0463
46.631 10.8628
46.8254 10.716
47.0199 10.5983
47.2146 10.4261
47.4095 10.2156
47.6044 10.0422
47.7996 9.93714
47.9948 9.8478
48.1902 9.6876
48.3858 9.50037
48.5815 9.38481
48.7774 9.25236
48.9734 9.11268
49.1696 9.01299
49.3661 8.84472
49.5626 8.71634
49.7592 8.59759
49.956 8.46998
50.153 8.32438
50.3501 8.16484
50.5474 8.07957
50.7448 7.91762
50.9424 7.78794
51.1402 7.70886
51.3381 7.60607
51.5362 7.46204
51.7344 7.35678
51.9328 7.19507
52.1316 7.08092
52.3304 6.97216
52.5293 6.86024
52.7284 6.7523
52.9276 6.6282
53.1271 6.55032
53.3267 6.42818
53.5265 6.28337
53.7264 6.1997
53.9266 6.07704
54.1269 5.95897
54.3274 5.87594
54.528 5.7208
54.7289 5.60576
54.9301 5.38858
55.1314 5.28961
55.3328 5.13306
55.5344 4.88226
55.7361 4.74304