Folder: NiFe_MOF_catalyst_paper/XRD (part 106)

File: Ni3Fe_FD0574.xy
TT I
1.27165 7.33322
1.45013 6.03753
1.62863 4.5503
1.80712 4.34455
1.98562 4.78664
2.16411 4.37123
2.34263 5.39163
2.52115 6.66214
2.69965 7.76386
2.87818 8.63597
3.05672 10.7524
3.23527 15.1854
3.4138 18.4821
3.59237 23.05
3.77094 26.0563
3.9495 29.6172
4.12809 34.1873
4.30669 131.078
4.4853 57.0509
4.6639 55.9463
4.84253 67.8971
5.02118 88.6932
5.19981 459.033
5.37848 196.779
5.55716 103.518
5.73586 93.7945
5.91455 97.3024
6.09328 4488.24
6.27201 82.2981
6.45075 68.4214
6.62952 62.5855
6.8083 58.8963
6.98711 55.6729
7.16591 55.4779
7.34475 74.3813
7.5236 54.6445
7.70247 56.6408
7.88135 58.037
8.06026 62.6432
8.23919 70.0509
8.41812 85.2775
8.59709 1226.84
8.77609 100.172
8.9551 89.773
9.13412 82.9239
9.31318 83.9526
9.49226 84.6969
9.67134 96.0897
9.85047 101.22
10.0296 380.137
10.2088 371.825
10.388 106.291
10.5672 523.354
10.7465 86.9754
10.9257 78.089
11.105 72.122
11.2844 69.6853
11.4637 64.9101
11.6431 63.8279
11.8225 62.8417
12.002 64.6513
12.1814 156.074
12.3609 68.2217
12.5405 65.0542
12.72 69.1737
12.8996 71.7326
13.0792 80.7966
13.2589 250.774
13.4386 121.973
13.6183 256.653
13.7981 96.6032
13.9779 76.48
14.1577 72.6099
14.3376 71.227
14.5175 69.333
14.6974 71.1574
14.8774 116.221
15.0574 145.311
15.2374 70.412
15.4175 66.7261
15.5976 66.3474
15.7778 99.2224
15.958 151.414
16.1382 62.1365
16.3185 58.4885
16.4988 55.824
16.6792 54.6499
16.8596 55.3735
17.04 56.4627
17.2205 67.8889
17.401 71.0546
17.5815 59.6423
17.7622 61.9156
17.9428 75.5851
18.1237 141.784
18.3044 92.0361
18.4852 76.8011
18.666 60.672
18.8469 58.3525
19.0278 57.3162
19.2088 60.3089
19.3898 76.3363
19.5709 54.5076
19.752 53.6791
19.9332 57.0521
20.1144 70.5078
20.2957 64.3821
20.477 53.5178
20.6586 50.0356
20.84 49.142
21.0215 48.9609
21.203 51.1492
21.3846 49.2808
21.5662 49.5104
21.7479 53.4386
21.9297 65.2697
22.1115 56.2588
22.2933 50.0283
22.4753 49.1289
22.6572 49.472
22.8393 52.784
23.0214 57.3976
23.2037 49.1257
23.3859 50.3694
23.5682 57.4099
23.7505 48.4653
23.9329 45.5991
24.1154 44.4006
24.2979 43.7541
24.4805 43.3749
24.6631 43.1871
24.8458 42.7147
25.0286 43.3351
25.2114 45.0704
25.3943 44.9394
25.5773 41.0996
25.7605 40.6707
25.9436 41.2266
26.1268 42.0842
26.31 40.3795
26.4933 41.1951
26.6767 42.535
26.8601 40.7268
27.0437 39.1045
27.2272 38.8589
27.4109 38.7681
27.5946 38.7174
27.7784 38.2837
27.9623 38.807
28.1462 39.0439
28.3304 37.381
28.5145 36.1504
28.6987 35.93
28.8829 35.6715
29.0673 34.9499
29.2517 34.669
29.4361 34.3202
29.6207 33.2922
29.8053 33.1384
29.99 32.8483
30.1748 32.6783
30.3597 32.5239
30.5447 32.3949
30.7297 32.3819
30.915 31.9206
31.1002 31.3437
31.2855 31.0984
31.4708 31.0787
31.6563 30.5876
31.8418 30.3615
32.0275 30.109
32.2132 29.5765
32.399 29.0691
32.5848 28.6901
32.7708 28.39
32.9569 28.2082
33.143 27.9148
33.3293 27.6054
33.5158 27.1891
33.7022 26.8284
33.8887 26.4584
34.0753 26.1388
34.262 25.751
34.4488 25.4527
34.6357 25.1948
34.8227 24.8043
35.0098 24.6756
35.1969 24.3128
35.3842 24.1006
35.5716 23.9557
35.759 23.6484
35.9468 23.2735
36.1345 23.0395
36.3222 22.8005
36.5101 22.566
36.6981 22.2365
36.8861 21.9594
37.0743 21.779
37.2626 21.3672
37.451 21.1076
37.6395 20.9996
37.8281 20.6109
38.0168 20.3582
38.2056 20.067
38.3945 19.8467
38.5837 19.5526
38.7728 19.3577
38.9621 19.0096
39.1514 18.7937
39.3409 18.5943
39.5304 18.3573
39.7201 18.1724
39.9099 18.0174
40.0999 17.694
40.2899 17.5192
40.48 17.2117
40.6703 17.0098
40.8607 16.8137
41.0512 16.6145
41.242 16.3701
41.4327 16.1249
41.6236 15.9551
41.8146 15.751
42.0057 15.6002
42.1969 15.306
42.3882 15.0943
42.5797 14.9031
42.7713 14.7261
42.963 14.5055
43.1549 14.3335
43.3468 14.1142
43.5389 13.9064
43.7312 13.7439
43.9237 13.5115
44.1162 13.3398
44.3088 13.1778
44.5016 12.9468
44.6945 12.7678
44.8875 12.6405
45.0806 12.4374
45.2739 12.2905
45.4673 12.1107
45.6609 11.9601
45.8546 11.7906
46.0484 11.6315
46.2424 11.5093
46.4365 11.276
46.631 11.0791
46.8254 10.9098
47.0199 10.7838
47.2146 10.6364
47.4095 10.462
47.6044 10.2926
47.7996 10.1499
47.9948 10.0073
48.1902 9.84644
48.3858 9.7266
48.5815 9.5692
48.7774 9.43396
48.9734 9.31271
49.1696 9.17952
49.3661 9.01335
49.5626 8.83474
49.7592 8.75431
49.956 8.61436
50.153 8.43809
50.3501 8.32887
50.5474 8.25531
50.7448 8.13186
50.9424 7.98748
51.1402 7.8462
51.3381 7.72422
51.5362 7.59289
51.7344 7.499
51.9328 7.36091
52.1316 7.20391
52.3304 7.09531
52.5293 7.02759
52.7284 6.90228
52.9276 6.7474
53.1271 6.68553
53.3267 6.47004
53.5265 6.44234
53.7264 6.30706
53.9266 6.20436
54.1269 6.12911
54.3274 6.00577
54.528 5.86311
54.7289 5.66042
54.9301 5.53797
55.1314 5.40029
55.3328 5.17162
55.5344 5.01368
55.7361 4.82521

File: Ni3Fe_FD0575.xy
TT I
1.27165 7.52232
1.45013 6.00913
1.62863 5.26971
1.80712 4.68688
1.98562 4.72493
2.16411 4.66484
2.34263 5.40036
2.52115 6.75754
2.69965 7.84755
2.87818 8.76108
3.05672 11.0649
3.23527 14.9764
3.4138 18.771
3.59237 23.0589
3.77094 25.8393
3.9495 29.6967
4.12809 34.4206
4.30669 130.227
4.4853 56.8817
4.6639 55.8791
4.84253 68.0683
5.02118 88.5263
5.19981 459.634
5.37848 197.23
5.55716 103.163
5.73586 93.5351
5.91455 96.9277
6.09328 4434.74
6.27201 82.7006
6.45075 68.2231
6.62952 62.6945
6.8083 58.9398
6.98711 55.7833
7.16591 55.2485
7.34475 74.4284
7.5236 54.5202
7.70247 56.8527
7.88135 58.0005
8.06026 62.8291
8.23919 69.6777
8.41812 85.5282
8.59709 1251.58
8.77609 100.033
8.9551 89.4372
9.13412 82.966
9.31318 84.0119
9.49226 85.3046
9.67134 96.0318
9.85047 101.249
10.0296 380.26
10.2088 374.916
10.388 106.304
10.5672 524.052
10.7465 87.1975
10.9257 78.0227
11.105 72.0048
11.2844 69.4496
11.4637 65.2235
11.6431 63.8843
11.8225 62.8832
12.002 64.6522
12.1814 155.282
12.3609 68.1599
12.5405 64.8977
12.72 68.9042
12.8996 71.5799
13.0792 80.748
13.2589 251.504
13.4386 122.157
13.6183 254.328
13.7981 96.3967
13.9779 76.2575
14.1577 72.2813
14.3376 71.0041
14.5175 69.3686
14.6974 71.1589
14.8774 115.749
15.0574 144.381
15.2374 70.4266
15.4175 66.9287
15.5976 66.3742
15.7778 99.1207
15.958 151.21
16.1382 62.21
16.3185 58.265
16.4988 55.6532
16.6792 54.7999
16.8596 55.3859
17.04 56.3369
17.2205 67.8036
17.401 70.7849
17.5815 59.6412
17.7622 61.618
17.9428 75.6671
18.1237 141.156
18.3044 91.9999
18.4852 76.8892
18.666 60.752
18.8469 58.3795
19.0278 57.1091
19.2088 59.9899
19.3898 76.3024
19.5709 54.4577
19.752 53.7221
19.9332 56.9716
20.1144 70.308
20.2957 64.3194
20.477 53.4861
20.6586 49.7864
20.84 49.1443
21.0215 48.9037
21.203 51.1376
21.3846 49.4028
21.5662 49.3769
21.7479 53.3329
21.9297 64.9674
22.1115 56.5357
22.2933 50.0629
22.4753 48.9172
22.6572 49.3236
22.8393 52.5006
23.0214 57.5073
23.2037 49.1795
23.3859 50.2779
23.5682 57.366
23.7505 48.4165
23.9329 45.4486
24.1154 44.4294
24.2979 43.7238
24.4805 43.2378
24.6631 43.1286
24.8458 42.4962
25.0286 43.2059
25.2114 44.8764
25.3943 44.7924
25.5773 41.1157
25.7605 40.6996
25.9436 41.1479
26.1268 42.0249
26.31 40.444
26.4933 41.0416
26.6767 42.5461
26.8601 40.6659
27.0437 39.2043
27.2272 38.843
27.4109 38.6058
27.5946 38.574
27.7784 38.0594
27.9623 38.7045
28.1462 38.958
28.3304 37.3094
28.5145 36.2151
28.6987 35.7872
28.8829 35.6632
29.0673 34.9893
29.2517 34.5935
29.4361 34.3409
29.6207 33.3457
29.8053 33.0715
29.99 32.7872
30.1748 32.7117
30.3597 32.4008
30.5447 32.3949
30.7297 32.4996
30.915 31.7955
31.1002 31.4067
31.2855 31.0815
31.4708 30.9849
31.6563 30.5631
31.8418 30.2004
32.0275 30.0634
32.2132 29.5397
32.399 29.1265
32.5848 28.7447
32.7708 28.3289
32.9569 28.1159
33.143 27.8456
33.3293 27.6422
33.5158 27.2186
33.7022 26.8337
33.8887 26.4934
34.0753 26.1965
34.262 25.8672
34.4488 25.5202
34.6357 25.1445
34.8227 24.8008
35.0098 24.6835
35.1969 24.382
35.3842 24.1745
35.5716 23.9137
35.759 23.5702
35.9468 23.2838
36.1345 23.0329
36.3222 22.7822
36.5101 22.5288
36.6981 22.2248
36.8861 21.9063
37.0743 21.6493
37.2626 21.4072
37.451 21.1312
37.6395 20.9297
37.8281 20.5679
38.0168 20.3233
38.2056 20.0091
38.3945 19.7948
38.5837 19.6258
38.7728 19.3715
38.9621 19.0993
39.1514 18.8357
39.3409 18.5335
39.5304 18.3342
39.7201 18.1339
39.9099 17.9588
40.0999 17.729
40.2899 17.485
40.48 17.202
40.6703 17.0269
40.8607 16.7965
41.0512 16.5974
41.242 16.3476
41.4327 16.087
41.6236 15.9092
41.8146 15.7845
42.0057 15.5155
42.1969 15.2769
42.3882 15.0782
42.5797 14.9137
42.7713 14.6916
42.963 14.4836
43.1549 14.2991
43.3468 14.0799
43.5389 13.8956
43.7312 13.704
43.9237 13.49
44.1162 13.3603
44.3088 13.1035
44.5016 12.9718
44.6945 12.7942
44.8875 12.666
45.0806 12.4176
45.2739 12.2559
45.4673 12.0631
45.6609 11.9099
45.8546 11.7938
46.0484 11.5868
46.2424 11.4069
46.4365 11.2598
46.631 11.0763
46.8254 10.9242
47.0199 10.7769
47.2146 10.6334
47.4095 10.4042
47.6044 10.3078
47.7996 10.1326
47.9948 9.98369
48.1902 9.87864
48.3858 9.74677
48.5815 9.54259
48.7774 9.45512
48.9734 9.29112
49.1696 9.17396
49.3661 8.99547
49.5626 8.86815
49.7592 8.74266
49.956 8.61897
50.153 8.49804
50.3501 8.33063
50.5474 8.22626
50.7448 8.07961
50.9424 7.9698
51.1402 7.83789
51.3381 7.7254
51.5362 7.6247
51.7344 7.45349
51.9328 7.30624
52.1316 7.25021
52.3304 7.10863
52.5293 6.96123
52.7284 6.89476
52.9276 6.74488
53.1271 6.65829
53.3267 6.51584
53.5265 6.41275
53.7264 6.32285
53.9266 6.23877
54.1269 6.08785
54.3274 5.98046
54.528 5.81813
54.7289 5.71703
54.9301 5.51369
55.1314 5.40765
55.3328 5.25981
55.5344 5.00547
55.7361 4.81843

File: Ni3Fe_FD0576.xy
TT I
1.27165 7.61167
1.45013 6.16736
1.62863 5.38839
1.80712 5.05985
1.98562 4.62106
2.16411 4.52004
2.34263 5.00426
2.52115 6.74918
2.69965 7.96367
2.87818 8.86212
3.05672 11.0723
3.23527 14.9716
3.4138 18.7571
3.59237 22.7755
3.77094 25.7901
3.9495 29.9706
4.12809 34.6761
4.30669 128.944
4.4853 57.0284
4.6639 55.5501
4.84253 68.0616
5.02118 88.2453
5.19981 460.595
5.37848 197.341
5.55716 103.091
5.73586 93.3977
5.91455 96.7087
6.09328 4431.77
6.27201 82.1958
6.45075 68.3258
6.62952 62.4363
6.8083 58.7037
6.98711 55.443
7.16591 55.667
7.34475 73.8776
7.5236 54.7177
7.70247 56.6182
7.88135 57.9085
8.06026 62.4923
8.23919 69.9732
8.41812 85.3211
8.59709 1253.84
8.77609 99.8086
8.9551 89.7372
9.13412 82.7404
9.31318 84.162
9.49226 85.1785
9.67134 96.0025
9.85047 101.275
10.0296 379.455
10.2088 374.108
10.388 106.663
10.5672 523.45
10.7465 87.1099
10.9257 78.1383
11.105 71.932
11.2844 69.3131
11.4637 64.8918
11.6431 64.0053
11.8225 62.9809
12.002 64.6063
12.1814 155.435
12.3609 68.1472
12.5405 64.5926
12.72 68.829
12.8996 71.7557
13.0792 80.6874
13.2589 251.483
13.4386 122.013
13.6183 254.114
13.7981 96.3541
13.9779 76.2166
14.1577 72.5533
14.3376 71.1871
14.5175 69.4966
14.6974 71.0118
14.8774 115.878
15.0574 144.22
15.2374 70.2926
15.4175 66.8488
15.5976 66.2856
15.7778 98.8376
15.958 151.781
16.1382 62.2566
16.3185 58.3661
16.4988 55.8463
16.6792 54.6556
16.8596 55.1876
17.04 56.3071
17.2205 67.7114
17.401 71.0319
17.5815 59.7152
17.7622 61.8142
17.9428 75.7238
18.1237 141.084
18.3044 91.9721
18.4852 76.8892
18.666 60.7459
18.8469 58.4954
19.0278 57.12
19.2088 60.1084
19.3898 76.0325
19.5709 54.4868
19.752 53.7155
19.9332 56.8936
20.1144 70.1746
20.2957 64.2812
20.477 53.6659
20.6586 49.816
20.84 49.0752
21.0215 48.9489
21.203 51.3133
21.3846 49.3501
21.5662 49.5593
21.7479 53.4592
21.9297 65.1209
22.1115 56.3183
22.2933 49.8745
22.4753 49.0811
22.6572 49.4513
22.8393 52.4801
23.0214 57.5764
23.2037 49.1796
23.3859 50.4294
23.5682 57.452
23.7505 48.3997
23.9329 45.5472
24.1154 44.303
24.2979 43.7416
24.4805 43.1791
24.6631 43.0786
24.8458 42.5881
25.0286 43.342
25.2114 45.0183
25.3943 44.8167
25.5773 41.2208
25.7605 40.9112
25.9436 41.1594
26.1268 41.8972
26.31 40.3355
26.4933 41.0446
26.6767 42.5519
26.8601 40.6914
27.0437 39.1132
27.2272 38.7037
27.4109 38.7095
27.5946 38.6823
27.7784 38.1924
27.9623 38.7556
28.1462 39.0701
28.3304 37.4121
28.5145 36.2138
28.6987 35.9018
28.8829 35.6905
29.0673 34.8768
29.2517 34.6827
29.4361 34.3421
29.6207 33.351
29.8053 33.1407
29.99 32.8184
30.1748 32.6382
30.3597 32.5351
30.5447 32.424
30.7297 32.4228
30.915 31.8954
31.1002 31.3512
31.2855 31.0824
31.4708 31.1251
31.6563 30.5422
31.8418 30.2963
32.0275 30.1165
32.2132 29.5594
32.399 29.1576
32.5848 28.7248
32.7708 28.312
32.9569 28.2171
33.143 28.0151
33.3293 27.556
33.5158 27.2286
33.7022 26.7718
33.8887 26.5069
34.0753 26.1354
34.262 25.8631
34.4488 25.5237
34.6357 25.0711
34.8227 24.829
35.0098 24.7087
35.1969 24.3422
35.3842 24.1654
35.5716 23.8252
35.759 23.6419
35.9468 23.269
36.1345 22.9562
36.3222 22.775
36.5101 22.55
36.6981 22.2655
36.8861 21.9908
37.0743 21.7032
37.2626 21.3722
37.451 21.1268
37.6395 20.9625
37.8281 20.6347
38.0168 20.3297
38.2056 20.0628
38.3945 19.7816
38.5837 19.4877
38.7728 19.3602
38.9621 19.0136
39.1514 18.8739
39.3409 18.5369
39.5304 18.3193
39.7201 18.1082
39.9099 17.8862
40.0999 17.7351
40.2899 17.4467
40.48 17.2224
40.6703 17.0246
40.8607 16.8088
41.0512 16.6134
41.242 16.3783
41.4327 16.1471
41.6236 15.9139
41.8146 15.7581
42.0057 15.5202
42.1969 15.3294
42.3882 15.1548
42.5797 14.9494
42.7713 14.7208
42.963 14.4986
43.1549 14.3182
43.3468 14.0606
43.5389 13.9342
43.7312 13.7258
43.9237 13.5307
44.1162 13.3386
44.3088 13.2015
44.5016 12.9522
44.6945 12.8171
44.8875 12.6121
45.0806 12.4382
45.2739 12.2712
45.4673 12.123
45.6609 11.9244
45.8546 11.773
46.0484 11.6124
46.2424 11.4638
46.4365 11.2575
46.631 11.065
46.8254 10.9487
47.0199 10.7792
47.2146 10.6255
47.4095 10.4457
47.6044 10.3247
47.7996 10.1581
47.9948 10.0086
48.1902 9.85896
48.3858 9.71513
48.5815 9.56444
48.7774 9.47064
48.9734 9.27847
49.1696 9.16548
49.3661 8.99935
49.5626 8.8439
49.7592 8.74375
49.956 8.61794
50.153 8.44456
50.3501 8.32483
50.5474 8.22579
50.7448 8.1114
50.9424 7.97932
51.1402 7.86358
51.3381 7.6952
51.5362 7.58188
51.7344 7.44124
51.9328 7.34207
52.1316 7.18375
52.3304 7.11578
52.5293 6.94428
52.7284 6.8621
52.9276 6.75025
53.1271 6.65873
53.3267 6.53302
53.5265 6.40626
53.7264 6.31118
53.9266 6.21111
54.1269 6.07294
54.3274 5.98361
54.528 5.80126
54.7289 5.64575
54.9301 5.48998
55.1314 5.39237
55.3328 5.12392
55.5344 4.98203
55.7361 4.83658

File: Ni3Fe_FD0578.xy
TT I
1.27165 7.75906
1.45013 5.91751
1.62863 5.30076
1.80712 5.34718
1.98562 4.50805
2.16411 4.80462
2.34263 5.2419
2.52115 7.05797
2.69965 8.29885
2.87818 8.11462
3.05672 10.9131
3.23527 14.5263
3.4138 18.9699
3.59237 23.2195
3.77094 26.595
3.9495 29.5532
4.12809 34.2416
4.30669 125.657
4.4853 56.804
4.6639 56.4646
4.84253 69.1218
5.02118 88.9475
5.19981 468.488
5.37848 198.04
5.55716 104.088
5.73586 93.6936
5.91455 97.2629
6.09328 4437.04
6.27201 82.582
6.45075 68.2399
6.62952 63.0315
6.8083 59.3257
6.98711 56.1398
7.16591 55.643
7.34475 72.9956
7.5236 54.7748
7.70247 56.8437
7.88135 58.1493
8.06026 62.945
8.23919 70.3363
8.41812 85.584
8.59709 1241.57
8.77609 99.3379
8.9551 89.6167
9.13412 82.9971
9.31318 84.2278
9.49226 85.386
9.67134 95.8955
9.85047 101.409
10.0296 382.752
10.2088 367.085
10.388 106.453
10.5672 522.018
10.7465 86.7692
10.9257 78.2981
11.105 71.9971
11.2844 69.3279
11.4637 64.9642
11.6431 64.1358
11.8225 63.107
12.002 64.9636
12.1814 156.388
12.3609 68.2337
12.5405 65.3559
12.72 68.8827
12.8996 71.558
13.0792 81.3514
13.2589 252.739
13.4386 121.368
13.6183 255.952
13.7981 96.4964
13.9779 76.2964
14.1577 72.4806
14.3376 71.1554
14.5175 69.3257
14.6974 71.2247
14.8774 116.592
15.0574 143.348
15.2374 70.419
15.4175 66.7417
15.5976 66.6438
15.7778 99.2507
15.958 149.998
16.1382 61.8381
16.3185 58.3623
16.4988 55.6533
16.6792 54.7832
16.8596 55.3832
17.04 56.8674
17.2205 68.1952
17.401 70.68
17.5815 59.6302
17.7622 61.8161
17.9428 75.8228
18.1237 141.912
18.3044 92.0643
18.4852 76.4274
18.666 60.7741
18.8469 58.5612
19.0278 57.2867
19.2088 60.0919
19.3898 76.0067
19.5709 54.4863
19.752 53.8352
19.9332 56.9734
20.1144 70.1128
20.2957 64.2242
20.477 53.4635
20.6586 49.9531
20.84 49.2357
21.0215 48.9442
21.203 51.2044
21.3846 49.2308
21.5662 49.2792
21.7479 53.3819
21.9297 65.0371
22.1115 56.2638
22.2933 50.167
22.4753 49.2339
22.6572 49.2978
22.8393 52.6095
23.0214 57.3247
23.2037 49.2229
23.3859 50.3422
23.5682 57.4164
23.7505 48.1916
23.9329 45.6117
24.1154 44.1077
24.2979 43.7459
24.4805 43.1487
24.6631 43.0946
24.8458 42.5217
25.0286 43.4292
25.2114 44.9783
25.3943 44.7154
25.5773 41.0294
25.7605 40.7849
25.9436 41.0992
26.1268 42.015
26.31 40.3398
26.4933 40.9355
26.6767 42.3961
26.8601 40.7475
27.0437 39.1552
27.2272 38.8347
27.4109 38.6107
27.5946 38.7676
27.7784 38.0662
27.9623 38.789
28.1462 39.058
28.3304 37.3712
28.5145 36.202
28.6987 35.7434
28.8829 35.6519
29.0673 34.8467
29.2517 34.5801
29.4361 34.4322
29.6207 33.2435
29.8053 33.0104
29.99 32.6815
30.1748 32.6558
30.3597 32.4236
30.5447 32.3816
30.7297 32.4391
30.915 31.8043
31.1002 31.2553
31.2855 31.1213
31.4708 31.0632
31.6563 30.5828
31.8418 30.3042
32.0275 30.095
32.2132 29.6132
32.399 29.0433
32.5848 28.5853
32.7708 28.2152
32.9569 28.1882
33.143 27.9606
33.3293 27.6106
33.5158 27.1649
33.7022 26.7302
33.8887 26.4958
34.0753 26.1146
34.262 25.8607
34.4488 25.4513
34.6357 25.1607
34.8227 24.8161
35.0098 24.6742
35.1969 24.3582
35.3842 24.1699
35.5716 23.9593
35.759 23.5748
35.9468 23.2846
36.1345 23.0842
36.3222 22.7993
36.5101 22.6178
36.6981 22.3052
36.8861 21.8789
37.0743 21.6515
37.2626 21.3732
37.451 21.1184
37.6395 20.9986
37.8281 20.6813
38.0168 20.3259
38.2056 20.0899
38.3945 19.8153
38.5837 19.6082
38.7728 19.299
38.9621 19.0497
39.1514 18.7779
39.3409 18.5218
39.5304 18.3189
39.7201 18.2156
39.9099 17.9553
40.0999 17.6933
40.2899 17.5056
40.48 17.2838
40.6703 17.0428
40.8607 16.8295
41.0512 16.5773
41.242 16.2992
41.4327 16.1283
41.6236 15.87
41.8146 15.7183
42.0057 15.4791
42.1969 15.2492
42.3882 15.1164
42.5797 14.9075
42.7713 14.6667
42.963 14.4662
43.1549 14.319
43.3468 14.096
43.5389 13.9115
43.7312 13.7299
43.9237 13.5339
44.1162 13.3441
44.3088 13.1692
44.5016 12.9521
44.6945 12.823
44.8875 12.5696
45.0806 12.4364
45.2739 12.2609
45.4673 12.0765
45.6609 11.8966
45.8546 11.7204
46.0484 11.6245
46.2424 11.4191
46.4365 11.2854
46.631 11.108
46.8254 10.9302
47.0199 10.7876
47.2146 10.6036
47.4095 10.4337
47.6044 10.2937
47.7996 10.1158
47.9948 9.99652
48.1902 9.85016
48.3858 9.69059
48.5815 9.59492
48.7774 9.44954
48.9734 9.29748
49.1696 9.16408
49.3661 8.99864
49.5626 8.85718
49.7592 8.75358
49.956 8.60639
50.153 8.48055
50.3501 8.33164
50.5474 8.22709
50.7448 8.1154
50.9424 7.95762
51.1402 7.85962
51.3381 7.69694
51.5362 7.59314
51.7344 7.43577
51.9328 7.31147
52.1316 7.20951
52.3304 7.10265
52.5293 6.95175
52.7284 6.85411
52.9276 6.76494
53.1271 6.62298
53.3267 6.52856
53.5265 6.42762
53.7264 6.2663
53.9266 6.18106
54.1269 6.04734
54.3274 5.99147
54.528 5.84223
54.7289 5.65811
54.9301 5.53346
55.1314 5.3724
55.3328 5.18901
55.5344 4.99856
55.7361 4.85036

File: Ni3Fe_FD0579.xy
TT I
1.27165 7.83005
1.45013 6.45153
1.62863 5.47164
1.80712 5.07195
1.98562 4.72054
2.16411 4.12515
2.34263 5.4066
2.52115 6.71244
2.69965 7.23832
2.87818 8.31712
3.05672 11.1122
3.23527 14.9206
3.4138 18.9181
3.59237 23.5219
3.77094 25.771
3.9495 29.8781
4.12809 34.5454
4.30669 122.876
4.4853 56.7921
4.6639 56.038
4.84253 68.3016
5.02118 88.7726
5.19981 469.836
5.37848 198.571
5.55716 103.595
5.73586 93.7113
5.91455 97.0001
6.09328 4440.08
6.27201 82.2161
6.45075 68.6459
6.62952 62.8537
6.8083 59.3121
6.98711 56.1065
7.16591 55.743
7.34475 72.8713
7.5236 54.7333
7.70247 56.439
7.88135 58.2133
8.06026 62.7198
8.23919 70.0966
8.41812 85.4176
8.59709 1237.6
8.77609 99.648
8.9551 89.6517
9.13412 83.3145
9.31318 84.0873
9.49226 85.4091
9.67134 96.0824
9.85047 101.663
10.0296 382.024
10.2088 368.657
10.388 106.53
10.5672 521.924
10.7465 87.0099
10.9257 78.493
11.105 71.994
11.2844 69.2086
11.4637 65.0588
11.6431 64.2525
11.8225 63.1623
12.002 64.9645
12.1814 156.145
12.3609 67.9376
12.5405 65.1169
12.72 68.9607
12.8996 71.9105
13.0792 81.2012
13.2589 253.027
13.4386 121.973
13.6183 256.327
13.7981 96.85
13.9779 76.4723
14.1577 72.6604
14.3376 70.8902
14.5175 69.3271
14.6974 71.2757
14.8774 116.295
15.0574 143.724
15.2374 70.5071
15.4175 66.6874
15.5976 66.7772
15.7778 99.3595
15.958 150.151
16.1382 62.0678
16.3185 58.5309
16.4988 55.9405
16.6792 55.0892
16.8596 55.2508
17.04 56.558
17.2205 68.0384
17.401 71.0938
17.5815 59.8194
17.7622 61.9841
17.9428 75.7782
18.1237 141.89
18.3044 92.2383
18.4852 76.7244
18.666 60.7535
18.8469 58.6198
19.0278 57.0923
19.2088 60.0671
19.3898 75.9399
19.5709 54.6877
19.752 53.8248
19.9332 56.9455
20.1144 70.1349
20.2957 64.2724
20.477 53.6425
20.6586 50.0006
20.84 49.2237
21.0215 49.0237
21.203 51.2237
21.3846 49.0001
21.5662 49.3707
21.7479 53.4869
21.9297 65.0132
22.1115 56.5169
22.2933 50.0291
22.4753 49.0454
22.6572 49.2939
22.8393 52.6189
23.0214 57.4797
23.2037 49.2751
23.3859 50.1264
23.5682 57.3251
23.7505 48.318
23.9329 45.4767
24.1154 44.4847
24.2979 43.7336
24.4805 43.1147
24.6631 43.1857
24.8458 42.6669
25.0286 43.247
25.2114 45.2011
25.3943 44.929
25.5773 41.2824
25.7605 40.7522
25.9436 41.2379
26.1268 41.9662
26.31 40.3704
26.4933 41.0623
26.6767 42.4515
26.8601 40.7376
27.0437 39.1164
27.2272 38.739
27.4109 38.7461
27.5946 38.5486
27.7784 38.1497
27.9623 38.842
28.1462 39.0325
28.3304 37.3495
28.5145 36.2491
28.6987 35.9261
28.8829 35.6113
29.0673 34.8586
29.2517 34.6826
29.4361 34.4764
29.6207 33.3647
29.8053 33.185
29.99 32.9058
30.1748 32.7072
30.3597 32.4003
30.5447 32.4001
30.7297 32.5566
30.915 31.8574
31.1002 31.2692
31.2855 31.0875
31.4708 31.0805
31.6563 30.4893
31.8418 30.389
32.0275 30.1365
32.2132 29.6853
32.399 29.1204
32.5848 28.6421
32.7708 28.4222
32.9569 28.1711
33.143 27.9831
33.3293 27.5798
33.5158 27.1691
33.7022 26.756
33.8887 26.4252
34.0753 26.1864
34.262 25.8757
34.4488 25.4261
34.6357 25.1038
34.8227 24.8266
35.0098 24.7279
35.1969 24.3
35.3842 24.2203
35.5716 23.9335
35.759 23.6155
35.9468 23.2469
36.1345 23.0345
36.3222 22.7956
36.5101 22.5505
36.6981 22.2979
36.8861 21.9016
37.0743 21.6941
37.2626 21.3436
37.451 21.0991
37.6395 20.8797
37.8281 20.6028
38.0168 20.324
38.2056 20.1405
38.3945 19.8145
38.5837 19.5535
38.7728 19.2877
38.9621 19.1001
39.1514 18.8217
39.3409 18.5927
39.5304 18.3407
39.7201 18.1656
39.9099 17.9702
40.0999 17.7236
40.2899 17.4574
40.48 17.1861
40.6703 17.0206
40.8607 16.8618
41.0512 16.5917
41.242 16.4018
41.4327 16.172
41.6236 15.9261
41.8146 15.7978
42.0057 15.5556
42.1969 15.3591
42.3882 15.1424
42.5797 14.8793
42.7713 14.7419
42.963 14.4849
43.1549 14.3201
43.3468 14.0899
43.5389 13.9125
43.7312 13.6931
43.9237 13.5611
44.1162 13.3505
44.3088 13.2016
44.5016 12.9866
44.6945 12.7892
44.8875 12.6644
45.0806 12.443
45.2739 12.2623
45.4673 12.0622
45.6609 11.9159
45.8546 11.7239
46.0484 11.6216
46.2424 11.4187
46.4365 11.2801
46.631 11.0873
46.8254 10.9158
47.0199 10.7695
47.2146 10.6378
47.4095 10.4279
47.6044 10.283
47.7996 10.149
47.9948 9.98612
48.1902 9.8341
48.3858 9.71151
48.5815 9.58161
48.7774 9.44784
48.9734 9.33062
49.1696 9.1794
49.3661 8.99213
49.5626 8.86181
49.7592 8.71368
49.956 8.65182
50.153 8.46271
50.3501 8.31522
50.5474 8.22211
50.7448 8.10731
50.9424 7.98477
51.1402 7.87922
51.3381 7.71055
51.5362 7.59238
51.7344 7.47276
51.9328 7.34056
52.1316 7.21069
52.3304 7.13455
52.5293 6.97837
52.7284 6.88389
52.9276 6.73366
53.1271 6.63251
53.3267 6.57344
53.5265 6.44151
53.7264 6.30223
53.9266 6.23364
54.1269 6.07127
54.3274 5.948
54.528 5.82632
54.7289 5.65682
54.9301 5.49668
55.1314 5.39118
55.3328 5.1565
55.5344 5.04284
55.7361 4.8435