Folder: NiFe_MOF_catalyst_paper/XRD (part 142)

File: Ni3Fe_FD0771.xy
TT I
1.27165 7.35517
1.45013 5.50896
1.62863 5.76739
1.80712 4.7849
1.98562 4.68651
2.16411 5.04135
2.34263 5.44353
2.52115 7.19175
2.69965 8.31527
2.87818 8.43947
3.05672 11.2335
3.23527 14.9424
3.4138 19.0929
3.59237 24.3221
3.77094 26.182
3.9495 29.9058
4.12809 34.9619
4.30669 284.124
4.4853 71.4981
4.6639 54.7613
4.84253 66.3081
5.02118 85.1053
5.19981 300.171
5.37848 188.759
5.55716 100.802
5.73586 90.9069
5.91455 91.5528
6.09328 4176.99
6.27201 82.9459
6.45075 66.9831
6.62952 62.7713
6.8083 58.7932
6.98711 55.8711
7.16591 55.5662
7.34475 105.844
7.5236 54.9428
7.70247 55.9256
7.88135 57.5146
8.06026 61.8008
8.23919 68.8101
8.41812 84.4663
8.59709 1075.71
8.77609 98.5623
8.9551 93.0054
9.13412 81.2141
9.31318 81.6246
9.49226 83.1819
9.67134 100.733
9.85047 98.2762
10.0296 296.579
10.2088 413.084
10.388 104.307
10.5672 507.91
10.7465 86.0761
10.9257 78.3834
11.105 71.4146
11.2844 71.0119
11.4637 64.6493
11.6431 63.2951
11.8225 61.8477
12.002 62.7179
12.1814 146.301
12.3609 72.3134
12.5405 64.066
12.72 70.9712
12.8996 70.3232
13.0792 77.42
13.2589 222.155
13.4386 128.093
13.6183 232.385
13.7981 99.0633
13.9779 74.8901
14.1577 71.9829
14.3376 71.8039
14.5175 68.135
14.6974 69.7764
14.8774 104.607
15.0574 153.401
15.2374 71.3526
15.4175 65.8695
15.5976 64.9819
15.7778 90.1298
15.958 161.728
16.1382 63.09
16.3185 58.3733
16.4988 55.2985
16.6792 54.0968
16.8596 54.9991
17.04 55.2636
17.2205 65.3313
17.401 71.1931
17.5815 58.5136
17.7622 60.7871
17.9428 71.3281
18.1237 139.051
18.3044 88.4797
18.4852 78.884
18.666 60.1437
18.8469 57.7326
19.0278 56.4997
19.2088 58.9385
19.3898 76.8225
19.5709 53.857
19.752 52.962
19.9332 55.4346
20.1144 69.4141
20.2957 63.0328
20.477 53.6921
20.6586 49.3834
20.84 48.4695
21.0215 48.2232
21.203 50.6131
21.3846 48.6223
21.5662 48.279
21.7479 51.5913
21.9297 64.2723
22.1115 55.6443
22.2933 49.5175
22.4753 48.675
22.6572 48.4414
22.8393 51.1585
23.0214 57.4739
23.2037 48.4714
23.3859 49.1073
23.5682 56.5279
23.7505 48.2179
23.9329 44.9956
24.1154 43.8248
24.2979 43.2616
24.4805 42.5753
24.6631 42.4492
24.8458 41.9594
25.0286 42.4327
25.2114 44.1977
25.3943 44.624
25.5773 40.6778
25.7605 40.1363
25.9436 40.5386
26.1268 41.3473
26.31 39.8303
26.4933 40.4063
26.6767 41.9022
26.8601 40.2357
27.0437 38.5445
27.2272 38.2387
27.4109 38.1181
27.5946 38.1172
27.7784 37.6592
27.9623 38.1663
28.1462 38.6409
28.3304 36.9552
28.5145 35.7781
28.6987 35.5542
28.8829 35.2664
29.0673 34.4602
29.2517 34.1567
29.4361 34.0506
29.6207 33.0141
29.8053 32.6646
29.99 32.397
30.1748 32.2848
30.3597 32.0699
30.5447 31.9578
30.7297 31.9187
30.915 31.4215
31.1002 30.9513
31.2855 30.7171
31.4708 30.6068
31.6563 30.144
31.8418 29.9841
32.0275 29.7968
32.2132 29.2159
32.399 28.7428
32.5848 28.3211
32.7708 27.9411
32.9569 27.9262
33.143 27.5506
33.3293 27.2479
33.5158 26.8509
33.7022 26.3887
33.8887 26.1527
34.0753 25.7275
34.262 25.529
34.4488 25.1798
34.6357 24.8751
34.8227 24.5583
35.0098 24.3183
35.1969 24.0838
35.3842 23.8624
35.5716 23.661
35.759 23.4064
35.9468 22.9457
36.1345 22.7695
36.3222 22.603
36.5101 22.3486
36.6981 22.0083
36.8861 21.7057
37.0743 21.3857
37.2626 21.1262
37.451 20.9573
37.6395 20.7253
37.8281 20.3619
38.0168 20.121
38.2056 19.7881
38.3945 19.5969
38.5837 19.4169
38.7728 19.0934
38.9621 18.8454
39.1514 18.6148
39.3409 18.3871
39.5304 18.1544
39.7201 17.97
39.9099 17.741
40.0999 17.5156
40.2899 17.2218
40.48 17.0415
40.6703 16.8249
40.8607 16.6915
41.0512 16.4292
41.242 16.1907
41.4327 16.0334
41.6236 15.8505
41.8146 15.5898
42.0057 15.3242
42.1969 15.1217
42.3882 14.9452
42.5797 14.8067
42.7713 14.5292
42.963 14.3381
43.1549 14.1289
43.3468 13.9834
43.5389 13.7646
43.7312 13.6066
43.9237 13.4093
44.1162 13.2098
44.3088 13.0238
44.5016 12.8251
44.6945 12.6908
44.8875 12.5092
45.0806 12.3338
45.2739 12.1555
45.4673 11.9772
45.6609 11.7876
45.8546 11.6674
46.0484 11.4831
46.2424 11.3288
46.4365 11.1798
46.631 10.9819
46.8254 10.8531
47.0199 10.6532
47.2146 10.4812
47.4095 10.3696
47.6044 10.2248
47.7996 10.0288
47.9948 9.89314
48.1902 9.77626
48.3858 9.65838
48.5815 9.49168
48.7774 9.37867
48.9734 9.21703
49.1696 9.02622
49.3661 8.91661
49.5626 8.77397
49.7592 8.6483
49.956 8.54341
50.153 8.43205
50.3501 8.25504
50.5474 8.14249
50.7448 8.02219
50.9424 7.87505
51.1402 7.76988
51.3381 7.64232
51.5362 7.53423
51.7344 7.41624
51.9328 7.29569
52.1316 7.13836
52.3304 7.03732
52.5293 6.94328
52.7284 6.79313
52.9276 6.70371
53.1271 6.61969
53.3267 6.5086
53.5265 6.33749
53.7264 6.26032
53.9266 6.11129
54.1269 6.06432
54.3274 5.92918
54.528 5.75498
54.7289 5.6684
54.9301 5.44397
55.1314 5.33154
55.3328 5.08271
55.5344 4.98475
55.7361 4.79961

File: Ni3Fe_FD0772.xy
TT I
1.27165 7.45684
1.45013 5.76252
1.62863 5.27742
1.80712 4.96709
1.98562 4.83663
2.16411 4.3428
2.34263 5.72536
2.52115 7.50746
2.69965 8.36616
2.87818 8.84735
3.05672 11.3408
3.23527 15.3296
3.4138 19.4281
3.59237 24.2477
3.77094 26.2503
3.9495 29.9789
4.12809 35.4032
4.30669 284.251
4.4853 71.8138
4.6639 54.778
4.84253 66.4141
5.02118 85.0004
5.19981 301.33
5.37848 189.018
5.55716 100.995
5.73586 90.9297
5.91455 91.4633
6.09328 4179.92
6.27201 83.3622
6.45075 66.778
6.62952 62.9551
6.8083 59.0014
6.98711 56.1236
7.16591 55.6892
7.34475 105.343
7.5236 54.7708
7.70247 56.2504
7.88135 57.6217
8.06026 61.5729
8.23919 68.9523
8.41812 84.4069
8.59709 1078.1
8.77609 99.1337
8.9551 93.2763
9.13412 80.9177
9.31318 81.4143
9.49226 83.6906
9.67134 100.363
9.85047 98.9359
10.0296 297.302
10.2088 410.322
10.388 103.908
10.5672 514.88
10.7465 86.096
10.9257 78.2432
11.105 71.4879
11.2844 70.8967
11.4637 64.3427
11.6431 63.3889
11.8225 61.8881
12.002 62.8726
12.1814 145.387
12.3609 72.2047
12.5405 64.0479
12.72 70.7403
12.8996 70.2265
13.0792 77.489
13.2589 222.326
13.4386 127.392
13.6183 232.701
13.7981 98.7583
13.9779 75.3565
14.1577 72.416
14.3376 71.7227
14.5175 68.4928
14.6974 69.7661
14.8774 104.46
15.0574 152.477
15.2374 71.2349
15.4175 65.9285
15.5976 65.2398
15.7778 90.1594
15.958 160.677
16.1382 63.1066
16.3185 58.5129
16.4988 55.174
16.6792 54.2257
16.8596 55.109
17.04 55.2761
17.2205 65.5117
17.401 70.9901
17.5815 58.8217
17.7622 60.6999
17.9428 71.5577
18.1237 138.792
18.3044 88.4039
18.4852 78.688
18.666 60.1185
18.8469 57.4424
19.0278 56.6352
19.2088 58.8742
19.3898 76.7123
19.5709 53.8585
19.752 53.0023
19.9332 55.3802
20.1144 69.4175
20.2957 62.982
20.477 53.6958
20.6586 49.3832
20.84 48.5065
21.0215 48.2565
21.203 50.3894
21.3846 48.7936
21.5662 48.3597
21.7479 51.7419
21.9297 64.2849
22.1115 55.8148
22.2933 49.6668
22.4753 48.7688
22.6572 48.3914
22.8393 51.3045
23.0214 57.4198
23.2037 48.2747
23.3859 49.0912
23.5682 56.5743
23.7505 48.2344
23.9329 45.0594
24.1154 43.8882
24.2979 43.2268
24.4805 42.6138
24.6631 42.6009
24.8458 41.8047
25.0286 42.3093
25.2114 44.2933
25.3943 44.5024
25.5773 40.6526
25.7605 40.0697
25.9436 40.5411
26.1268 41.4191
26.31 39.8543
26.4933 40.3864
26.6767 42.0364
26.8601 40.2443
27.0437 38.8009
27.2272 38.1788
27.4109 38.1597
27.5946 38.185
27.7784 37.5784
27.9623 38.1378
28.1462 38.545
28.3304 36.976
28.5145 35.6904
28.6987 35.5415
28.8829 35.2491
29.0673 34.5724
29.2517 34.1829
29.4361 33.986
29.6207 32.8999
29.8053 32.7498
29.99 32.3364
30.1748 32.248
30.3597 32.0447
30.5447 31.9342
30.7297 32.0665
30.915 31.4607
31.1002 30.944
31.2855 30.6466
31.4708 30.6037
31.6563 30.2218
31.8418 29.9879
32.0275 29.7268
32.2132 29.1769
32.399 28.7499
32.5848 28.3293
32.7708 28.0743
32.9569 27.8596
33.143 27.5706
33.3293 27.2318
33.5158 26.9063
33.7022 26.5218
33.8887 26.2013
34.0753 25.8187
34.262 25.5184
34.4488 25.1746
34.6357 24.8327
34.8227 24.6183
35.0098 24.3305
35.1969 24.1363
35.3842 23.7979
35.5716 23.6964
35.759 23.3835
35.9468 22.9825
36.1345 22.8567
36.3222 22.4882
36.5101 22.2963
36.6981 21.9909
36.8861 21.7428
37.0743 21.3581
37.2626 21.2114
37.451 20.9029
37.6395 20.7885
37.8281 20.3393
38.0168 20.0681
38.2056 19.8542
38.3945 19.5504
38.5837 19.3395
38.7728 19.092
38.9621 18.8375
39.1514 18.6517
39.3409 18.3707
39.5304 18.1764
39.7201 17.9911
39.9099 17.7667
40.0999 17.4909
40.2899 17.3023
40.48 17.0458
40.6703 16.8109
40.8607 16.7064
41.0512 16.4483
41.242 16.201
41.4327 16.0062
41.6236 15.7882
41.8146 15.5992
42.0057 15.3432
42.1969 15.1313
42.3882 14.9619
42.5797 14.7421
42.7713 14.5715
42.963 14.3171
43.1549 14.1512
43.3468 13.9432
43.5389 13.8356
43.7312 13.5484
43.9237 13.4084
44.1162 13.269
44.3088 13.0859
44.5016 12.8796
44.6945 12.6611
44.8875 12.4889
45.0806 12.328
45.2739 12.1422
45.4673 11.9759
45.6609 11.7821
45.8546 11.6427
46.0484 11.463
46.2424 11.3288
46.4365 11.1803
46.631 11.021
46.8254 10.7843
47.0199 10.6473
47.2146 10.4846
47.4095 10.3596
47.6044 10.2234
47.7996 10.0524
47.9948 9.90232
48.1902 9.76131
48.3858 9.6012
48.5815 9.51476
48.7774 9.3689
48.9734 9.21501
49.1696 9.07729
49.3661 8.93411
49.5626 8.80676
49.7592 8.66886
49.956 8.57053
50.153 8.39974
50.3501 8.27482
50.5474 8.14068
50.7448 8.06711
50.9424 7.93735
51.1402 7.78345
51.3381 7.61772
51.5362 7.55419
51.7344 7.39868
51.9328 7.26898
52.1316 7.13951
52.3304 7.03749
52.5293 6.92842
52.7284 6.82695
52.9276 6.66136
53.1271 6.597
53.3267 6.45871
53.5265 6.3564
53.7264 6.23263
53.9266 6.15267
54.1269 6.05835
54.3274 5.91861
54.528 5.76963
54.7289 5.65728
54.9301 5.46501
55.1314 5.33252
55.3328 5.12784
55.5344 4.96497
55.7361 4.79224

File: Ni3Fe_FD0773.xy
TT I
1.27165 7.06847
1.45013 5.74853
1.62863 5.81617
1.80712 4.92624
1.98562 4.9161
2.16411 4.63461
2.34263 5.80973
2.52115 6.65209
2.69965 8.41527
2.87818 9.8818
3.05672 11.1901
3.23527 15.1624
3.4138 18.7672
3.59237 24.1946
3.77094 26.3346
3.9495 29.9827
4.12809 34.4948
4.30669 274.616
4.4853 71.362
4.6639 55.2055
4.84253 65.982
5.02118 84.6315
5.19981 299.894
5.37848 185.883
5.55716 100.583
5.73586 90.7742
5.91455 91.5806
6.09328 4250.29
6.27201 82.7394
6.45075 67.0836
6.62952 62.6281
6.8083 58.8081
6.98711 55.6915
7.16591 55.2477
7.34475 103.083
7.5236 54.6674
7.70247 55.8549
7.88135 57.4996
8.06026 61.491
8.23919 68.5704
8.41812 84.2102
8.59709 1077.65
8.77609 97.9971
8.9551 92.2863
9.13412 81.0192
9.31318 80.9896
9.49226 83.1815
9.67134 100.184
9.85047 98.4798
10.0296 296.115
10.2088 406.841
10.388 103.75
10.5672 518.724
10.7465 85.8662
10.9257 78.3848
11.105 71.3788
11.2844 71.1489
11.4637 64.3271
11.6431 63.1463
11.8225 61.7979
12.002 62.7492
12.1814 146.087
12.3609 71.9521
12.5405 63.992
12.72 70.5433
12.8996 70.2676
13.0792 77.5532
13.2589 221.696
13.4386 127.152
13.6183 232.138
13.7981 98.2661
13.9779 74.6431
14.1577 71.9364
14.3376 71.6083
14.5175 68.1294
14.6974 69.5332
14.8774 104.426
15.0574 151.761
15.2374 71.1683
15.4175 65.7399
15.5976 64.9088
15.7778 90.1052
15.958 160.005
16.1382 62.92
16.3185 58.5255
16.4988 55.2476
16.6792 54.1219
16.8596 54.9882
17.04 55.3082
17.2205 65.3955
17.401 70.9132
17.5815 58.6134
17.7622 60.6854
17.9428 71.4425
18.1237 139.721
18.3044 88.452
18.4852 78.346
18.666 59.9707
18.8469 57.5365
19.0278 56.2302
19.2088 58.7269
19.3898 76.8882
19.5709 53.9082
19.752 52.6965
19.9332 55.3793
20.1144 69.5169
20.2957 63.2144
20.477 53.5494
20.6586 49.2685
20.84 48.2909
21.0215 48.2059
21.203 50.4209
21.3846 48.5391
21.5662 48.3425
21.7479 51.7525
21.9297 64.3165
22.1115 55.6681
22.2933 49.5767
22.4753 48.5818
22.6572 48.3817
22.8393 51.0866
23.0214 57.5935
23.2037 48.4185
23.3859 48.953
23.5682 56.522
23.7505 48.2254
23.9329 44.9615
24.1154 43.6862
24.2979 43.1413
24.4805 42.5568
24.6631 42.4071
24.8458 41.9249
25.0286 42.3206
25.2114 44.1232
25.3943 44.5404
25.5773 40.5129
25.7605 40.2027
25.9436 40.4974
26.1268 41.4639
26.31 39.8288
26.4933 40.3307
26.6767 41.8746
26.8601 40.1819
27.0437 38.5439
27.2272 38.2684
27.4109 37.9877
27.5946 38.0451
27.7784 37.5982
27.9623 38.0981
28.1462 38.5784
28.3304 36.9187
28.5145 35.7867
28.6987 35.4272
28.8829 35.2131
29.0673 34.5032
29.2517 33.92
29.4361 33.9441
29.6207 32.9359
29.8053 32.768
29.99 32.3066
30.1748 32.1795
30.3597 32.0064
30.5447 31.8512
30.7297 31.9165
30.915 31.371
31.1002 30.8653
31.2855 30.5907
31.4708 30.6212
31.6563 30.1315
31.8418 29.9465
32.0275 29.6652
32.2132 29.1224
32.399 28.6891
32.5848 28.2781
32.7708 27.895
32.9569 27.7723
33.143 27.5542
33.3293 27.231
33.5158 26.8698
33.7022 26.5254
33.8887 26.2282
34.0753 25.8018
34.262 25.4574
34.4488 25.1048
34.6357 24.8343
34.8227 24.4686
35.0098 24.2952
35.1969 24.0394
35.3842 23.8249
35.5716 23.6363
35.759 23.2252
35.9468 22.935
36.1345 22.8412
36.3222 22.5448
36.5101 22.2962
36.6981 21.9426
36.8861 21.6758
37.0743 21.3292
37.2626 21.1418
37.451 20.8514
37.6395 20.7325
37.8281 20.3662
38.0168 20.0755
38.2056 19.8153
38.3945 19.5262
38.5837 19.3041
38.7728 19.0628
38.9621 18.842
39.1514 18.5587
39.3409 18.3076
39.5304 18.1601
39.7201 17.9499
39.9099 17.6927
40.0999 17.5097
40.2899 17.2524
40.48 17.0031
40.6703 16.809
40.8607 16.6431
41.0512 16.3873
41.242 16.0891
41.4327 15.9915
41.6236 15.7415
41.8146 15.5696
42.0057 15.4124
42.1969 15.0744
42.3882 14.9335
42.5797 14.7395
42.7713 14.5661
42.963 14.3454
43.1549 14.1103
43.3468 13.9623
43.5389 13.7677
43.7312 13.5371
43.9237 13.3913
44.1162 13.1942
44.3088 13.0033
44.5016 12.8284
44.6945 12.6287
44.8875 12.4946
45.0806 12.2848
45.2739 12.1144
45.4673 11.991
45.6609 11.7558
45.8546 11.6695
46.0484 11.4632
46.2424 11.2716
46.4365 11.1433
46.631 10.9729
46.8254 10.8153
47.0199 10.6178
47.2146 10.4708
47.4095 10.3483
47.6044 10.1871
47.7996 10.0437
47.9948 9.88538
48.1902 9.7582
48.3858 9.66012
48.5815 9.45922
48.7774 9.39625
48.9734 9.19104
49.1696 9.05474
49.3661 8.94104
49.5626 8.8054
49.7592 8.64264
49.956 8.51771
50.153 8.40534
50.3501 8.27292
50.5474 8.12843
50.7448 8.03068
50.9424 7.88349
51.1402 7.82547
51.3381 7.62193
51.5362 7.534
51.7344 7.36662
51.9328 7.26757
52.1316 7.12778
52.3304 7.00826
52.5293 6.90066
52.7284 6.84215
52.9276 6.69187
53.1271 6.6235
53.3267 6.46609
53.5265 6.33845
53.7264 6.25405
53.9266 6.16044
54.1269 6.00699
54.3274 5.94984
54.528 5.79875
54.7289 5.63187
54.9301 5.46453
55.1314 5.35349
55.3328 5.16273
55.5344 4.95596
55.7361 4.78255

File: Ni3Fe_FD0776.xy
TT I
1.27165 7.37389
1.45013 6.26186
1.62863 5.05413
1.80712 4.57419
1.98562 4.95847
2.16411 4.62092
2.34263 5.71177
2.52115 7.12753
2.69965 8.32789
2.87818 9.00931
3.05672 11.2092
3.23527 15.3145
3.4138 18.9452
3.59237 23.7958
3.77094 25.9798
3.9495 29.7723
4.12809 35.0609
4.30669 214.505
4.4853 65.042
4.6639 54.9521
4.84253 66.4866
5.02118 85.6238
5.19981 307.855
5.37848 178.866
5.55716 100.597
5.73586 91.3641
5.91455 92.3835
6.09328 4444.31
6.27201 81.3459
6.45075 66.4802
6.62952 62.095
6.8083 58.1481
6.98711 55.4168
7.16591 55.1653
7.34475 90.6534
7.5236 54.2756
7.70247 55.2908
7.88135 57.5039
8.06026 61.4375
8.23919 68.781
8.41812 83.9456
8.59709 1167.47
8.77609 97.2561
8.9551 90.4171
9.13412 81.0028
9.31318 81.6361
9.49226 83.4475
9.67134 97.6629
9.85047 98.5346
10.0296 315.058
10.2088 353.331
10.388 103.265
10.5672 536.629
10.7465 84.9889
10.9257 77.344
11.105 71.0237
11.2844 69.6783
11.4637 64.3903
11.6431 62.9343
11.8225 61.8905
12.002 62.6109
12.1814 156.367
12.3609 69.5011
12.5405 63.7197
12.72 69.2551
12.8996 70.2084
13.0792 77.8216
13.2589 235.155
13.4386 119.398
13.6183 246.648
13.7981 93.6902
13.9779 74.7222
14.1577 71.4599
14.3376 70.7187
14.5175 68.0765
14.6974 69.6193
14.8774 107.605
15.0574 143.916
15.2374 70.1105
15.4175 65.6338
15.5976 65.0574
15.7778 92.0753
15.958 152.476
16.1382 61.8986
16.3185 58.1739
16.4988 54.8652
16.6792 53.8003
16.8596 54.4864
17.04 55.2331
17.2205 66.2457
17.401 68.595
17.5815 58.4075
17.7622 60.5753
17.9428 72.4533
18.1237 142.14
18.3044 89.8762
18.4852 75.2722
18.666 59.7632
18.8469 57.2626
19.0278 56.166
19.2088 58.6776
19.3898 76.5497
19.5709 53.4846
19.752 52.6789
19.9332 55.5453
20.1144 69.7433
20.2957 64.094
20.477 52.6951
20.6586 49.1846
20.84 48.2604
21.0215 48.044
21.203 50.4024
21.3846 48.2855
21.5662 48.0975
21.7479 51.8088
21.9297 64.3903
22.1115 55.7466
22.2933 49.1288
22.4753 48.4001
22.6572 48.1665
22.8393 51.3484
23.0214 56.639
23.2037 48.2832
23.3859 49.0345
23.5682 56.8284
23.7505 47.5435
23.9329 44.7616
24.1154 43.6927
24.2979 43.0068
24.4805 42.5534
24.6631 42.4284
24.8458 41.771
25.0286 42.4522
25.2114 44.2744
25.3943 44.1671
25.5773 40.4237
25.7605 39.9977
25.9436 40.4519
26.1268 41.3521
26.31 39.6162
26.4933 40.2924
26.6767 41.7824
26.8601 40.0381
27.0437 38.6269
27.2272 38.1349
27.4109 38.0748
27.5946 38.0539
27.7784 37.4669
27.9623 38.1012
28.1462 38.3538
28.3304 36.6962
28.5145 35.4348
28.6987 35.4171
28.8829 35.1085
29.0673 34.3583
29.2517 33.9568
29.4361 33.7662
29.6207 32.8628
29.8053 32.5863
29.99 32.2134
30.1748 32.1186
30.3597 31.9395
30.5447 31.8129
30.7297 31.884
30.915 31.3855
31.1002 30.8204
31.2855 30.5053
31.4708 30.5838
31.6563 29.9436
31.8418 29.755
32.0275 29.7015
32.2132 29.1215
32.399 28.5894
32.5848 28.1189
32.7708 27.8669
32.9569 27.7615
33.143 27.5548
33.3293 27.0881
33.5158 26.6497
33.7022 26.4217
33.8887 26.055
34.0753 25.7471
34.262 25.4138
34.4488 24.9901
34.6357 24.6637
34.8227 24.4985
35.0098 24.2385
35.1969 23.9652
35.3842 23.7015
35.5716 23.5615
35.759 23.2237
35.9468 22.8199
36.1345 22.677
36.3222 22.4747
36.5101 22.178
36.6981 21.903
36.8861 21.581
37.0743 21.2769
37.2626 21.0975
37.451 20.7882
37.6395 20.6078
37.8281 20.338
38.0168 20.0528
38.2056 19.8133
38.3945 19.4872
38.5837 19.2416
38.7728 19.0106
38.9621 18.7748
39.1514 18.5374
39.3409 18.3114
39.5304 18.0732
39.7201 17.8861
39.9099 17.6785
40.0999 17.4402
40.2899 17.2078
40.48 16.9735
40.6703 16.76
40.8607 16.6961
41.0512 16.3492
41.242 16.1362
41.4327 15.9446
41.6236 15.702
41.8146 15.5042
42.0057 15.3195
42.1969 15.105
42.3882 14.8421
42.5797 14.6821
42.7713 14.4878
42.963 14.3042
43.1549 14.113
43.3468 13.8463
43.5389 13.6961
43.7312 13.536
43.9237 13.306
44.1162 13.1633
44.3088 12.9748
44.5016 12.7731
44.6945 12.6111
44.8875 12.4477
45.0806 12.2199
45.2739 12.0832
45.4673 11.9604
45.6609 11.7622
45.8546 11.6065
46.0484 11.4421
46.2424 11.23
46.4365 11.0956
46.631 10.9662
46.8254 10.7586
47.0199 10.6294
47.2146 10.5096
47.4095 10.2802
47.6044 10.137
47.7996 10.0152
47.9948 9.85265
48.1902 9.69037
48.3858 9.58249
48.5815 9.44227
48.7774 9.34881
48.9734 9.16867
49.1696 9.01248
49.3661 8.85813
49.5626 8.72023
49.7592 8.62878
49.956 8.51017
50.153 8.36301
50.3501 8.25919
50.5474 8.13693
50.7448 7.97255
50.9424 7.87143
51.1402 7.7416
51.3381 7.62229
51.5362 7.48235
51.7344 7.37677
51.9328 7.24978
52.1316 7.10199
52.3304 7.04642
52.5293 6.91789
52.7284 6.79471
52.9276 6.6242
53.1271 6.58788
53.3267 6.44437
53.5265 6.32369
53.7264 6.22371
53.9266 6.12466
54.1269 6.02132
54.3274 5.91648
54.528 5.78473
54.7289 5.56631
54.9301 5.432
55.1314 5.31381
55.3328 5.12245
55.5344 4.91391
55.7361 4.78448

File: Ni3Fe_FD0777.xy
TT I
1.27165 7.42048
1.45013 5.58276
1.62863 5.35502
1.80712 5.25847
1.98562 4.96328
2.16411 5.21952
2.34263 5.11036
2.52115 7.46186
2.69965 8.09677
2.87818 9.20543
3.05672 11.338
3.23527 15.0687
3.4138 19.1092
3.59237 23.6206
3.77094 25.8944
3.9495 29.6329
4.12809 34.7201
4.30669 203.13
4.4853 63.8513
4.6639 54.813
4.84253 66.6692
5.02118 85.6201
5.19981 312.328
5.37848 177.744
5.55716 100.38
5.73586 90.5463
5.91455 92.823
6.09328 4444.28
6.27201 81.1549
6.45075 66.5851
6.62952 61.842
6.8083 57.9267
6.98711 55.5549
7.16591 54.7634
7.34475 88.2859
7.5236 54.1299
7.70247 55.6285
7.88135 57.5375
8.06026 61.6437
8.23919 69.2468
8.41812 84.0853
8.59709 1177.41
8.77609 97.2726
8.9551 90.1163
9.13412 80.6481
9.31318 81.7836
9.49226 83.9119
9.67134 96.6015
9.85047 98.6477
10.0296 320.502
10.2088 353.013
10.388 102.835
10.5672 533.951
10.7465 85.8085
10.9257 77.3778
11.105 70.7903
11.2844 69.5145
11.4637 64.1722
11.6431 63.0653
11.8225 61.689
12.002 62.8416
12.1814 156.817
12.3609 68.9746
12.5405 63.7253
12.72 69.3678
12.8996 70.2421
13.0792 79.0402
13.2589 237.114
13.4386 118.204
13.6183 248.895
13.7981 93.3019
13.9779 74.9303
14.1577 71.6416
14.3376 70.6682
14.5175 68.0809
14.6974 69.9395
14.8774 108.182
15.0574 143.808
15.2374 69.9558
15.4175 65.4301
15.5976 64.982
15.7778 92.3452
15.958 151.091
16.1382 61.8721
16.3185 57.9285
16.4988 54.8558
16.6792 53.878
16.8596 54.6212
17.04 55.0732
17.2205 65.9941
17.401 68.4951
17.5815 58.445
17.7622 60.7545
17.9428 72.4829
18.1237 142.051
18.3044 90.2248
18.4852 75.0633
18.666 59.6543
18.8469 57.309
19.0278 56.3379
19.2088 58.7212
19.3898 76.4234
19.5709 53.4258
19.752 52.7366
19.9332 55.4091
20.1144 69.4281
20.2957 64.1018
20.477 52.6939
20.6586 48.9601
20.84 48.117
21.0215 48.0386
21.203 50.4918
21.3846 48.2694
21.5662 48.211
21.7479 51.8324
21.9297 64.3211
22.1115 55.8026
22.2933 49.248
22.4753 48.4174
22.6572 48.2648
22.8393 51.212
23.0214 56.9594
23.2037 48.0577
23.3859 49.278
23.5682 56.9745
23.7505 47.5097
23.9329 44.7798
24.1154 43.7141
24.2979 42.9932
24.4805 42.5765
24.6631 42.1645
24.8458 41.6574
25.0286 42.4169
25.2114 44.092
25.3943 44.248
25.5773 40.3595
25.7605 39.948
25.9436 40.3655
26.1268 41.2739
26.31 39.6279
26.4933 40.378
26.6767 41.7482
26.8601 40.1085
27.0437 38.5251
27.2272 38.1167
27.4109 38.0191
27.5946 37.946
27.7784 37.4636
27.9623 38.0586
28.1462 38.4142
28.3304 36.6751
28.5145 35.658
28.6987 35.2383
28.8829 35.0056
29.0673 34.3075
29.2517 34.0147
29.4361 33.8253
29.6207 32.8407
29.8053 32.5502
29.99 32.228
30.1748 32.0658
30.3597 31.916
30.5447 31.8708
30.7297 31.9561
30.915 31.23
31.1002 30.8115
31.2855 30.5192
31.4708 30.5211
31.6563 29.9964
31.8418 29.8858
32.0275 29.6007
32.2132 29.0619
32.399 28.6356
32.5848 28.1456
32.7708 27.929
32.9569 27.7067
33.143 27.4756
33.3293 27.1166
33.5158 26.7468
33.7022 26.329
33.8887 26.1018
34.0753 25.7813
34.262 25.3842
34.4488 25.11
34.6357 24.6906
34.8227 24.4481
35.0098 24.2268
35.1969 23.9967
35.3842 23.7448
35.5716 23.6047
35.759 23.2577
35.9468 22.9301
36.1345 22.6762
36.3222 22.4595
36.5101 22.172
36.6981 21.903
36.8861 21.5415
37.0743 21.302
37.2626 21.1099
37.451 20.7876
37.6395 20.651
37.8281 20.2331
38.0168 20.008
38.2056 19.7667
38.3945 19.4763
38.5837 19.2252
38.7728 19.0576
38.9621 18.7244
39.1514 18.4762
39.3409 18.2324
39.5304 18.0235
39.7201 17.8925
39.9099 17.6802
40.0999 17.4523
40.2899 17.2179
40.48 16.9241
40.6703 16.7661
40.8607 16.5934
41.0512 16.3843
41.242 16.095
41.4327 15.8921
41.6236 15.693
41.8146 15.4985
42.0057 15.3075
42.1969 15.0682
42.3882 14.898
42.5797 14.7157
42.7713 14.446
42.963 14.2458
43.1549 14.1172
43.3468 13.8885
43.5389 13.6614
43.7312 13.5176
43.9237 13.3586
44.1162 13.1629
44.3088 12.9592
44.5016 12.7536
44.6945 12.6121
44.8875 12.4054
45.0806 12.254
45.2739 12.0741
45.4673 11.9295
45.6609 11.7236
45.8546 11.6168
46.0484 11.4289
46.2424 11.2938
46.4365 11.0803
46.631 10.9716
46.8254 10.7595
47.0199 10.6124
47.2146 10.4409
47.4095 10.2787
47.6044 10.1589
47.7996 9.99273
47.9948 9.89348
48.1902 9.70002
48.3858 9.60317
48.5815 9.44954
48.7774 9.33461
48.9734 9.1563
49.1696 9.02291
49.3661 8.88924
49.5626 8.75689
49.7592 8.60381
49.956 8.51885
50.153 8.35754
50.3501 8.23282
50.5474 8.09952
50.7448 7.99977
50.9424 7.84397
51.1402 7.70933
51.3381 7.56431
51.5362 7.46714
51.7344 7.37164
51.9328 7.22676
52.1316 7.10922
52.3304 7.01218
52.5293 6.86178
52.7284 6.78687
52.9276 6.68066
53.1271 6.55424
53.3267 6.45029
53.5265 6.2945
53.7264 6.24721
53.9266 6.12597
54.1269 6.00063
54.3274 5.84837
54.528 5.74349
54.7289 5.55743
54.9301 5.47703
55.1314 5.311
55.3328 5.10318
55.5344 4.92933
55.7361 4.78947