Folder: NiFe_MOF_catalyst_paper/XRD (part 150)

File: Ni3Fe_FD0814.xy
TT I
1.27165 7.42244
1.45013 5.76334
1.62863 5.84249
1.80712 4.78022
1.98562 4.57438
2.16411 4.80403
2.34263 5.27824
2.52115 7.59083
2.69965 8.45394
2.87818 9.07332
3.05672 11.2117
3.23527 15.0958
3.4138 18.2078
3.59237 23.1544
3.77094 25.4903
3.9495 29.5651
4.12809 34.3601
4.30669 108.193
4.4853 53.9462
4.6639 55.3265
4.84253 67.8444
5.02118 86.4296
5.19981 396.745
5.37848 190.277
5.55716 101.412
5.73586 92.2538
5.91455 94.1694
6.09328 4593.02
6.27201 79.5195
6.45075 69.0311
6.62952 62.3992
6.8083 58.9933
6.98711 55.2048
7.16591 55.7051
7.34475 68.4761
7.5236 53.9425
7.70247 56.184
7.88135 57.122
8.06026 61.9239
8.23919 68.6897
8.41812 82.9242
8.59709 1215.4
8.77609 96.7449
8.9551 89.3149
9.13412 82.2329
9.31318 83.9437
9.49226 84.3177
9.67134 94.8781
9.85047 101.161
10.0296 341.824
10.2088 346.082
10.388 104.052
10.5672 536.542
10.7465 85.2944
10.9257 77.105
11.105 70.9409
11.2844 68.0873
11.4637 64.0721
11.6431 62.8245
11.8225 62.139
12.002 63.7368
12.1814 159.915
12.3609 66.1267
12.5405 64.2525
12.72 67.2365
12.8996 70.7776
13.0792 79.9643
13.2589 247.758
13.4386 117.989
13.6183 257.925
13.7981 92.9046
13.9779 74.8685
14.1577 71.0559
14.3376 69.7487
14.5175 68.31
14.6974 69.9711
14.8774 111.686
15.0574 140.993
15.2374 68.8473
15.4175 65.5992
15.5976 65.284
15.7778 95.2789
15.958 146.341
16.1382 60.8734
16.3185 57.1537
16.4988 54.7563
16.6792 53.7208
16.8596 54.2768
17.04 55.3312
17.2205 66.7919
17.401 68.5318
17.5815 58.7755
17.7622 60.7078
17.9428 73.2002
18.1237 140.938
18.3044 91.0029
18.4852 74.0157
18.666 59.5333
18.8469 57.4975
19.0278 56.1694
19.2088 58.6095
19.3898 75.6824
19.5709 53.4501
19.752 53.033
19.9332 55.6725
20.1144 69.6772
20.2957 63.9337
20.477 52.367
20.6586 48.9959
20.84 48.3613
21.0215 48.06
21.203 50.48
21.3846 48.2826
21.5662 48.6814
21.7479 52.1489
21.9297 64.1217
22.1115 55.7727
22.2933 49.1486
22.4753 48.2226
22.6572 48.4579
22.8393 51.6702
23.0214 56.469
23.2037 48.2456
23.3859 49.1035
23.5682 57.1471
23.7505 47.2382
23.9329 44.7286
24.1154 43.5542
24.2979 42.8697
24.4805 42.3999
24.6631 42.4609
24.8458 41.7909
25.0286 42.4498
25.2114 44.1117
25.3943 44.1455
25.5773 40.5627
25.7605 40.0528
25.9436 40.5592
26.1268 41.3107
26.31 39.5845
26.4933 40.3225
26.6767 41.7169
26.8601 39.9522
27.0437 38.4042
27.2272 38.0536
27.4109 37.9271
27.5946 37.9382
27.7784 37.4954
27.9623 37.9665
28.1462 38.4169
28.3304 36.7013
28.5145 35.6485
28.6987 35.1689
28.8829 34.9771
29.0673 34.2254
29.2517 33.9782
29.4361 33.8172
29.6207 32.7772
29.8053 32.5218
29.99 32.1504
30.1748 32.0739
30.3597 31.9438
30.5447 31.8569
30.7297 31.8804
30.915 31.2485
31.1002 30.7357
31.2855 30.5901
31.4708 30.4516
31.6563 29.9858
31.8418 29.8785
32.0275 29.5329
32.2132 29.0616
32.399 28.6094
32.5848 28.2287
32.7708 27.8543
32.9569 27.661
33.143 27.4962
33.3293 27.0971
33.5158 26.7181
33.7022 26.2873
33.8887 25.9961
34.0753 25.6241
34.262 25.3864
34.4488 25.0392
34.6357 24.7444
34.8227 24.5333
35.0098 24.2897
35.1969 23.9661
35.3842 23.7169
35.5716 23.5783
35.759 23.3024
35.9468 22.8497
36.1345 22.6871
36.3222 22.4675
36.5101 22.2096
36.6981 21.8608
36.8861 21.569
37.0743 21.2776
37.2626 21.0588
37.451 20.7439
37.6395 20.6145
37.8281 20.2293
38.0168 20.014
38.2056 19.7835
38.3945 19.456
38.5837 19.2276
38.7728 18.995
38.9621 18.7585
39.1514 18.474
39.3409 18.3018
39.5304 18.0721
39.7201 17.9273
39.9099 17.6788
40.0999 17.38
40.2899 17.1692
40.48 16.8875
40.6703 16.7595
40.8607 16.5922
41.0512 16.3163
41.242 16.087
41.4327 15.9242
41.6236 15.6468
41.8146 15.4187
42.0057 15.2238
42.1969 14.9823
42.3882 14.8715
42.5797 14.6472
42.7713 14.4675
42.963 14.2914
43.1549 14.0597
43.3468 13.84
43.5389 13.6962
43.7312 13.5199
43.9237 13.3121
44.1162 13.1049
44.3088 12.9148
44.5016 12.7125
44.6945 12.5893
44.8875 12.4423
45.0806 12.2618
45.2739 12.0431
45.4673 11.9061
45.6609 11.7069
45.8546 11.581
46.0484 11.3435
46.2424 11.2156
46.4365 11.1115
46.631 10.8912
46.8254 10.7368
47.0199 10.5803
47.2146 10.4028
47.4095 10.3036
47.6044 10.1344
47.7996 9.93587
47.9948 9.82088
48.1902 9.7065
48.3858 9.52541
48.5815 9.43193
48.7774 9.3108
48.9734 9.13794
49.1696 8.99384
49.3661 8.85525
49.5626 8.68873
49.7592 8.59514
49.956 8.48905
50.153 8.37563
50.3501 8.17317
50.5474 8.07127
50.7448 8.02228
50.9424 7.84384
51.1402 7.72495
51.3381 7.571
51.5362 7.47062
51.7344 7.35546
51.9328 7.22282
52.1316 7.09899
52.3304 6.99238
52.5293 6.84035
52.7284 6.72351
52.9276 6.67978
53.1271 6.55803
53.3267 6.43158
53.5265 6.31156
53.7264 6.20539
53.9266 6.09231
54.1269 5.99249
54.3274 5.89249
54.528 5.75627
54.7289 5.61061
54.9301 5.39901
55.1314 5.3
55.3328 5.1106
55.5344 4.91243
55.7361 4.76576

File: Ni3Fe_FD0815.xy
TT I
1.27165 7.05047
1.45013 6.39605
1.62863 4.84002
1.80712 4.43903
1.98562 4.74682
2.16411 4.65302
2.34263 5.26468
2.52115 7.30456
2.69965 7.87369
2.87818 9.18113
3.05672 11.0017
3.23527 14.9662
3.4138 19.1073
3.59237 22.7761
3.77094 25.4723
3.9495 29.2335
4.12809 34.2382
4.30669 106.963
4.4853 53.5231
4.6639 54.9472
4.84253 68.4405
5.02118 86.8353
5.19981 399.324
5.37848 190.993
5.55716 101.556
5.73586 92.4159
5.91455 94.6659
6.09328 4602.28
6.27201 79.6178
6.45075 69.1492
6.62952 62.4309
6.8083 59.1694
6.98711 54.8965
7.16591 55.6041
7.34475 67.8743
7.5236 53.939
7.70247 56.3927
7.88135 57.2527
8.06026 62.1023
8.23919 68.8418
8.41812 83.1261
8.59709 1221.61
8.77609 97.0345
8.9551 88.9155
9.13412 82.5238
9.31318 84.3109
9.49226 84.3336
9.67134 94.7173
9.85047 100.669
10.0296 343.199
10.2088 347.394
10.388 104.653
10.5672 537.958
10.7465 85.2229
10.9257 77.47
11.105 70.893
11.2844 67.7167
11.4637 64.0034
11.6431 62.9815
11.8225 61.8685
12.002 63.7335
12.1814 160.247
12.3609 66.1178
12.5405 64.5846
12.72 67.4683
12.8996 70.5999
13.0792 79.709
13.2589 248.786
13.4386 117.649
13.6183 258.913
13.7981 93.1718
13.9779 74.9725
14.1577 71.1786
14.3376 69.6628
14.5175 68.2863
14.6974 70.1655
14.8774 111.854
15.0574 140.39
15.2374 68.6967
15.4175 65.5687
15.5976 65.661
15.7778 95.5976
15.958 145.952
16.1382 61.0239
16.3185 57.3795
16.4988 54.8001
16.6792 53.7364
16.8596 54.2718
17.04 55.3544
17.2205 66.8564
17.401 68.2919
17.5815 58.674
17.7622 60.6782
17.9428 73.1599
18.1237 141.286
18.3044 91.2771
18.4852 73.8979
18.666 59.6534
18.8469 57.4145
19.0278 56.2869
19.2088 58.6733
19.3898 75.6846
19.5709 53.5143
19.752 52.7211
19.9332 55.8332
20.1144 69.8025
20.2957 64.0103
20.477 52.4493
20.6586 49.0741
20.84 48.3426
21.0215 48.0442
21.203 50.603
21.3846 48.327
21.5662 48.4662
21.7479 52.1869
21.9297 63.992
22.1115 55.8019
22.2933 49.0873
22.4753 48.1256
22.6572 48.4127
22.8393 51.6982
23.0214 56.411
23.2037 48.2894
23.3859 49.4412
23.5682 56.9303
23.7505 47.4297
23.9329 44.7626
24.1154 43.6003
24.2979 42.9175
24.4805 42.3771
24.6631 42.3435
24.8458 41.6745
25.0286 42.5137
25.2114 44.2656
25.3943 44.0747
25.5773 40.458
25.7605 40.1118
25.9436 40.351
26.1268 41.2181
26.31 39.5326
26.4933 40.3731
26.6767 41.7356
26.8601 40.0221
27.0437 38.5716
27.2272 38.2275
27.4109 38.0335
27.5946 38.0136
27.7784 37.3852
27.9623 38.0499
28.1462 38.3707
28.3304 36.6493
28.5145 35.5637
28.6987 35.2681
28.8829 35.0024
29.0673 34.2319
29.2517 33.9035
29.4361 33.6809
29.6207 32.6567
29.8053 32.5199
29.99 32.1834
30.1748 32.1344
30.3597 31.8675
30.5447 31.8707
30.7297 31.8737
30.915 31.2836
31.1002 30.9067
31.2855 30.526
31.4708 30.4607
31.6563 30.0477
31.8418 29.8538
32.0275 29.6221
32.2132 29.0507
32.399 28.579
32.5848 28.2124
32.7708 27.9149
32.9569 27.6744
33.143 27.5601
33.3293 27.133
33.5158 26.6324
33.7022 26.3181
33.8887 26.1067
34.0753 25.647
34.262 25.4041
34.4488 25.0757
34.6357 24.6385
34.8227 24.4555
35.0098 24.3213
35.1969 23.9902
35.3842 23.7662
35.5716 23.551
35.759 23.226
35.9468 22.8762
36.1345 22.7159
36.3222 22.4519
36.5101 22.1358
36.6981 21.9331
36.8861 21.5354
37.0743 21.2888
37.2626 21.1091
37.451 20.7613
37.6395 20.6279
37.8281 20.2921
38.0168 19.9989
38.2056 19.7565
38.3945 19.4829
38.5837 19.2497
38.7728 19.0671
38.9621 18.6933
39.1514 18.5465
39.3409 18.2372
39.5304 18.0521
39.7201 17.8848
39.9099 17.6597
40.0999 17.3974
40.2899 17.1985
40.48 16.8821
40.6703 16.8177
40.8607 16.5225
41.0512 16.3366
41.242 16.0196
41.4327 15.8659
41.6236 15.6782
41.8146 15.4823
42.0057 15.294
42.1969 15.0487
42.3882 14.8894
42.5797 14.6918
42.7713 14.459
42.963 14.26
43.1549 14.0536
43.3468 13.8933
43.5389 13.71
43.7312 13.5378
43.9237 13.3315
44.1162 13.1121
44.3088 12.9359
44.5016 12.7786
44.6945 12.6279
44.8875 12.3798
45.0806 12.2047
45.2739 12.0686
45.4673 11.9258
45.6609 11.6818
45.8546 11.5595
46.0484 11.4095
46.2424 11.1883
46.4365 11.0545
46.631 10.9154
46.8254 10.7593
47.0199 10.6277
47.2146 10.4717
47.4095 10.256
47.6044 10.141
47.7996 9.9899
47.9948 9.82713
48.1902 9.67707
48.3858 9.58193
48.5815 9.42406
48.7774 9.27299
48.9734 9.11468
49.1696 8.98789
49.3661 8.85764
49.5626 8.74752
49.7592 8.63368
49.956 8.45112
50.153 8.35069
50.3501 8.17447
50.5474 8.10709
50.7448 7.96194
50.9424 7.84845
51.1402 7.71232
51.3381 7.60045
51.5362 7.48065
51.7344 7.36044
51.9328 7.22267
52.1316 7.10588
52.3304 6.98542
52.5293 6.88514
52.7284 6.74788
52.9276 6.65246
53.1271 6.54936
53.3267 6.42277
53.5265 6.28901
53.7264 6.24132
53.9266 6.09379
54.1269 5.96973
54.3274 5.88471
54.528 5.73539
54.7289 5.59214
54.9301 5.44047
55.1314 5.26772
55.3328 5.05278
55.5344 4.90643
55.7361 4.79013

File: Ni3Fe_FD0816.xy
TT I
1.27165 7.05276
1.45013 6.42818
1.62863 5.55446
1.80712 4.44623
1.98562 4.86927
2.16411 4.99862
2.34263 6.25932
2.52115 6.71947
2.69965 8.31239
2.87818 9.32465
3.05672 10.991
3.23527 15.1284
3.4138 18.949
3.59237 23.2605
3.77094 25.7329
3.9495 29.6677
4.12809 33.9101
4.30669 105.86
4.4853 53.7866
4.6639 55.4267
4.84253 68.1415
5.02118 86.8286
5.19981 400.31
5.37848 191.408
5.55716 101.855
5.73586 92.9665
5.91455 94.8684
6.09328 4586.61
6.27201 79.7819
6.45075 69.4856
6.62952 62.7063
6.8083 59.2326
6.98711 54.8399
7.16591 55.7257
7.34475 66.9016
7.5236 53.7919
7.70247 56.4562
7.88135 57.2533
8.06026 62.3069
8.23919 68.9336
8.41812 83.4455
8.59709 1229.21
8.77609 97.1319
8.9551 88.8992
9.13412 82.6746
9.31318 84.5187
9.49226 84.3094
9.67134 95.2083
9.85047 101.059
10.0296 345.413
10.2088 346.68
10.388 104.831
10.5672 542.054
10.7465 85.4608
10.9257 77.4706
11.105 71.0761
11.2844 67.8963
11.4637 64.3201
11.6431 62.9326
11.8225 62.2447
12.002 63.8383
12.1814 162.007
12.3609 66.1262
12.5405 64.2767
12.72 67.5321
12.8996 70.8888
13.0792 79.8043
13.2589 249.951
13.4386 117.055
13.6183 259.89
13.7981 93.1209
13.9779 75.3648
14.1577 71.3781
14.3376 69.761
14.5175 68.683
14.6974 70.2508
14.8774 111.941
15.0574 139.223
15.2374 69.021
15.4175 65.6545
15.5976 65.4644
15.7778 95.773
15.958 145.738
16.1382 60.7869
16.3185 57.3767
16.4988 54.9527
16.6792 53.8712
16.8596 54.1589
17.04 55.6245
17.2205 66.9169
17.401 68.3092
17.5815 58.5492
17.7622 60.9631
17.9428 73.4547
18.1237 141.615
18.3044 91.1345
18.4852 74.0079
18.666 59.6609
18.8469 57.5798
19.0278 56.1869
19.2088 58.8672
19.3898 75.4805
19.5709 53.4782
19.752 52.7928
19.9332 55.611
20.1144 69.6924
20.2957 64.0415
20.477 52.4072
20.6586 49.18
20.84 48.2896
21.0215 48.1088
21.203 50.5443
21.3846 48.3262
21.5662 48.673
21.7479 52.4464
21.9297 64.0974
22.1115 55.6045
22.2933 49.0664
22.4753 48.1569
22.6572 48.4432
22.8393 51.6661
23.0214 56.5939
23.2037 48.3801
23.3859 49.2275
23.5682 57.1382
23.7505 47.4044
23.9329 44.8082
24.1154 43.6675
24.2979 43.0062
24.4805 42.4926
24.6631 42.4272
24.8458 41.8559
25.0286 42.5947
25.2114 44.2572
25.3943 44.1488
25.5773 40.54
25.7605 40.0106
25.9436 40.4555
26.1268 41.3696
26.31 39.6698
26.4933 40.401
26.6767 41.7343
26.8601 40.0036
27.0437 38.5011
27.2272 38.14
27.4109 37.9958
27.5946 38.0345
27.7784 37.4994
27.9623 38.0888
28.1462 38.3458
28.3304 36.7104
28.5145 35.5735
28.6987 35.343
28.8829 35.0515
29.0673 34.2541
29.2517 34.0394
29.4361 33.6962
29.6207 32.7832
29.8053 32.6426
29.99 32.2154
30.1748 32.117
30.3597 31.8919
30.5447 31.9309
30.7297 31.908
30.915 31.1882
31.1002 30.767
31.2855 30.5656
31.4708 30.6118
31.6563 29.987
31.8418 29.9033
32.0275 29.5853
32.2132 29.0182
32.399 28.6621
32.5848 28.0649
32.7708 27.9057
32.9569 27.7662
33.143 27.4861
33.3293 27.0691
33.5158 26.7065
33.7022 26.2859
33.8887 26.0339
34.0753 25.7497
34.262 25.3228
34.4488 25.0152
34.6357 24.7776
34.8227 24.3771
35.0098 24.161
35.1969 24.0182
35.3842 23.7614
35.5716 23.541
35.759 23.2524
35.9468 22.8616
36.1345 22.6503
36.3222 22.4107
36.5101 22.1937
36.6981 21.8801
36.8861 21.5271
37.0743 21.2232
37.2626 21.0361
37.451 20.7571
37.6395 20.5895
37.8281 20.2194
38.0168 19.9513
38.2056 19.7252
38.3945 19.4482
38.5837 19.2233
38.7728 18.9599
38.9621 18.7115
39.1514 18.4546
39.3409 18.288
39.5304 18.0584
39.7201 17.8531
39.9099 17.6319
40.0999 17.4482
40.2899 17.2155
40.48 16.9267
40.6703 16.7292
40.8607 16.4799
41.0512 16.3365
41.242 16.1117
41.4327 15.8785
41.6236 15.6265
41.8146 15.5263
42.0057 15.2462
42.1969 15.0267
42.3882 14.8942
42.5797 14.6655
42.7713 14.4853
42.963 14.2564
43.1549 14.0986
43.3468 13.8442
43.5389 13.6819
43.7312 13.4781
43.9237 13.2976
44.1162 13.105
44.3088 12.88
44.5016 12.7267
44.6945 12.5726
44.8875 12.4403
45.0806 12.2263
45.2739 12.0554
45.4673 11.9465
45.6609 11.7042
45.8546 11.5852
46.0484 11.3934
46.2424 11.2469
46.4365 11.0797
46.631 10.9113
46.8254 10.73
47.0199 10.5901
47.2146 10.4299
47.4095 10.2899
47.6044 10.1149
47.7996 9.97065
47.9948 9.83124
48.1902 9.69667
48.3858 9.55613
48.5815 9.44043
48.7774 9.27173
48.9734 9.14075
49.1696 8.9836
49.3661 8.84851
49.5626 8.72968
49.7592 8.61125
49.956 8.46187
50.153 8.32304
50.3501 8.21303
50.5474 8.09681
50.7448 7.956
50.9424 7.88403
51.1402 7.70803
51.3381 7.61321
51.5362 7.48446
51.7344 7.40384
51.9328 7.21275
52.1316 7.11121
52.3304 6.99828
52.5293 6.87019
52.7284 6.76874
52.9276 6.65059
53.1271 6.55508
53.3267 6.45122
53.5265 6.32428
53.7264 6.21593
53.9266 6.13053
54.1269 5.99737
54.3274 5.8998
54.528 5.76711
54.7289 5.59688
54.9301 5.4296
55.1314 5.31253
55.3328 5.10312
55.5344 4.85549
55.7361 4.78377

File: Ni3Fe_FD0817.xy
TT I
1.27165 7.32823
1.45013 5.97959
1.62863 5.54073
1.80712 4.74177
1.98562 5.30606
2.16411 5.08123
2.34263 5.61132
2.52115 7.36744
2.69965 8.95847
2.87818 9.19487
3.05672 11.3103
3.23527 15.3845
3.4138 18.6951
3.59237 22.6666
3.77094 25.7461
3.9495 29.0341
4.12809 34.2725
4.30669 106.395
4.4853 53.6082
4.6639 55.1011
4.84253 67.9617
5.02118 86.6716
5.19981 399.579
5.37848 192.238
5.55716 101.565
5.73586 92.562
5.91455 95.0039
6.09328 4591.66
6.27201 79.7324
6.45075 69.2364
6.62952 62.6095
6.8083 59.114
6.98711 55.1073
7.16591 55.7711
7.34475 67.2432
7.5236 53.7864
7.70247 56.457
7.88135 57.0743
8.06026 62.0087
8.23919 68.9765
8.41812 83.0353
8.59709 1217.95
8.77609 96.5849
8.9551 89.412
9.13412 82.7197
9.31318 84.0431
9.49226 84.4107
9.67134 94.8545
9.85047 100.82
10.0296 342.738
10.2088 348.763
10.388 104.378
10.5672 539.616
10.7465 85.4806
10.9257 77.7435
11.105 70.924
11.2844 67.6362
11.4637 64.1259
11.6431 62.888
11.8225 62.2439
12.002 63.946
12.1814 160.342
12.3609 66.1637
12.5405 64.3636
12.72 67.4621
12.8996 70.9527
13.0792 79.9982
13.2589 249.303
13.4386 117.978
13.6183 259.203
13.7981 93.3233
13.9779 75.1237
14.1577 71.3409
14.3376 69.29
14.5175 68.4047
14.6974 70.1196
14.8774 111.811
15.0574 140.912
15.2374 68.9549
15.4175 65.8079
15.5976 65.2306
15.7778 95.3229
15.958 146.301
16.1382 60.82
16.3185 57.3751
16.4988 54.8677
16.6792 53.772
16.8596 54.2902
17.04 55.6345
17.2205 66.8831
17.401 68.5864
17.5815 58.6139
17.7622 60.7868
17.9428 73.4486
18.1237 141.381
18.3044 91.2278
18.4852 74.0944
18.666 59.6397
18.8469 57.5961
19.0278 56.3885
19.2088 58.7926
19.3898 75.6046
19.5709 53.4518
19.752 52.6466
19.9332 55.7166
20.1144 69.7319
20.2957 63.9548
20.477 52.4698
20.6586 49.0514
20.84 48.2304
21.0215 48.1184
21.203 50.3857
21.3846 48.2443
21.5662 48.6731
21.7479 52.4221
21.9297 64.1704
22.1115 55.8531
22.2933 49.134
22.4753 48.4216
22.6572 48.3706
22.8393 51.7652
23.0214 56.5738
23.2037 48.2711
23.3859 49.4564
23.5682 57.1034
23.7505 47.4073
23.9329 44.7946
24.1154 43.4965
24.2979 43.0318
24.4805 42.4968
24.6631 42.3778
24.8458 41.7922
25.0286 42.5229
25.2114 44.1768
25.3943 44.054
25.5773 40.4427
25.7605 40.01
25.9436 40.4555
26.1268 41.4088
26.31 39.6888
26.4933 40.3433
26.6767 41.9056
26.8601 40.081
27.0437 38.5654
27.2272 38.1767
27.4109 38.0435
27.5946 38.0095
27.7784 37.4637
27.9623 38.11
28.1462 38.3191
28.3304 36.7716
28.5145 35.5025
28.6987 35.2393
28.8829 35.1674
29.0673 34.218
29.2517 33.9044
29.4361 33.8265
29.6207 32.8377
29.8053 32.5765
29.99 32.2621
30.1748 32.043
30.3597 31.8919
30.5447 31.8727
30.7297 31.8949
30.915 31.2638
31.1002 30.9032
31.2855 30.57
31.4708 30.5791
31.6563 30.0466
31.8418 29.9188
32.0275 29.607
32.2132 29.0877
32.399 28.6556
32.5848 28.2081
32.7708 27.8269
32.9569 27.714
33.143 27.5414
33.3293 27.1128
33.5158 26.7675
33.7022 26.3836
33.8887 26.0224
34.0753 25.7341
34.262 25.4435
34.4488 25.0758
34.6357 24.7221
34.8227 24.3754
35.0098 24.2425
35.1969 23.9745
35.3842 23.7171
35.5716 23.5241
35.759 23.2354
35.9468 22.8946
36.1345 22.5815
36.3222 22.4116
36.5101 22.2256
36.6981 21.9093
36.8861 21.6129
37.0743 21.3242
37.2626 21.0697
37.451 20.7794
37.6395 20.5232
37.8281 20.2846
38.0168 20.0293
38.2056 19.7669
38.3945 19.5264
38.5837 19.222
38.7728 19.0374
38.9621 18.7735
39.1514 18.5246
39.3409 18.3218
39.5304 18.1032
39.7201 17.8675
39.9099 17.6368
40.0999 17.3919
40.2899 17.1876
40.48 16.8916
40.6703 16.7439
40.8607 16.505
41.0512 16.3387
41.242 16.0309
41.4327 15.888
41.6236 15.611
41.8146 15.4767
42.0057 15.2258
42.1969 15.0464
42.3882 14.8717
42.5797 14.6816
42.7713 14.5113
42.963 14.3011
43.1549 14.0843
43.3468 13.8739
43.5389 13.6966
43.7312 13.4748
43.9237 13.3246
44.1162 13.1165
44.3088 12.9775
44.5016 12.7746
44.6945 12.5742
44.8875 12.4212
45.0806 12.2514
45.2739 12.1184
45.4673 11.9295
45.6609 11.7219
45.8546 11.5391
46.0484 11.3855
46.2424 11.224
46.4365 11.1029
46.631 10.9245
46.8254 10.7196
47.0199 10.601
47.2146 10.4411
47.4095 10.2965
47.6044 10.1304
47.7996 9.95333
47.9948 9.85639
48.1902 9.67785
48.3858 9.56977
48.5815 9.41443
48.7774 9.2736
48.9734 9.13686
49.1696 9.04501
49.3661 8.87892
49.5626 8.70918
49.7592 8.60898
49.956 8.45412
50.153 8.33355
50.3501 8.1959
50.5474 8.10369
50.7448 7.96057
50.9424 7.84653
51.1402 7.73417
51.3381 7.6085
51.5362 7.47607
51.7344 7.37679
51.9328 7.21805
52.1316 7.09922
52.3304 6.99478
52.5293 6.90839
52.7284 6.77563
52.9276 6.64557
53.1271 6.5551
53.3267 6.44143
53.5265 6.31829
53.7264 6.21394
53.9266 6.11563
54.1269 5.99169
54.3274 5.88055
54.528 5.76467
54.7289 5.57237
54.9301 5.46449
55.1314 5.29241
55.3328 5.15229
55.5344 4.87301
55.7361 4.79826

File: Ni3Fe_FD0818.xy
TT I
1.27165 7.19355
1.45013 5.71426
1.62863 5.69042
1.80712 4.50571
1.98562 4.56939
2.16411 5.1889
2.34263 5.32936
2.52115 6.89246
2.69965 8.29115
2.87818 9.18202
3.05672 11.1582
3.23527 14.982
3.4138 18.5164
3.59237 23.079
3.77094 25.6691
3.9495 29.4494
4.12809 34.3096
4.30669 102.894
4.4853 53.3758
4.6639 55.008
4.84253 68.5756
5.02118 86.9101
5.19981 401.416
5.37848 192.516
5.55716 101.632
5.73586 92.4032
5.91455 95.0252
6.09328 4587.16
6.27201 79.8679
6.45075 69.4369
6.62952 62.5362
6.8083 59.2992
6.98711 55.5744
7.16591 55.6037
7.34475 66.467
7.5236 53.7932
7.70247 56.4875
7.88135 57.1012
8.06026 62.1444
8.23919 69.0193
8.41812 83.5891
8.59709 1226.44
8.77609 97.072
8.9551 88.9749
9.13412 82.8403
9.31318 84.7137
9.49226 84.6316
9.67134 95.1288
9.85047 100.74
10.0296 345.575
10.2088 346.108
10.388 104.973
10.5672 542.085
10.7465 85.8429
10.9257 77.4373
11.105 70.9137
11.2844 67.8759
11.4637 64.2062
11.6431 63.0342
11.8225 62.4083
12.002 63.8226
12.1814 161.357
12.3609 66.3079
12.5405 64.5318
12.72 67.563
12.8996 71.0306
13.0792 79.8818
13.2589 250.564
13.4386 117.244
13.6183 260.399
13.7981 92.9951
13.9779 74.9625
14.1577 71.4829
14.3376 69.9072
14.5175 68.355
14.6974 69.8572
14.8774 112.031
15.0574 139.113
15.2374 68.9087
15.4175 65.9621
15.5976 65.4872
15.7778 95.5835
15.958 145.808
16.1382 60.8051
16.3185 57.5054
16.4988 55.0798
16.6792 53.9576
16.8596 54.4221
17.04 55.344
17.2205 66.875
17.401 68.3053
17.5815 58.579
17.7622 60.8
17.9428 73.2785
18.1237 142.033
18.3044 91.4799
18.4852 73.881
18.666 59.7723
18.8469 57.4044
19.0278 56.4339
19.2088 58.7129
19.3898 75.3577
19.5709 53.5905
19.752 52.9004
19.9332 55.7974
20.1144 69.7588
20.2957 64.1599
20.477 52.414
20.6586 49.1455
20.84 48.3525
21.0215 48.0914
21.203 50.4775
21.3846 48.2811
21.5662 48.7806
21.7479 52.1937
21.9297 64.129
22.1115 55.8538
22.2933 49.1213
22.4753 48.2498
22.6572 48.4633
22.8393 51.7307
23.0214 56.6222
23.2037 48.3193
23.3859 49.4143
23.5682 57.274
23.7505 47.4675
23.9329 44.6655
24.1154 43.6026
24.2979 42.8943
24.4805 42.5399
24.6631 42.4168
24.8458 41.862
25.0286 42.5297
25.2114 44.2558
25.3943 44.0854
25.5773 40.544
25.7605 40.0652
25.9436 40.5909
26.1268 41.2979
26.31 39.6697
26.4933 40.3888
26.6767 41.7085
26.8601 40.0863
27.0437 38.4796
27.2272 38.1574
27.4109 38.048
27.5946 37.9514
27.7784 37.5266
27.9623 38.0994
28.1462 38.3377
28.3304 36.7225
28.5145 35.5611
28.6987 35.2985
28.8829 35.0954
29.0673 34.3064
29.2517 33.9708
29.4361 33.8271
29.6207 32.7796
29.8053 32.5797
29.99 32.2278
30.1748 32.1144
30.3597 32.0605
30.5447 31.9353
30.7297 31.9217
30.915 31.2597
31.1002 30.8462
31.2855 30.5249
31.4708 30.5123
31.6563 29.9643
31.8418 29.8954
32.0275 29.6862
32.2132 29.0515
32.399 28.6011
32.5848 28.2134
32.7708 27.924
32.9569 27.7615
33.143 27.5866
33.3293 27.1604
33.5158 26.705
33.7022 26.2574
33.8887 26.0611
34.0753 25.6643
34.262 25.3981
34.4488 24.9932
34.6357 24.7094
34.8227 24.4244
35.0098 24.2408
35.1969 23.9561
35.3842 23.82
35.5716 23.5489
35.759 23.2611
35.9468 22.9527
36.1345 22.6999
36.3222 22.4499
36.5101 22.2176
36.6981 21.916
36.8861 21.5889
37.0743 21.3408
37.2626 21.0494
37.451 20.7576
37.6395 20.6486
37.8281 20.2032
38.0168 19.9858
38.2056 19.8225
38.3945 19.4676
38.5837 19.2015
38.7728 18.9907
38.9621 18.8122
39.1514 18.5271
39.3409 18.2866
39.5304 18.013
39.7201 17.8232
39.9099 17.6833
40.0999 17.4353
40.2899 17.1359
40.48 16.9414
40.6703 16.8303
40.8607 16.534
41.0512 16.3818
41.242 16.0587
41.4327 15.8707
41.6236 15.66
41.8146 15.4821
42.0057 15.2647
42.1969 15.0459
42.3882 14.8809
42.5797 14.6602
42.7713 14.4776
42.963 14.2751
43.1549 14.0542
43.3468 13.8791
43.5389 13.7095
43.7312 13.5196
43.9237 13.3302
44.1162 13.0957
44.3088 12.9914
44.5016 12.7687
44.6945 12.5758
44.8875 12.4498
45.0806 12.2177
45.2739 12.0676
45.4673 11.9028
45.6609 11.7223
45.8546 11.5812
46.0484 11.3836
46.2424 11.2546
46.4365 11.1138
46.631 10.9063
46.8254 10.7082
47.0199 10.5864
47.2146 10.4687
47.4095 10.2863
47.6044 10.1589
47.7996 9.97145
47.9948 9.82862
48.1902 9.72502
48.3858 9.58048
48.5815 9.39101
48.7774 9.28856
48.9734 9.16127
49.1696 9.02745
49.3661 8.82791
49.5626 8.74258
49.7592 8.60902
49.956 8.47314
50.153 8.33639
50.3501 8.19439
50.5474 8.0874
50.7448 7.97376
50.9424 7.85609
51.1402 7.7201
51.3381 7.59618
51.5362 7.50999
51.7344 7.33297
51.9328 7.24743
52.1316 7.13422
52.3304 7.03222
52.5293 6.87478
52.7284 6.77198
52.9276 6.64688
53.1271 6.57738
53.3267 6.40534
53.5265 6.30594
53.7264 6.19289
53.9266 6.08839
54.1269 5.99219
54.3274 5.87935
54.528 5.7692
54.7289 5.56734
54.9301 5.43994
55.1314 5.28302
55.3328 5.13368
55.5344 4.94221
55.7361 4.78851