Folder: NiFe_MOF_catalyst_paper/XRD (part 137)

File: Ni3Fe_FD0740.xy
TT I
1.27165 7.56012
1.45013 6.41972
1.62863 5.32296
1.80712 5.43505
1.98562 4.1894
2.16411 5.44014
2.34263 5.60867
2.52115 7.65508
2.69965 8.5133
2.87818 8.68658
3.05672 11.1195
3.23527 15.1142
3.4138 18.8691
3.59237 23.9488
3.77094 26.37
3.9495 29.6024
4.12809 34.9164
4.30669 220.722
4.4853 65.6096
4.6639 55.2272
4.84253 66.6175
5.02118 85.8874
5.19981 318.93
5.37848 185.428
5.55716 101.636
5.73586 91.3037
5.91455 92.5471
6.09328 4575.71
6.27201 82.8173
6.45075 66.6886
6.62952 62.8379
6.8083 58.5553
6.98711 55.4416
7.16591 54.835
7.34475 91.2551
7.5236 54.5174
7.70247 56.0034
7.88135 57.7018
8.06026 62.2374
8.23919 69.286
8.41812 84.3743
8.59709 1162.49
8.77609 99.0323
8.9551 90.9351
9.13412 81.6178
9.31318 82.0007
9.49226 83.9697
9.67134 97.761
9.85047 99.1403
10.0296 321.025
10.2088 415.974
10.388 103.883
10.5672 516.997
10.7465 85.7588
10.9257 77.9406
11.105 71.662
11.2844 69.9074
11.4637 64.6909
11.6431 63.4521
11.8225 62.299
12.002 62.9094
12.1814 151.446
12.3609 70.2689
12.5405 64.3478
12.72 69.5219
12.8996 70.4704
13.0792 78.0505
13.2589 234.86
13.4386 126.608
13.6183 245.1
13.7981 97.4215
13.9779 75.4105
14.1577 71.7304
14.3376 71.2616
14.5175 68.1107
14.6974 69.8103
14.8774 108.282
15.0574 151.54
15.2374 70.7185
15.4175 65.8972
15.5976 65.3942
15.7778 92.6626
15.958 156.341
16.1382 62.4498
16.3185 58.374
16.4988 55.2126
16.6792 54.0129
16.8596 54.8718
17.04 55.3126
17.2205 66.1166
17.401 70.6486
17.5815 58.8031
17.7622 60.8634
17.9428 72.1477
18.1237 138.585
18.3044 90.2721
18.4852 77.4975
18.666 59.9852
18.8469 57.6974
19.0278 56.4417
19.2088 58.9212
19.3898 76.2865
19.5709 54.0092
19.752 52.9165
19.9332 55.7821
20.1144 69.2306
20.2957 63.5156
20.477 53.7018
20.6586 49.3634
20.84 48.5581
21.0215 48.2714
21.203 50.591
21.3846 48.7285
21.5662 48.4255
21.7479 52.0224
21.9297 64.2597
22.1115 55.7539
22.2933 49.9623
22.4753 48.6172
22.6572 48.5073
22.8393 51.6297
23.0214 56.9257
23.2037 48.4245
23.3859 49.2002
23.5682 56.8747
23.7505 48.19
23.9329 44.9874
24.1154 43.8516
24.2979 43.1933
24.4805 42.7012
24.6631 42.6788
24.8458 41.9381
25.0286 42.5013
25.2114 44.5537
25.3943 44.3513
25.5773 40.6796
25.7605 40.2334
25.9436 40.635
26.1268 41.358
26.31 39.9007
26.4933 40.5569
26.6767 41.8189
26.8601 40.3793
27.0437 38.7085
27.2272 38.3106
27.4109 38.1938
27.5946 38.2292
27.7784 37.656
27.9623 38.2523
28.1462 38.5785
28.3304 36.9721
28.5145 35.8098
28.6987 35.4493
28.8829 35.1959
29.0673 34.5284
29.2517 34.1118
29.4361 34.0259
29.6207 32.9745
29.8053 32.7396
29.99 32.4632
30.1748 32.3444
30.3597 32.0342
30.5447 31.9948
30.7297 32.0161
30.915 31.419
31.1002 30.9542
31.2855 30.6623
31.4708 30.5778
31.6563 30.2023
31.8418 29.9854
32.0275 29.7429
32.2132 29.2352
32.399 28.8141
32.5848 28.4008
32.7708 28.0322
32.9569 27.7913
33.143 27.7099
33.3293 27.2544
33.5158 26.9639
33.7022 26.4589
33.8887 26.242
34.0753 25.9059
34.262 25.5905
34.4488 25.0979
34.6357 24.8378
34.8227 24.6074
35.0098 24.3698
35.1969 24.1309
35.3842 23.8585
35.5716 23.7092
35.759 23.3462
35.9468 22.9479
36.1345 22.8543
36.3222 22.5541
36.5101 22.263
36.6981 22.0454
36.8861 21.671
37.0743 21.4603
37.2626 21.2044
37.451 20.8878
37.6395 20.7319
37.8281 20.4127
38.0168 20.1511
38.2056 19.8343
38.3945 19.5617
38.5837 19.4031
38.7728 19.1526
38.9621 18.8951
39.1514 18.6032
39.3409 18.4381
39.5304 18.1697
39.7201 17.9747
39.9099 17.7792
40.0999 17.5467
40.2899 17.2866
40.48 17.0664
40.6703 16.8353
40.8607 16.6227
41.0512 16.4391
41.242 16.1966
41.4327 16.0484
41.6236 15.7482
41.8146 15.6067
42.0057 15.3184
42.1969 15.1711
42.3882 14.9043
42.5797 14.7478
42.7713 14.5879
42.963 14.3473
43.1549 14.1723
43.3468 13.9743
43.5389 13.8102
43.7312 13.6124
43.9237 13.4143
44.1162 13.2246
44.3088 13.0606
44.5016 12.8319
44.6945 12.6709
44.8875 12.51
45.0806 12.3218
45.2739 12.1566
45.4673 11.9885
45.6609 11.7776
45.8546 11.6551
46.0484 11.4748
46.2424 11.3166
46.4365 11.1499
46.631 10.9559
46.8254 10.8197
47.0199 10.6631
47.2146 10.5336
47.4095 10.3569
47.6044 10.1636
47.7996 10.0502
47.9948 9.86618
48.1902 9.74094
48.3858 9.61241
48.5815 9.50049
48.7774 9.35331
48.9734 9.24317
49.1696 9.05227
49.3661 8.96824
49.5626 8.76487
49.7592 8.63766
49.956 8.52882
50.153 8.4155
50.3501 8.26162
50.5474 8.16548
50.7448 8.00652
50.9424 7.90867
51.1402 7.78506
51.3381 7.63739
51.5362 7.50535
51.7344 7.41616
51.9328 7.27397
52.1316 7.15923
52.3304 7.04984
52.5293 6.93478
52.7284 6.80996
52.9276 6.70363
53.1271 6.61263
53.3267 6.47481
53.5265 6.39106
53.7264 6.28385
53.9266 6.14633
54.1269 6.0088
54.3274 5.90948
54.528 5.83306
54.7289 5.66504
54.9301 5.43634
55.1314 5.30571
55.3328 5.12963
55.5344 4.93695
55.7361 4.80333

File: Ni3Fe_FD0741.xy
TT I
1.27165 7.11491
1.45013 6.59168
1.62863 5.27212
1.80712 4.54488
1.98562 4.21475
2.16411 4.82626
2.34263 5.25184
2.52115 7.70074
2.69965 8.67008
2.87818 8.67897
3.05672 11.2514
3.23527 15.1922
3.4138 18.9376
3.59237 24.046
3.77094 26.2191
3.9495 29.8274
4.12809 35.01
4.30669 222.605
4.4853 65.9047
4.6639 55.3178
4.84253 66.8961
5.02118 86.101
5.19981 317.942
5.37848 185.16
5.55716 101.658
5.73586 91.782
5.91455 92.9104
6.09328 4573.76
6.27201 82.7671
6.45075 67.1317
6.62952 62.7979
6.8083 58.6943
6.98711 56.2145
7.16591 55.0216
7.34475 91.4824
7.5236 54.6652
7.70247 55.9875
7.88135 57.2193
8.06026 61.9636
8.23919 69.2735
8.41812 84.2787
8.59709 1162.19
8.77609 99.0057
8.9551 91.2103
9.13412 81.7894
9.31318 82.044
9.49226 84.0103
9.67134 98.0675
9.85047 98.7618
10.0296 321.273
10.2088 414.128
10.388 103.508
10.5672 516.829
10.7465 85.9843
10.9257 78.205
11.105 71.8961
11.2844 70.4004
11.4637 64.586
11.6431 63.5421
11.8225 62.3192
12.002 63.0743
12.1814 151.907
12.3609 70.449
12.5405 64.3407
12.72 69.6972
12.8996 70.3005
13.0792 78.1799
13.2589 234.708
13.4386 126.451
13.6183 245.175
13.7981 97.9028
13.9779 75.5767
14.1577 72.165
14.3376 71.352
14.5175 68.4884
14.6974 70.0291
14.8774 108.419
15.0574 151.327
15.2374 70.814
15.4175 66.0484
15.5976 65.3878
15.7778 93.1096
15.958 156.117
16.1382 62.7903
16.3185 58.5147
16.4988 55.4108
16.6792 54.276
16.8596 54.929
17.04 55.3877
17.2205 66.1853
17.401 70.8347
17.5815 58.9762
17.7622 60.8896
17.9428 72.4386
18.1237 138.366
18.3044 90.0974
18.4852 77.2711
18.666 60.0828
18.8469 57.7671
19.0278 56.5982
19.2088 59.0032
19.3898 75.9721
19.5709 54.0276
19.752 52.8707
19.9332 55.7016
20.1144 69.3639
20.2957 63.6258
20.477 53.4506
20.6586 49.6119
20.84 48.4203
21.0215 48.2813
21.203 50.7224
21.3846 48.747
21.5662 48.3339
21.7479 52.1274
21.9297 64.1073
22.1115 55.693
22.2933 49.7659
22.4753 48.6503
22.6572 48.4462
22.8393 51.5341
23.0214 57.0297
23.2037 48.5058
23.3859 49.3689
23.5682 56.7243
23.7505 48.1308
23.9329 44.9344
24.1154 43.837
24.2979 43.1235
24.4805 42.7655
24.6631 42.641
24.8458 41.8776
25.0286 42.6742
25.2114 44.3498
25.3943 44.3272
25.5773 40.6518
25.7605 40.2765
25.9436 40.5599
26.1268 41.4542
26.31 39.9198
26.4933 40.4436
26.6767 41.8792
26.8601 40.2583
27.0437 38.823
27.2272 38.2755
27.4109 38.1644
27.5946 38.133
27.7784 37.5626
27.9623 38.2353
28.1462 38.5492
28.3304 37.0652
28.5145 35.7469
28.6987 35.3587
28.8829 35.2001
29.0673 34.5116
29.2517 34.2313
29.4361 34.0024
29.6207 33.0358
29.8053 32.7403
29.99 32.3616
30.1748 32.2457
30.3597 32.1078
30.5447 31.8905
30.7297 32.0913
30.915 31.4382
31.1002 30.888
31.2855 30.6515
31.4708 30.6993
31.6563 30.1839
31.8418 29.9836
32.0275 29.8169
32.2132 29.2678
32.399 28.7548
32.5848 28.3758
32.7708 28.0567
32.9569 27.867
33.143 27.6734
33.3293 27.3285
33.5158 26.926
33.7022 26.4202
33.8887 26.1829
34.0753 25.8148
34.262 25.5466
34.4488 25.1697
34.6357 24.8416
34.8227 24.5254
35.0098 24.3666
35.1969 24.1285
35.3842 23.8287
35.5716 23.6696
35.759 23.3393
35.9468 22.955
36.1345 22.7604
36.3222 22.4857
36.5101 22.3436
36.6981 22.0928
36.8861 21.7063
37.0743 21.4207
37.2626 21.1679
37.451 20.8758
37.6395 20.7928
37.8281 20.4097
38.0168 20.1009
38.2056 19.863
38.3945 19.6316
38.5837 19.3968
38.7728 19.1624
38.9621 18.8311
39.1514 18.6765
39.3409 18.4246
39.5304 18.1544
39.7201 17.9772
39.9099 17.7594
40.0999 17.5182
40.2899 17.2675
40.48 16.9752
40.6703 16.8275
40.8607 16.6916
41.0512 16.4732
41.242 16.1852
41.4327 15.9658
41.6236 15.7473
41.8146 15.5853
42.0057 15.3914
42.1969 15.2092
42.3882 15.0089
42.5797 14.7285
42.7713 14.573
42.963 14.3178
43.1549 14.1799
43.3468 13.9227
43.5389 13.7506
43.7312 13.5816
43.9237 13.4329
44.1162 13.1897
44.3088 13.0163
44.5016 12.8252
44.6945 12.6404
44.8875 12.4986
45.0806 12.2883
45.2739 12.1733
45.4673 12.0239
45.6609 11.7847
45.8546 11.6539
46.0484 11.448
46.2424 11.3261
46.4365 11.161
46.631 10.9852
46.8254 10.7752
47.0199 10.6796
47.2146 10.5335
47.4095 10.3215
47.6044 10.1856
47.7996 10.0449
47.9948 9.88674
48.1902 9.76648
48.3858 9.62114
48.5815 9.47462
48.7774 9.32898
48.9734 9.2219
49.1696 9.06225
49.3661 8.9262
49.5626 8.78614
49.7592 8.69341
49.956 8.54189
50.153 8.38991
50.3501 8.25759
50.5474 8.1742
50.7448 8.01615
50.9424 7.89342
51.1402 7.77129
51.3381 7.59768
51.5362 7.53087
51.7344 7.4035
51.9328 7.29439
52.1316 7.15788
52.3304 7.04361
52.5293 6.95061
52.7284 6.7773
52.9276 6.68545
53.1271 6.60617
53.3267 6.45692
53.5265 6.3478
53.7264 6.23058
53.9266 6.12912
54.1269 6.04444
54.3274 5.88237
54.528 5.75413
54.7289 5.64728
54.9301 5.46843
55.1314 5.30861
55.3328 5.11786
55.5344 4.93123
55.7361 4.83111

File: Ni3Fe_FD0742.xy
TT I
1.27165 7.50167
1.45013 5.72325
1.62863 5.17689
1.80712 4.84459
1.98562 4.78613
2.16411 5.01289
2.34263 6.14126
2.52115 7.3712
2.69965 8.31177
2.87818 8.57631
3.05672 11.3714
3.23527 15.0324
3.4138 18.6467
3.59237 24.0163
3.77094 26.1635
3.9495 30.2636
4.12809 34.8684
4.30669 223.609
4.4853 65.5378
4.6639 55.38
4.84253 67.1391
5.02118 85.953
5.19981 317.629
5.37848 185.247
5.55716 101.193
5.73586 91.7843
5.91455 92.5954
6.09328 4561.01
6.27201 82.4779
6.45075 67.5401
6.62952 62.3892
6.8083 58.5361
6.98711 55.9026
7.16591 54.7672
7.34475 92.0303
7.5236 54.5191
7.70247 55.8436
7.88135 57.4414
8.06026 62.0368
8.23919 69.115
8.41812 84.7871
8.59709 1160.87
8.77609 98.5498
8.9551 91.3412
9.13412 81.4795
9.31318 82.1087
9.49226 84.2395
9.67134 98.315
9.85047 99.1217
10.0296 320.185
10.2088 411.195
10.388 103.687
10.5672 517.369
10.7465 86.1179
10.9257 78.5606
11.105 71.4709
11.2844 70.234
11.4637 64.5945
11.6431 63.5104
11.8225 62.0741
12.002 63.1778
12.1814 151.346
12.3609 70.7029
12.5405 64.1901
12.72 70.0157
12.8996 70.5274
13.0792 78.0138
13.2589 235.031
13.4386 126.185
13.6183 244.8
13.7981 97.9715
13.9779 75.3573
14.1577 72.2097
14.3376 71.4593
14.5175 68.4847
14.6974 69.9363
14.8774 108.262
15.0574 151.605
15.2374 70.9466
15.4175 66.2019
15.5976 65.3196
15.7778 92.8196
15.958 156.423
16.1382 62.5917
16.3185 58.4356
16.4988 55.3001
16.6792 54.3411
16.8596 55.0766
17.04 55.2661
17.2205 66.1314
17.401 70.7704
17.5815 59.0484
17.7622 60.8396
17.9428 72.4897
18.1237 138.727
18.3044 90.1406
18.4852 77.2198
18.666 60.0541
18.8469 57.6772
19.0278 56.536
19.2088 58.9044
19.3898 76.1681
19.5709 54.2226
19.752 53.0716
19.9332 55.8779
20.1144 69.1252
20.2957 63.6709
20.477 53.6148
20.6586 49.4493
20.84 48.645
21.0215 48.3105
21.203 50.6456
21.3846 48.7898
21.5662 48.4662
21.7479 52.1066
21.9297 64.254
22.1115 55.6866
22.2933 49.7477
22.4753 48.733
22.6572 48.529
22.8393 51.8259
23.0214 56.9242
23.2037 48.5448
23.3859 49.3049
23.5682 56.8749
23.7505 48.1664
23.9329 44.9491
24.1154 43.9609
24.2979 43.2334
24.4805 42.6522
24.6631 42.58
24.8458 42.1056
25.0286 42.5441
25.2114 44.4763
25.3943 44.4173
25.5773 40.8108
25.7605 40.2587
25.9436 40.6007
26.1268 41.474
26.31 39.8645
26.4933 40.5075
26.6767 41.8811
26.8601 40.2307
27.0437 38.6442
27.2272 38.2231
27.4109 38.1815
27.5946 38.1342
27.7784 37.7391
27.9623 38.1568
28.1462 38.6043
28.3304 36.9769
28.5145 35.7845
28.6987 35.4053
28.8829 35.403
29.0673 34.4529
29.2517 34.1185
29.4361 33.9575
29.6207 32.9889
29.8053 32.785
29.99 32.4902
30.1748 32.4359
30.3597 32.0472
30.5447 32.0199
30.7297 32.0829
30.915 31.4011
31.1002 30.9046
31.2855 30.6993
31.4708 30.7292
31.6563 30.2247
31.8418 29.9865
32.0275 29.751
32.2132 29.2819
32.399 28.8291
32.5848 28.3712
32.7708 28.0129
32.9569 27.91
33.143 27.6314
33.3293 27.2708
33.5158 26.8647
33.7022 26.4614
33.8887 26.2777
34.0753 25.9195
34.262 25.5106
34.4488 25.1691
34.6357 24.9422
34.8227 24.5357
35.0098 24.3597
35.1969 24.1359
35.3842 23.9223
35.5716 23.6464
35.759 23.2889
35.9468 23.0145
36.1345 22.7713
36.3222 22.5781
36.5101 22.3323
36.6981 21.9975
36.8861 21.665
37.0743 21.3662
37.2626 21.1263
37.451 20.921
37.6395 20.8007
37.8281 20.449
38.0168 20.0713
38.2056 19.8755
38.3945 19.66
38.5837 19.3486
38.7728 19.1281
38.9621 18.8964
39.1514 18.5889
39.3409 18.387
39.5304 18.1508
39.7201 17.9192
39.9099 17.7565
40.0999 17.5434
40.2899 17.2507
40.48 17.1201
40.6703 16.8202
40.8607 16.686
41.0512 16.4295
41.242 16.1928
41.4327 15.9874
41.6236 15.7459
41.8146 15.6115
42.0057 15.3708
42.1969 15.1529
42.3882 14.9644
42.5797 14.7327
42.7713 14.6014
42.963 14.3328
43.1549 14.1466
43.3468 13.9607
43.5389 13.7905
43.7312 13.5575
43.9237 13.3975
44.1162 13.2139
44.3088 13.014
44.5016 12.8589
44.6945 12.6711
44.8875 12.4938
45.0806 12.3319
45.2739 12.1724
45.4673 12.0086
45.6609 11.8047
45.8546 11.6496
46.0484 11.4787
46.2424 11.304
46.4365 11.1903
46.631 10.956
46.8254 10.8172
47.0199 10.6632
47.2146 10.4935
47.4095 10.3261
47.6044 10.237
47.7996 10.044
47.9948 9.90837
48.1902 9.77652
48.3858 9.63298
48.5815 9.4936
48.7774 9.38949
48.9734 9.24256
49.1696 9.04351
49.3661 8.92955
49.5626 8.81005
49.7592 8.69404
49.956 8.56265
50.153 8.41396
50.3501 8.30375
50.5474 8.10995
50.7448 7.99962
50.9424 7.89982
51.1402 7.77784
51.3381 7.65971
51.5362 7.5295
51.7344 7.39172
51.9328 7.27772
52.1316 7.17533
52.3304 7.06509
52.5293 6.90057
52.7284 6.80364
52.9276 6.69888
53.1271 6.60964
53.3267 6.47459
53.5265 6.3637
53.7264 6.24729
53.9266 6.15673
54.1269 6.06687
54.3274 5.96003
54.528 5.77554
54.7289 5.59559
54.9301 5.47518
55.1314 5.34263
55.3328 5.1458
55.5344 4.96664
55.7361 4.8067

File: Ni3Fe_FD0743.xy
TT I
1.27165 7.51048
1.45013 5.9751
1.62863 5.62302
1.80712 4.42131
1.98562 4.60329
2.16411 5.25919
2.34263 5.56119
2.52115 6.7895
2.69965 8.48459
2.87818 9.38943
3.05672 11.4387
3.23527 15.178
3.4138 19.039
3.59237 23.8955
3.77094 26.622
3.9495 29.6881
4.12809 34.9999
4.30669 227.158
4.4853 66.1085
4.6639 55.3145
4.84253 66.9569
5.02118 85.6445
5.19981 316.557
5.37848 184.951
5.55716 101.785
5.73586 91.299
5.91455 92.9014
6.09328 4550.34
6.27201 82.58
6.45075 66.6518
6.62952 62.6727
6.8083 58.4442
6.98711 55.9699
7.16591 54.9114
7.34475 92.5603
7.5236 54.5411
7.70247 55.94
7.88135 57.932
8.06026 61.9034
8.23919 69.2352
8.41812 84.5569
8.59709 1150.83
8.77609 98.4407
8.9551 91.8893
9.13412 81.428
9.31318 82.2811
9.49226 84.129
9.67134 97.9216
9.85047 99.1265
10.0296 319.624
10.2088 411.953
10.388 103.668
10.5672 513.792
10.7465 86.1234
10.9257 78.2144
11.105 71.49
11.2844 70.5197
11.4637 64.613
11.6431 63.4608
11.8225 62.1094
12.002 63.3846
12.1814 151.09
12.3609 70.5315
12.5405 64.2202
12.72 69.6871
12.8996 70.3253
13.0792 77.8967
13.2589 233.632
13.4386 126.595
13.6183 243.364
13.7981 97.9317
13.9779 75.6148
14.1577 72.1744
14.3376 71.3033
14.5175 68.644
14.6974 69.8671
14.8774 108.094
15.0574 151.618
15.2374 70.8642
15.4175 66.0469
15.5976 65.2687
15.7778 92.944
15.958 156.74
16.1382 62.5266
16.3185 58.3707
16.4988 55.2356
16.6792 54.312
16.8596 54.984
17.04 55.4271
17.2205 66.0682
17.401 70.8771
17.5815 58.8475
17.7622 60.905
17.9428 72.3809
18.1237 139.138
18.3044 90.2655
18.4852 77.2532
18.666 60.2074
18.8469 57.7427
19.0278 56.6547
19.2088 59.0329
19.3898 76.1471
19.5709 53.9876
19.752 52.9714
19.9332 55.8001
20.1144 69.3635
20.2957 63.731
20.477 53.5773
20.6586 49.4072
20.84 48.6881
21.0215 48.1606
21.203 50.5532
21.3846 48.6352
21.5662 48.3787
21.7479 52.0464
21.9297 64.2968
22.1115 55.7818
22.2933 49.6755
22.4753 48.7077
22.6572 48.5745
22.8393 51.4345
23.0214 57.1105
23.2037 48.7282
23.3859 49.2422
23.5682 56.7987
23.7505 48.2291
23.9329 44.9422
24.1154 43.9119
24.2979 43.1622
24.4805 42.6642
24.6631 42.5585
24.8458 41.9898
25.0286 42.5451
25.2114 44.524
25.3943 44.3685
25.5773 40.7874
25.7605 40.4074
25.9436 40.6283
26.1268 41.4657
26.31 39.9047
26.4933 40.6052
26.6767 41.9078
26.8601 40.2317
27.0437 38.7708
27.2272 38.2919
27.4109 38.0758
27.5946 38.0515
27.7784 37.7428
27.9623 38.192
28.1462 38.6486
28.3304 37.0629
28.5145 35.9168
28.6987 35.4379
28.8829 35.2739
29.0673 34.5331
29.2517 34.2293
29.4361 34.05
29.6207 32.9647
29.8053 32.6385
29.99 32.4484
30.1748 32.3659
30.3597 32.118
30.5447 32.0527
30.7297 32.1204
30.915 31.4442
31.1002 31.0139
31.2855 30.7742
31.4708 30.6231
31.6563 30.2521
31.8418 29.9777
32.0275 29.7094
32.2132 29.2176
32.399 28.8535
32.5848 28.361
32.7708 27.9725
32.9569 27.9297
33.143 27.596
33.3293 27.2252
33.5158 26.8743
33.7022 26.3689
33.8887 26.1862
34.0753 25.8869
34.262 25.4961
34.4488 25.1399
34.6357 24.8954
34.8227 24.5484
35.0098 24.4116
35.1969 24.0181
35.3842 23.9426
35.5716 23.6716
35.759 23.4294
35.9468 23.0509
36.1345 22.7352
36.3222 22.5838
36.5101 22.3421
36.6981 22.0202
36.8861 21.693
37.0743 21.4884
37.2626 21.1875
37.451 20.9525
37.6395 20.7319
37.8281 20.362
38.0168 20.0952
38.2056 19.8985
38.3945 19.6041
38.5837 19.3654
38.7728 19.1486
38.9621 18.8501
39.1514 18.5859
39.3409 18.3923
39.5304 18.1725
39.7201 17.9796
39.9099 17.7663
40.0999 17.4746
40.2899 17.2868
40.48 17.0439
40.6703 16.9371
40.8607 16.6845
41.0512 16.4591
41.242 16.1981
41.4327 16.008
41.6236 15.7656
41.8146 15.5496
42.0057 15.3598
42.1969 15.1377
42.3882 14.9558
42.5797 14.8012
42.7713 14.5745
42.963 14.3528
43.1549 14.135
43.3468 13.9292
43.5389 13.754
43.7312 13.5625
43.9237 13.4485
44.1162 13.2051
44.3088 13.056
44.5016 12.8668
44.6945 12.6671
44.8875 12.5342
45.0806 12.3431
45.2739 12.111
45.4673 12.0364
45.6609 11.7982
45.8546 11.6655
46.0484 11.5063
46.2424 11.3269
46.4365 11.1404
46.631 11.0037
46.8254 10.8329
47.0199 10.7064
47.2146 10.4995
47.4095 10.361
47.6044 10.2078
47.7996 10.0481
47.9948 9.90571
48.1902 9.74682
48.3858 9.65804
48.5815 9.50398
48.7774 9.31537
48.9734 9.22399
49.1696 9.04737
49.3661 8.90144
49.5626 8.81118
49.7592 8.67445
49.956 8.53553
50.153 8.39691
50.3501 8.26159
50.5474 8.13005
50.7448 8.04462
50.9424 7.91702
51.1402 7.7691
51.3381 7.65105
51.5362 7.53062
51.7344 7.38763
51.9328 7.28236
52.1316 7.13955
52.3304 7.04224
52.5293 6.92706
52.7284 6.81656
52.9276 6.67329
53.1271 6.59503
53.3267 6.4978
53.5265 6.35797
53.7264 6.25185
53.9266 6.13757
54.1269 6.01773
54.3274 5.88113
54.528 5.76958
54.7289 5.59901
54.9301 5.44694
55.1314 5.34926
55.3328 5.10247
55.5344 4.94692
55.7361 4.78489

File: Ni3Fe_FD0745.xy
TT I
1.27165 7.21873
1.45013 6.48905
1.62863 5.23528
1.80712 4.75811
1.98562 4.99433
2.16411 4.6157
2.34263 4.83437
2.52115 6.56714
2.69965 8.47343
2.87818 8.83677
3.05672 11.2801
3.23527 15.3949
3.4138 19.183
3.59237 24.1164
3.77094 26.1168
3.9495 29.4622
4.12809 34.9962
4.30669 231.893
4.4853 66.5345
4.6639 55.2654
4.84253 66.5516
5.02118 85.7036
5.19981 313.389
5.37848 186.093
5.55716 100.677
5.73586 91.1994
5.91455 92.6446
6.09328 4416.66
6.27201 82.5877
6.45075 66.769
6.62952 62.7451
6.8083 58.2976
6.98711 55.7803
7.16591 54.6831
7.34475 93.8508
7.5236 54.5132
7.70247 55.9824
7.88135 57.4021
8.06026 61.8411
8.23919 69.1113
8.41812 84.0632
8.59709 1144.71
8.77609 98.7739
8.9551 91.3621
9.13412 81.4298
9.31318 81.9045
9.49226 83.7539
9.67134 97.8848
9.85047 99.0651
10.0296 316.404
10.2088 410.678
10.388 103.597
10.5672 514.481
10.7465 86.0598
10.9257 78.137
11.105 71.1717
11.2844 70.4707
11.4637 64.5396
11.6431 63.3457
11.8225 62.0664
12.002 62.9937
12.1814 150.675
12.3609 70.7317
12.5405 64.2578
12.72 69.8517
12.8996 70.2887
13.0792 77.7105
13.2589 231.552
13.4386 126.665
13.6183 242.873
13.7981 97.9621
13.9779 75.3393
14.1577 72.0633
14.3376 71.0587
14.5175 68.5057
14.6974 69.8351
14.8774 107.54
15.0574 152.948
15.2374 70.8221
15.4175 66.048
15.5976 65.1052
15.7778 92.4
15.958 157.531
16.1382 62.5401
16.3185 58.3021
16.4988 55.2107
16.6792 54.1461
16.8596 55.0212
17.04 55.2717
17.2205 65.8844
17.401 70.7575
17.5815 58.8405
17.7622 60.7591
17.9428 72.3061
18.1237 139.539
18.3044 89.946
18.4852 77.529
18.666 59.9824
18.8469 57.594
19.0278 56.5642
19.2088 58.7559
19.3898 76.0006
19.5709 53.9576
19.752 52.9475
19.9332 55.6604
20.1144 69.3884
20.2957 63.6927
20.477 53.7739
20.6586 49.3369
20.84 48.5419
21.0215 48.3558
21.203 50.5202
21.3846 48.6721
21.5662 48.33
21.7479 52.0048
21.9297 64.3312
22.1115 55.8978
22.2933 49.6339
22.4753 48.8338
22.6572 48.5285
22.8393 51.5036
23.0214 57.1563
23.2037 48.5618
23.3859 49.4589
23.5682 56.7186
23.7505 48.2297
23.9329 45.0246
24.1154 43.9763
24.2979 43.1581
24.4805 42.612
24.6631 42.5492
24.8458 41.905
25.0286 42.5714
25.2114 44.4896
25.3943 44.429
25.5773 40.7149
25.7605 40.1513
25.9436 40.5671
26.1268 41.5003
26.31 39.9214
26.4933 40.4588
26.6767 41.9512
26.8601 40.2367
27.0437 38.7569
27.2272 38.2631
27.4109 38.1651
27.5946 38.1638
27.7784 37.5566
27.9623 38.1241
28.1462 38.7283
28.3304 36.9412
28.5145 35.7005
28.6987 35.5064
28.8829 35.2608
29.0673 34.5566
29.2517 34.2808
29.4361 33.8866
29.6207 32.9448
29.8053 32.6642
29.99 32.3849
30.1748 32.1715
30.3597 32.1141
30.5447 31.9601
30.7297 32.0285
30.915 31.4275
31.1002 30.9933
31.2855 30.6456
31.4708 30.7146
31.6563 30.2157
31.8418 30.0278
32.0275 29.6459
32.2132 29.2833
32.399 28.8572
32.5848 28.3552
32.7708 28.0234
32.9569 27.8924
33.143 27.603
33.3293 27.2723
33.5158 26.8193
33.7022 26.4884
33.8887 26.1991
34.0753 25.7981
34.262 25.5834
34.4488 25.1489
34.6357 24.8748
34.8227 24.5989
35.0098 24.4083
35.1969 24.0478
35.3842 23.8713
35.5716 23.6699
35.759 23.3581
35.9468 22.9762
36.1345 22.7871
36.3222 22.5964
36.5101 22.2768
36.6981 21.9928
36.8861 21.6587
37.0743 21.3993
37.2626 21.1091
37.451 20.8734
37.6395 20.7279
37.8281 20.3847
38.0168 20.1777
38.2056 19.8826
38.3945 19.562
38.5837 19.403
38.7728 19.116
38.9621 18.8525
39.1514 18.5684
39.3409 18.3306
39.5304 18.1528
39.7201 17.9197
39.9099 17.7431
40.0999 17.4719
40.2899 17.2732
40.48 17.0322
40.6703 16.8158
40.8607 16.6379
41.0512 16.4185
41.242 16.1994
41.4327 16.0195
41.6236 15.7008
41.8146 15.6462
42.0057 15.3533
42.1969 15.1392
42.3882 14.9603
42.5797 14.7746
42.7713 14.5671
42.963 14.3254
43.1549 14.23
43.3468 13.9818
43.5389 13.7978
43.7312 13.5853
43.9237 13.3611
44.1162 13.2125
44.3088 13.0486
44.5016 12.8396
44.6945 12.6839
44.8875 12.5103
45.0806 12.3108
45.2739 12.1724
45.4673 11.952
45.6609 11.7766
45.8546 11.6699
46.0484 11.4734
46.2424 11.2841
46.4365 11.1661
46.631 10.9833
46.8254 10.8532
47.0199 10.6758
47.2146 10.5361
47.4095 10.3021
47.6044 10.2104
47.7996 10.0428
47.9948 9.90776
48.1902 9.70861
48.3858 9.63371
48.5815 9.50625
48.7774 9.35394
48.9734 9.19629
49.1696 9.07424
49.3661 8.90081
49.5626 8.78053
49.7592 8.62991
49.956 8.52509
50.153 8.36494
50.3501 8.25605
50.5474 8.12057
50.7448 7.98759
50.9424 7.90407
51.1402 7.78628
51.3381 7.64227
51.5362 7.52346
51.7344 7.38631
51.9328 7.26644
52.1316 7.16699
52.3304 7.04214
52.5293 6.89002
52.7284 6.80674
52.9276 6.73049
53.1271 6.56934
53.3267 6.49629
53.5265 6.3568
53.7264 6.27223
53.9266 6.15558
54.1269 6.02073
54.3274 5.92211
54.528 5.74201
54.7289 5.61986
54.9301 5.46346
55.1314 5.33675
55.3328 5.12292
55.5344 4.91988
55.7361 4.84582