Folder: NiFe_MOF_catalyst_paper/XRD (part 68)

File: Ni3Fe_FD0357.xy
TT I
1.27165 7.56501
1.45013 6.12506
1.62863 5.38912
1.80712 4.74382
1.98562 5.45425
2.16411 4.45837
2.34263 4.55891
2.52115 5.75817
2.69965 7.38145
2.87818 8.5027
3.05672 10.7346
3.23527 14.9472
3.4138 18.6492
3.59237 23.2523
3.77094 25.9522
3.9495 29.846
4.12809 35.4612
4.30669 120.192
4.4853 56.0502
4.6639 57.1643
4.84253 69.7625
5.02118 92.3814
5.19981 614.066
5.37848 220.598
5.55716 106.718
5.73586 96.7181
5.91455 101.803
6.09328 3972.3
6.27201 85.3237
6.45075 69.5024
6.62952 64.0354
6.8083 59.5674
6.98711 56.6156
7.16591 56.3993
7.34475 72.2129
7.5236 55.7648
7.70247 57.4026
7.88135 59.0865
8.06026 63.7162
8.23919 71.582
8.41812 88.2068
8.59709 1195.58
8.77609 104.076
8.9551 91.1563
9.13412 84.7228
9.31318 86.2518
9.49226 87.1283
9.67134 97.2868
9.85047 104.183
10.0296 444.221
10.2088 454.518
10.388 110.106
10.5672 489.492
10.7465 89.3957
10.9257 79.9016
11.105 73.4436
11.2844 70.697
11.4637 66.5854
11.6431 65.2048
11.8225 64.1956
12.002 66.5359
12.1814 151.506
12.3609 70.0469
12.5405 66.0571
12.72 70.313
12.8996 73.3721
13.0792 83.4034
13.2589 247.213
13.4386 132.737
13.6183 245.067
13.7981 101.83
13.9779 78.1944
14.1577 74.2037
14.3376 72.5204
14.5175 71.1008
14.6974 72.8945
14.8774 120.373
15.0574 152.096
15.2374 71.6952
15.4175 68.4517
15.5976 68.3595
15.7778 103.378
15.958 161.47
16.1382 63.5593
16.3185 59.6403
16.4988 56.9026
16.6792 56.0611
16.8596 56.455
17.04 57.9178
17.2205 69.1861
17.401 73.2174
17.5815 61.0154
17.7622 63.1774
17.9428 78.8691
18.1237 139.808
18.3044 91.9201
18.4852 79.1956
18.666 62.1684
18.8469 59.9768
19.0278 58.595
19.2088 61.8653
19.3898 76.8508
19.5709 55.7431
19.752 54.9522
19.9332 58.5312
20.1144 71.5268
20.2957 64.5879
20.477 55.0856
20.6586 51.2093
20.84 50.1947
21.0215 50.2282
21.203 52.0758
21.3846 50.5472
21.5662 50.6226
21.7479 54.9393
21.9297 65.9755
22.1115 57.3248
22.2933 51.2707
22.4753 50.1521
22.6572 50.571
22.8393 53.8595
23.0214 58.921
23.2037 50.2288
23.3859 51.8118
23.5682 57.6847
23.7505 49.8054
23.9329 46.4991
24.1154 45.2864
24.2979 44.8178
24.4805 44.1762
24.6631 44.0291
24.8458 43.4645
25.0286 44.2282
25.2114 45.952
25.3943 46.0084
25.5773 42.0328
25.7605 41.7669
25.9436 41.9441
26.1268 42.8591
26.31 41.4091
26.4933 42.0502
26.6767 43.3746
26.8601 41.5336
27.0437 40.0219
27.2272 39.5561
27.4109 39.5506
27.5946 39.5051
27.7784 39.0553
27.9623 39.4271
28.1462 39.816
28.3304 38.2563
28.5145 36.922
28.6987 36.5814
28.8829 36.3474
29.0673 35.6172
29.2517 35.2737
29.4361 35.0263
29.6207 34.0174
29.8053 33.8103
29.99 33.4404
30.1748 33.2055
30.3597 33.147
30.5447 33.0591
30.7297 33.0917
30.915 32.533
31.1002 31.9193
31.2855 31.7193
31.4708 31.6637
31.6563 31.2195
31.8418 30.9193
32.0275 30.6695
32.2132 30.2059
32.399 29.7453
32.5848 29.2997
32.7708 28.9386
32.9569 28.7237
33.143 28.4811
33.3293 28.1265
33.5158 27.7798
33.7022 27.3148
33.8887 27.1338
34.0753 26.6581
34.262 26.4554
34.4488 25.9607
34.6357 25.6253
34.8227 25.4553
35.0098 25.2146
35.1969 24.8772
35.3842 24.6575
35.5716 24.4028
35.759 24.0962
35.9468 23.7714
36.1345 23.4495
36.3222 23.2979
36.5101 22.996
36.6981 22.7143
36.8861 22.4537
37.0743 22.0191
37.2626 21.7908
37.451 21.5702
37.6395 21.4249
37.8281 21.0338
38.0168 20.8013
38.2056 20.4475
38.3945 20.1983
38.5837 20.0188
38.7728 19.782
38.9621 19.4566
39.1514 19.227
39.3409 18.9923
39.5304 18.7451
39.7201 18.5431
39.9099 18.3102
40.0999 18.0648
40.2899 17.8816
40.48 17.584
40.6703 17.4037
40.8607 17.2185
41.0512 16.9686
41.242 16.679
41.4327 16.5092
41.6236 16.2772
41.8146 16.0485
42.0057 15.8985
42.1969 15.5621
42.3882 15.4563
42.5797 15.1844
42.7713 15.0398
42.963 14.7865
43.1549 14.604
43.3468 14.3609
43.5389 14.1749
43.7312 14.0218
43.9237 13.7884
44.1162 13.6078
44.3088 13.4109
44.5016 13.2096
44.6945 13.0434
44.8875 12.8588
45.0806 12.6736
45.2739 12.533
45.4673 12.3439
45.6609 12.1755
45.8546 12.0201
46.0484 11.8519
46.2424 11.6556
46.4365 11.4947
46.631 11.3283
46.8254 11.1483
47.0199 11.0036
47.2146 10.8238
47.4095 10.6724
47.6044 10.4939
47.7996 10.3534
47.9948 10.2178
48.1902 10.0514
48.3858 9.91646
48.5815 9.76129
48.7774 9.62422
48.9734 9.48935
49.1696 9.3177
49.3661 9.18028
49.5626 9.02307
49.7592 8.9289
49.956 8.80511
50.153 8.65009
50.3501 8.51041
50.5474 8.40087
50.7448 8.255
50.9424 8.1402
51.1402 7.99121
51.3381 7.87796
51.5362 7.74687
51.7344 7.62689
51.9328 7.47753
52.1316 7.35311
52.3304 7.24515
52.5293 7.13348
52.7284 7.00158
52.9276 6.86838
53.1271 6.80453
53.3267 6.71497
53.5265 6.5494
53.7264 6.42643
53.9266 6.32022
54.1269 6.20891
54.3274 6.04337
54.528 5.91279
54.7289 5.76276
54.9301 5.61349
55.1314 5.45497
55.3328 5.31095
55.5344 5.07602
55.7361 4.93245

File: Ni3Fe_FD0358.xy
TT I
1.27165 7.58045
1.45013 5.9622
1.62863 4.86682
1.80712 5.13047
1.98562 5.11336
2.16411 4.26123
2.34263 4.39016
2.52115 6.16038
2.69965 6.84487
2.87818 8.19096
3.05672 11.2037
3.23527 14.5973
3.4138 18.8107
3.59237 23.3434
3.77094 26.0395
3.9495 30.2232
4.12809 34.4461
4.30669 118.909
4.4853 56.4232
4.6639 57.2525
4.84253 69.2424
5.02118 91.8723
5.19981 611.454
5.37848 220.027
5.55716 106.554
5.73586 96.9459
5.91455 101.353
6.09328 4022.29
6.27201 85.7577
6.45075 69.4287
6.62952 63.5536
6.8083 59.5161
6.98711 56.7244
7.16591 56.45
7.34475 72.2833
7.5236 55.6203
7.70247 57.4649
7.88135 59.2212
8.06026 64.4069
8.23919 71.5223
8.41812 88.1
8.59709 1188.27
8.77609 104.053
8.9551 91.2675
9.13412 84.6816
9.31318 85.9735
9.49226 87.1918
9.67134 96.7605
9.85047 103.488
10.0296 443.343
10.2088 457.746
10.388 110.312
10.5672 488.514
10.7465 89.1888
10.9257 79.7538
11.105 73.3031
11.2844 70.7274
11.4637 66.5165
11.6431 65.2964
11.8225 64.3829
12.002 66.4992
12.1814 151.597
12.3609 69.9408
12.5405 66.1525
12.72 69.9715
12.8996 73.2421
13.0792 83.0918
13.2589 246.42
13.4386 133.187
13.6183 244.608
13.7981 101.902
13.9779 78.1213
14.1577 74.0053
14.3376 72.4717
14.5175 70.7616
14.6974 72.962
14.8774 120.381
15.0574 152.869
15.2374 71.7435
15.4175 68.3334
15.5976 68.0771
15.7778 103.401
15.958 162.256
16.1382 63.2501
16.3185 59.5897
16.4988 57.022
16.6792 56.0924
16.8596 56.539
17.04 57.9359
17.2205 69.47
17.401 73.3119
17.5815 60.9876
17.7622 63.3316
17.9428 79.2879
18.1237 140.009
18.3044 91.975
18.4852 79.0976
18.666 62.0883
18.8469 59.673
19.0278 58.5575
19.2088 61.9119
19.3898 77.0377
19.5709 55.6873
19.752 55.0521
19.9332 58.4535
20.1144 71.3848
20.2957 64.3891
20.477 55.0225
20.6586 51.0023
20.84 50.0869
21.0215 50.2882
21.203 51.9968
21.3846 50.4112
21.5662 50.6797
21.7479 54.7252
21.9297 66.0528
22.1115 57.1901
22.2933 51.1473
22.4753 50.1045
22.6572 50.8219
22.8393 53.6206
23.0214 58.8275
23.2037 50.2299
23.3859 51.7278
23.5682 57.4899
23.7505 49.8183
23.9329 46.5052
24.1154 45.3463
24.2979 44.7719
24.4805 44.1981
24.6631 44.0571
24.8458 43.5646
25.0286 44.1339
25.2114 45.9002
25.3943 45.8204
25.5773 42.1701
25.7605 41.5733
25.9436 42.0972
26.1268 42.8377
26.31 41.3453
26.4933 42.0092
26.6767 43.3169
26.8601 41.5074
27.0437 39.941
27.2272 39.6673
27.4109 39.6461
27.5946 39.4004
27.7784 38.9502
27.9623 39.4202
28.1462 39.9771
28.3304 38.1485
28.5145 36.9892
28.6987 36.5151
28.8829 36.2366
29.0673 35.6873
29.2517 35.2578
29.4361 35.209
29.6207 33.9678
29.8053 33.7204
29.99 33.5968
30.1748 33.3087
30.3597 33.173
30.5447 33.066
30.7297 33.0491
30.915 32.5561
31.1002 31.9528
31.2855 31.7192
31.4708 31.5517
31.6563 31.1729
31.8418 30.9774
32.0275 30.8118
32.2132 30.2197
32.399 29.7559
32.5848 29.2415
32.7708 28.807
32.9569 28.746
33.143 28.5375
33.3293 28.1061
33.5158 27.8015
33.7022 27.3834
33.8887 27.0146
34.0753 26.6779
34.262 26.2998
34.4488 25.9645
34.6357 25.705
34.8227 25.3556
35.0098 25.1009
35.1969 24.8848
35.3842 24.6046
35.5716 24.4079
35.759 24.0705
35.9468 23.6589
36.1345 23.511
36.3222 23.2514
36.5101 23.0149
36.6981 22.7482
36.8861 22.3631
37.0743 22.0847
37.2626 21.8734
37.451 21.5575
37.6395 21.3487
37.8281 21.0044
38.0168 20.7611
38.2056 20.5317
38.3945 20.1296
38.5837 20.0156
38.7728 19.7562
38.9621 19.41
39.1514 19.2102
39.3409 18.9594
39.5304 18.7286
39.7201 18.5318
39.9099 18.2931
40.0999 18.0108
40.2899 17.8535
40.48 17.6192
40.6703 17.4004
40.8607 17.1917
41.0512 16.9106
41.242 16.7
41.4327 16.4885
41.6236 16.2778
41.8146 16.0617
42.0057 15.8639
42.1969 15.6412
42.3882 15.4427
42.5797 15.1784
42.7713 15.0202
42.963 14.7961
43.1549 14.6046
43.3468 14.3688
43.5389 14.1896
43.7312 14.0031
43.9237 13.7778
44.1162 13.6218
44.3088 13.408
44.5016 13.26
44.6945 13.0578
44.8875 12.8567
45.0806 12.6811
45.2739 12.5102
45.4673 12.3604
45.6609 12.1839
45.8546 12.0024
46.0484 11.8066
46.2424 11.6399
46.4365 11.5366
46.631 11.3002
46.8254 11.1628
47.0199 11.0169
47.2146 10.8364
47.4095 10.6434
47.6044 10.4844
47.7996 10.3832
47.9948 10.1907
48.1902 10.0451
48.3858 9.88813
48.5815 9.78822
48.7774 9.60912
48.9734 9.49348
49.1696 9.32691
49.3661 9.1718
49.5626 9.01578
49.7592 8.93697
49.956 8.78279
50.153 8.64886
50.3501 8.50703
50.5474 8.41091
50.7448 8.25085
50.9424 8.1318
51.1402 7.98731
51.3381 7.84286
51.5362 7.75371
51.7344 7.60118
51.9328 7.50064
52.1316 7.34146
52.3304 7.28046
52.5293 7.10166
52.7284 6.97585
52.9276 6.87998
53.1271 6.81473
53.3267 6.62097
53.5265 6.53081
53.7264 6.47073
53.9266 6.33377
54.1269 6.18971
54.3274 6.0829
54.528 5.95234
54.7289 5.74975
54.9301 5.59026
55.1314 5.49529
55.3328 5.29363
55.5344 5.08989
55.7361 4.95409

File: Ni3Fe_FD0359.xy
TT I
1.27165 7.74918
1.45013 6.09937
1.62863 5.7505
1.80712 4.95687
1.98562 4.32478
2.16411 4.89831
2.34263 5.38062
2.52115 6.43929
2.69965 7.80533
2.87818 7.78819
3.05672 11.2363
3.23527 15.1323
3.4138 19.215
3.59237 23.6709
3.77094 26.1511
3.9495 29.9082
4.12809 35.0755
4.30669 117.441
4.4853 55.9492
4.6639 56.8878
4.84253 69.7362
5.02118 92.1385
5.19981 615.185
5.37848 220.11
5.55716 106.824
5.73586 96.8072
5.91455 101.788
6.09328 4013.96
6.27201 85.252
6.45075 69.6128
6.62952 63.6258
6.8083 59.7678
6.98711 57.071
7.16591 56.4021
7.34475 72.3041
7.5236 55.512
7.70247 57.3671
7.88135 58.7937
8.06026 63.9595
8.23919 71.3934
8.41812 87.9095
8.59709 1190.62
8.77609 104.205
8.9551 91.0506
9.13412 84.3206
9.31318 86.0686
9.49226 86.863
9.67134 96.7039
9.85047 103.536
10.0296 443.984
10.2088 454.936
10.388 110.248
10.5672 488.056
10.7465 89.4667
10.9257 79.726
11.105 73.5162
11.2844 70.7805
11.4637 66.8232
11.6431 65.3707
11.8225 64.1973
12.002 66.5253
12.1814 151.033
12.3609 69.7578
12.5405 66.1218
12.72 70.0615
12.8996 73.1523
13.0792 83.5731
13.2589 246.739
13.4386 132.994
13.6183 245.197
13.7981 102.12
13.9779 77.8917
14.1577 74.1798
14.3376 72.4914
14.5175 70.8417
14.6974 72.9995
14.8774 120.402
15.0574 152.519
15.2374 71.3605
15.4175 68.2389
15.5976 68.1448
15.7778 103.378
15.958 161.741
16.1382 63.3898
16.3185 59.6182
16.4988 57.0656
16.6792 56.0466
16.8596 56.462
17.04 58.0075
17.2205 69.4327
17.401 73.1639
17.5815 60.892
17.7622 63.3328
17.9428 79.3003
18.1237 139.515
18.3044 91.8951
18.4852 79.2767
18.666 62.2345
18.8469 59.6927
19.0278 58.5321
19.2088 61.9168
19.3898 76.7814
19.5709 55.7385
19.752 54.7649
19.9332 58.6244
20.1144 71.3973
20.2957 64.6052
20.477 54.9569
20.6586 50.8867
20.84 50.3462
21.0215 50.2528
21.203 51.9048
21.3846 50.3635
21.5662 50.5547
21.7479 54.7012
21.9297 66.0599
22.1115 57.1388
22.2933 51.3056
22.4753 50.1379
22.6572 50.5541
22.8393 53.7178
23.0214 58.8808
23.2037 50.3173
23.3859 51.579
23.5682 57.7941
23.7505 49.6999
23.9329 46.6472
24.1154 45.4697
24.2979 44.5654
24.4805 44.1544
24.6631 44.0634
24.8458 43.4866
25.0286 44.2956
25.2114 45.8399
25.3943 45.8862
25.5773 41.9601
25.7605 41.5974
25.9436 42.1441
26.1268 42.9605
26.31 41.2569
26.4933 41.8731
26.6767 43.3323
26.8601 41.4832
27.0437 39.9837
27.2272 39.6744
27.4109 39.4889
27.5946 39.5167
27.7784 38.9663
27.9623 39.4627
28.1462 39.928
28.3304 38.2473
28.5145 36.9844
28.6987 36.6529
28.8829 36.3913
29.0673 35.6256
29.2517 35.2696
29.4361 34.9839
29.6207 34.0246
29.8053 33.7759
29.99 33.5163
30.1748 33.3693
30.3597 33.2178
30.5447 32.9848
30.7297 33.0726
30.915 32.4436
31.1002 31.9229
31.2855 31.7016
31.4708 31.6587
31.6563 31.2291
31.8418 30.9395
32.0275 30.7061
32.2132 30.1789
32.399 29.7285
32.5848 29.3547
32.7708 28.8692
32.9569 28.8094
33.143 28.5483
33.3293 28.114
33.5158 27.7825
33.7022 27.3583
33.8887 27.0277
34.0753 26.6612
34.262 26.2934
34.4488 26.0504
34.6357 25.5971
34.8227 25.3583
35.0098 25.0727
35.1969 24.8234
35.3842 24.5965
35.5716 24.3873
35.759 24.1023
35.9468 23.7179
36.1345 23.4703
36.3222 23.2577
36.5101 22.9883
36.6981 22.7055
36.8861 22.4124
37.0743 21.981
37.2626 21.8833
37.451 21.5694
37.6395 21.3855
37.8281 21.0717
38.0168 20.7807
38.2056 20.5174
38.3945 20.2032
38.5837 20.0037
38.7728 19.7515
38.9621 19.4619
39.1514 19.1941
39.3409 18.951
39.5304 18.7286
39.7201 18.509
39.9099 18.3065
40.0999 18.0574
40.2899 17.8113
40.48 17.6458
40.6703 17.3918
40.8607 17.1935
41.0512 16.9996
41.242 16.6586
41.4327 16.4724
41.6236 16.2209
41.8146 16.0475
42.0057 15.8471
42.1969 15.6319
42.3882 15.3959
42.5797 15.216
42.7713 15.0142
42.963 14.7748
43.1549 14.5991
43.3468 14.4339
43.5389 14.2333
43.7312 14.0
43.9237 13.8078
44.1162 13.6416
44.3088 13.4019
44.5016 13.247
44.6945 13.0768
44.8875 12.8906
45.0806 12.6454
45.2739 12.532
45.4673 12.3197
45.6609 12.1201
45.8546 11.9893
46.0484 11.8205
46.2424 11.6185
46.4365 11.4824
46.631 11.2746
46.8254 11.1505
47.0199 10.9954
47.2146 10.8882
47.4095 10.6983
47.6044 10.4896
47.7996 10.3245
47.9948 10.169
48.1902 10.0553
48.3858 9.89268
48.5815 9.78701
48.7774 9.65349
48.9734 9.517
49.1696 9.33662
49.3661 9.19212
49.5626 9.02049
49.7592 8.90779
49.956 8.7998
50.153 8.65146
50.3501 8.46373
50.5474 8.38314
50.7448 8.22151
50.9424 8.12022
51.1402 8.00957
51.3381 7.88584
51.5362 7.72777
51.7344 7.61512
51.9328 7.47879
52.1316 7.32935
52.3304 7.24261
52.5293 7.1421
52.7284 6.98435
52.9276 6.90631
53.1271 6.76028
53.3267 6.64377
53.5265 6.57111
53.7264 6.43976
53.9266 6.32096
54.1269 6.19441
54.3274 6.07934
54.528 5.97315
54.7289 5.75307
54.9301 5.65749
55.1314 5.48088
55.3328 5.21796
55.5344 5.10457
55.7361 4.89641

File: Ni3Fe_FD0360.xy
TT I
1.27165 8.01358
1.45013 6.68695
1.62863 4.84172
1.80712 4.91273
1.98562 4.99471
2.16411 4.88688
2.34263 4.4583
2.52115 6.14576
2.69965 7.20135
2.87818 8.69069
3.05672 10.9462
3.23527 14.397
3.4138 18.8756
3.59237 23.4273
3.77094 25.5815
3.9495 30.2947
4.12809 35.3119
4.30669 116.928
4.4853 55.5576
4.6639 56.8953
4.84253 69.9735
5.02118 91.8287
5.19981 617.454
5.37848 219.963
5.55716 106.958
5.73586 96.5678
5.91455 102.262
6.09328 4014.99
6.27201 85.2174
6.45075 69.5847
6.62952 63.9036
6.8083 59.5632
6.98711 57.0099
7.16591 56.6389
7.34475 71.9611
7.5236 55.5244
7.70247 57.321
7.88135 59.1581
8.06026 63.8694
8.23919 71.4788
8.41812 87.921
8.59709 1191.01
8.77609 104.286
8.9551 91.3731
9.13412 84.8935
9.31318 86.2022
9.49226 87.6057
9.67134 96.9089
9.85047 104.067
10.0296 445.268
10.2088 451.888
10.388 110.511
10.5672 488.377
10.7465 89.4093
10.9257 79.7782
11.105 73.5539
11.2844 70.5855
11.4637 66.4905
11.6431 65.1289
11.8225 64.2611
12.002 66.464
12.1814 151.345
12.3609 69.6834
12.5405 66.2307
12.72 70.1006
12.8996 73.2307
13.0792 83.5886
13.2589 247.444
13.4386 132.9
13.6183 245.197
13.7981 101.628
13.9779 78.2258
14.1577 74.06
14.3376 72.5334
14.5175 70.9343
14.6974 72.9305
14.8774 120.465
15.0574 151.937
15.2374 71.8743
15.4175 68.3122
15.5976 68.0818
15.7778 103.455
15.958 161.398
16.1382 63.4087
16.3185 59.5653
16.4988 57.0542
16.6792 55.991
16.8596 56.5241
17.04 58.044
17.2205 69.3032
17.401 73.041
17.5815 60.9178
17.7622 63.1663
17.9428 79.2244
18.1237 139.622
18.3044 91.8327
18.4852 79.0961
18.666 62.1571
18.8469 59.7111
19.0278 58.5325
19.2088 61.7736
19.3898 76.7892
19.5709 55.7759
19.752 54.9689
19.9332 58.6202
20.1144 71.4183
20.2957 64.4458
20.477 55.0748
20.6586 51.1371
20.84 50.2348
21.0215 50.1773
21.203 51.9177
21.3846 50.6148
21.5662 50.6332
21.7479 54.7796
21.9297 66.2762
22.1115 57.1367
22.2933 51.3389
22.4753 50.0985
22.6572 50.5692
22.8393 53.5338
23.0214 58.809
23.2037 50.2799
23.3859 51.5631
23.5682 57.6156
23.7505 49.7434
23.9329 46.5489
24.1154 45.5275
24.2979 44.6353
24.4805 44.0659
24.6631 43.9517
24.8458 43.5206
25.0286 44.244
25.2114 45.8669
25.3943 45.8344
25.5773 42.1549
25.7605 41.6083
25.9436 41.9235
26.1268 42.8384
26.31 41.2933
26.4933 41.814
26.6767 43.2314
26.8601 41.6281
27.0437 40.0124
27.2272 39.6511
27.4109 39.4386
27.5946 39.524
27.7784 38.9881
27.9623 39.4442
28.1462 39.8901
28.3304 38.1425
28.5145 36.9407
28.6987 36.5312
28.8829 36.4652
29.0673 35.4918
29.2517 35.2905
29.4361 35.076
29.6207 33.9967
29.8053 33.5897
29.99 33.5619
30.1748 33.2837
30.3597 33.207
30.5447 33.1085
30.7297 33.083
30.915 32.4368
31.1002 31.9427
31.2855 31.7026
31.4708 31.6879
31.6563 31.1914
31.8418 30.8957
32.0275 30.7034
32.2132 30.1921
32.399 29.7743
32.5848 29.2759
32.7708 29.002
32.9569 28.8214
33.143 28.5267
33.3293 28.0428
33.5158 27.8055
33.7022 27.3323
33.8887 26.9199
34.0753 26.7218
34.262 26.2869
34.4488 25.9644
34.6357 25.6712
34.8227 25.396
35.0098 25.07
35.1969 24.9091
35.3842 24.5812
35.5716 24.3541
35.759 24.1052
35.9468 23.6598
36.1345 23.4875
36.3222 23.2598
36.5101 23.0756
36.6981 22.7163
36.8861 22.3729
37.0743 22.1164
37.2626 21.8283
37.451 21.5274
37.6395 21.4667
37.8281 21.0782
38.0168 20.7031
38.2056 20.4642
38.3945 20.2664
38.5837 19.9511
38.7728 19.7049
38.9621 19.4595
39.1514 19.2222
39.3409 18.9808
39.5304 18.7476
39.7201 18.5073
39.9099 18.3033
40.0999 18.0771
40.2899 17.8867
40.48 17.6196
40.6703 17.4013
40.8607 17.1834
41.0512 16.9211
41.242 16.6947
41.4327 16.473
41.6236 16.2378
41.8146 16.0578
42.0057 15.8349
42.1969 15.6145
42.3882 15.4748
42.5797 15.2072
42.7713 14.975
42.963 14.8005
43.1549 14.6097
43.3468 14.3503
43.5389 14.2229
43.7312 14.0081
43.9237 13.8127
44.1162 13.617
44.3088 13.3957
44.5016 13.1878
44.6945 12.9864
44.8875 12.8828
45.0806 12.7437
45.2739 12.4648
45.4673 12.3609
45.6609 12.1885
45.8546 12.0312
46.0484 11.8691
46.2424 11.6292
46.4365 11.4514
46.631 11.306
46.8254 11.1346
47.0199 10.9847
47.2146 10.8537
47.4095 10.6292
47.6044 10.4967
47.7996 10.3243
47.9948 10.1788
48.1902 10.0701
48.3858 9.92808
48.5815 9.76356
48.7774 9.60741
48.9734 9.49387
49.1696 9.33395
49.3661 9.18653
49.5626 9.01278
49.7592 8.89808
49.956 8.80213
50.153 8.62439
50.3501 8.52168
50.5474 8.41842
50.7448 8.26588
50.9424 8.08919
51.1402 7.97837
51.3381 7.83521
51.5362 7.74157
51.7344 7.60951
51.9328 7.49876
52.1316 7.33863
52.3304 7.23078
52.5293 7.09599
52.7284 6.99728
52.9276 6.91257
53.1271 6.7951
53.3267 6.64458
53.5265 6.5009
53.7264 6.42497
53.9266 6.34308
54.1269 6.19017
54.3274 6.09312
54.528 5.92612
54.7289 5.81052
54.9301 5.64398
55.1314 5.52238
55.3328 5.31012
55.5344 5.08573
55.7361 4.92709

File: Ni3Fe_FD0361.xy
TT I
1.27165 8.09441
1.45013 6.63316
1.62863 5.22901
1.80712 5.15362
1.98562 4.60057
2.16411 4.62385
2.34263 4.61334
2.52115 6.0804
2.69965 7.27402
2.87818 8.46131
3.05672 10.7562
3.23527 14.6473
3.4138 18.813
3.59237 23.1424
3.77094 26.2915
3.9495 30.2044
4.12809 34.9738
4.30669 114.693
4.4853 55.6389
4.6639 56.7355
4.84253 69.8805
5.02118 91.5377
5.19981 618.723
5.37848 220.5
5.55716 106.697
5.73586 96.7489
5.91455 102.197
6.09328 4025.87
6.27201 85.4175
6.45075 69.5469
6.62952 63.7712
6.8083 60.0243
6.98711 56.9106
7.16591 56.6897
7.34475 71.2227
7.5236 55.6633
7.70247 57.3775
7.88135 59.3652
8.06026 64.2057
8.23919 71.4354
8.41812 87.9408
8.59709 1195.51
8.77609 104.145
8.9551 91.0315
9.13412 85.0782
9.31318 85.8982
9.49226 87.2922
9.67134 97.4243
9.85047 103.484
10.0296 446.452
10.2088 448.973
10.388 109.941
10.5672 487.917
10.7465 89.3144
10.9257 79.4167
11.105 73.7126
11.2844 70.3806
11.4637 66.65
11.6431 64.992
11.8225 64.0896
12.002 66.4889
12.1814 151.474
12.3609 69.8188
12.5405 66.2508
12.72 69.9645
12.8996 73.4528
13.0792 83.2467
13.2589 247.711
13.4386 132.588
13.6183 245.248
13.7981 101.449
13.9779 78.1242
14.1577 74.141
14.3376 72.5484
14.5175 70.8499
14.6974 72.8483
14.8774 120.689
15.0574 151.924
15.2374 71.6925
15.4175 68.5056
15.5976 68.283
15.7778 103.533
15.958 161.263
16.1382 63.2342
16.3185 59.5498
16.4988 57.0748
16.6792 56.1316
16.8596 56.3015
17.04 57.9296
17.2205 69.1509
17.401 72.9411
17.5815 61.0331
17.7622 63.451
17.9428 79.0551
18.1237 139.715
18.3044 91.7189
18.4852 79.0072
18.666 62.138
18.8469 59.8094
19.0278 58.4444
19.2088 61.9671
19.3898 76.9056
19.5709 55.8582
19.752 54.8967
19.9332 58.7165
20.1144 71.5046
20.2957 64.4029
20.477 54.9544
20.6586 51.2882
20.84 50.0949
21.0215 50.1689
21.203 51.9959
21.3846 50.3985
21.5662 50.7271
21.7479 54.7138
21.9297 66.0384
22.1115 57.1585
22.2933 51.162
22.4753 50.158
22.6572 50.5315
22.8393 53.7307
23.0214 58.8679
23.2037 50.3154
23.3859 51.6262
23.5682 57.6246
23.7505 49.7273
23.9329 46.4616
24.1154 45.3385
24.2979 44.6622
24.4805 44.1586
24.6631 43.9106
24.8458 43.4439
25.0286 44.2079
25.2114 45.8338
25.3943 45.8533
25.5773 41.9866
25.7605 41.7426
25.9436 42.0885
26.1268 42.7743
26.31 41.2539
26.4933 41.9446
26.6767 43.2903
26.8601 41.6419
27.0437 40.0081
27.2272 39.6671
27.4109 39.5338
27.5946 39.4753
27.7784 38.972
27.9623 39.3463
28.1462 39.838
28.3304 38.2429
28.5145 37.0324
28.6987 36.4776
28.8829 36.4014
29.0673 35.5865
29.2517 35.2116
29.4361 35.0625
29.6207 34.0264
29.8053 33.8921
29.99 33.4951
30.1748 33.2667
30.3597 33.1337
30.5447 33.5261
30.7297 33.0825
30.915 32.5205
31.1002 31.8942
31.2855 31.669
31.4708 31.6463
31.6563 31.1442
31.8418 30.9555
32.0275 30.7809
32.2132 30.1164
32.399 29.7318
32.5848 29.2439
32.7708 28.8398
32.9569 28.7463
33.143 28.5
33.3293 28.2057
33.5158 27.7983
33.7022 27.3142
33.8887 27.0827
34.0753 26.5885
34.262 26.4553
34.4488 25.9682
34.6357 25.696
34.8227 25.3236
35.0098 25.0499
35.1969 24.7994
35.3842 24.6372
35.5716 24.3916
35.759 24.1165
35.9468 23.7204
36.1345 23.5561
36.3222 23.2074
36.5101 22.9881
36.6981 22.6629
36.8861 22.422
37.0743 22.098
37.2626 21.806
37.451 21.5434
37.6395 21.369
37.8281 21.0135
38.0168 20.7798
38.2056 20.4945
38.3945 20.1831
38.5837 20.0025
38.7728 19.7243
38.9621 19.4263
39.1514 19.2696
39.3409 18.9893
39.5304 18.7312
39.7201 18.5833
39.9099 18.2989
40.0999 18.0488
40.2899 17.8223
40.48 17.5875
40.6703 17.3205
40.8607 17.1705
41.0512 16.8874
41.242 16.7114
41.4327 16.4469
41.6236 16.2696
41.8146 16.0993
42.0057 15.8342
42.1969 15.5744
42.3882 15.4385
42.5797 15.2383
42.7713 15.0039
42.963 14.7906
43.1549 14.5881
43.3468 14.4008
43.5389 14.1659
43.7312 13.9844
43.9237 13.774
44.1162 13.6287
44.3088 13.4174
44.5016 13.2185
44.6945 13.0352
44.8875 12.8787
45.0806 12.6935
45.2739 12.5109
45.4673 12.3346
45.6609 12.143
45.8546 11.9564
46.0484 11.8376
46.2424 11.5976
46.4365 11.4765
46.631 11.3197
46.8254 11.1583
47.0199 10.9651
47.2146 10.8507
47.4095 10.605
47.6044 10.4924
47.7996 10.3471
47.9948 10.1823
48.1902 10.0153
48.3858 9.86494
48.5815 9.79106
48.7774 9.66825
48.9734 9.4727
49.1696 9.35698
49.3661 9.21019
49.5626 9.02455
49.7592 8.88807
49.956 8.78249
50.153 8.67635
50.3501 8.47305
50.5474 8.38159
50.7448 8.26647
50.9424 8.13293
51.1402 8.02373
51.3381 7.82543
51.5362 7.74135
51.7344 7.58827
51.9328 7.48399
52.1316 7.33751
52.3304 7.21466
52.5293 7.07452
52.7284 6.97867
52.9276 6.85473
53.1271 6.75636
53.3267 6.66844
53.5265 6.52078
53.7264 6.40072
53.9266 6.32154
54.1269 6.21257
54.3274 6.08987
54.528 5.95094
54.7289 5.76418
54.9301 5.62036
55.1314 5.48413
55.3328 5.29211
55.5344 5.05585
55.7361 4.95551