Folder: NiFe_MOF_catalyst_paper/XRD (part 33)

File: Ni3Fe_FD0167.xy
TT I
1.27165 8.48145
1.45013 6.7605
1.62863 5.30178
1.80712 5.48005
1.98562 4.62252
2.16411 4.16044
2.34263 4.64567
2.52115 4.39589
2.69965 6.15467
2.87818 7.70884
3.05672 11.5273
3.23527 15.1047
3.4138 18.9262
3.59237 21.9172
3.77094 25.6726
3.9495 28.7383
4.12809 33.2269
4.30669 37.9
4.4853 45.181
4.6639 54.0786
4.84253 66.8668
5.02118 90.7995
5.19981 529.435
5.37848 425.661
5.55716 107.394
5.73586 95.6206
5.91455 104.956
6.09328 2827.25
6.27201 88.8126
6.45075 66.7826
6.62952 59.9979
6.8083 55.8624
6.98711 53.735
7.16591 52.6471
7.34475 52.2412
7.5236 55.8683
7.70247 53.8751
7.88135 56.528
8.06026 60.8947
8.23919 68.4044
8.41812 83.6685
8.59709 906.1
8.77609 115.755
8.9551 85.5704
9.13412 81.4884
9.31318 86.2341
9.49226 83.8339
9.67134 88.7873
9.85047 98.9654
10.0296 539.078
10.2088 966.474
10.388 104.779
10.5672 342.408
10.7465 90.5766
10.9257 75.9512
11.105 70.401
11.2844 66.3033
11.4637 63.8202
11.6431 62.4256
11.8225 61.3677
12.002 65.3697
12.1814 120.124
12.3609 75.147
12.5405 63.2819
12.72 65.2921
12.8996 69.8758
13.0792 79.4038
13.2589 208.06
13.4386 207.525
13.6183 196.625
13.7981 154.716
13.9779 76.3451
14.1577 74.4091
14.3376 69.0426
14.5175 68.4996
14.6974 69.947
14.8774 121.444
15.0574 206.31
15.2374 69.343
15.4175 66.5747
15.5976 66.1143
15.7778 107.521
15.958 186.426
16.1382 61.9941
16.3185 57.5987
16.4988 55.245
16.6792 54.3879
16.8596 54.5488
17.04 55.5164
17.2205 65.4934
17.401 81.4241
17.5815 59.243
17.7622 61.6013
17.9428 83.764
18.1237 117.137
18.3044 88.9975
18.4852 94.9692
18.666 60.8918
18.8469 58.5337
19.0278 56.9375
19.2088 61.886
19.3898 69.8266
19.5709 56.4321
19.752 53.563
19.9332 58.2205
20.1144 67.6564
20.2957 61.6052
20.477 59.0978
20.6586 50.2459
20.84 49.1574
21.0215 49.2274
21.203 49.9181
21.3846 50.7798
21.5662 49.2126
21.7479 54.3728
21.9297 62.7245
22.1115 56.7571
22.2933 52.7117
22.4753 49.259
22.6572 49.3157
22.8393 52.3916
23.0214 57.7883
23.2037 50.1274
23.3859 51.8851
23.5682 54.1594
23.7505 53.3254
23.9329 45.8592
24.1154 44.6438
24.2979 43.9313
24.4805 43.0508
24.6631 43.4012
24.8458 42.6366
25.0286 43.3121
25.2114 44.98
25.3943 45.2847
25.5773 42.0251
25.7605 40.91
25.9436 41.1599
26.1268 41.989
26.31 41.1451
26.4933 41.137
26.6767 42.3242
26.8601 41.5439
27.0437 39.764
27.2272 39.1808
27.4109 38.9663
27.5946 39.0364
27.7784 38.7181
27.9623 38.6502
28.1462 39.7015
28.3304 38.2075
28.5145 36.5082
28.6987 36.1075
28.8829 35.6464
29.0673 35.3888
29.2517 34.6751
29.4361 34.4886
29.6207 33.7697
29.8053 33.2771
29.99 33.0019
30.1748 32.8471
30.3597 32.8495
30.5447 32.5271
30.7297 32.622
30.915 32.3318
31.1002 31.6802
31.2855 31.4232
31.4708 31.2141
31.6563 31.0887
31.8418 30.5449
32.0275 30.3361
32.2132 29.9536
32.399 29.3608
32.5848 28.7774
32.7708 28.516
32.9569 28.4851
33.143 28.1655
33.3293 27.8723
33.5158 27.5747
33.7022 26.9561
33.8887 26.6042
34.0753 26.3226
34.262 26.0032
34.4488 25.6608
34.6357 25.2915
34.8227 25.0106
35.0098 24.8663
35.1969 24.4955
35.3842 24.2733
35.5716 24.1092
35.759 23.8585
35.9468 23.4155
36.1345 23.1862
36.3222 22.943
36.5101 22.6917
36.6981 22.4815
36.8861 22.116
37.0743 21.7666
37.2626 21.5464
37.451 21.2839
37.6395 21.1797
37.8281 20.8497
38.0168 20.5027
38.2056 20.2489
38.3945 19.9756
38.5837 19.6761
38.7728 19.5259
38.9621 19.2265
39.1514 18.9595
39.3409 18.7379
39.5304 18.5075
39.7201 18.2799
39.9099 18.1282
40.0999 17.8121
40.2899 17.5986
40.48 17.3497
40.6703 17.1215
40.8607 16.9508
41.0512 16.7114
41.242 16.4533
41.4327 16.2712
41.6236 16.0454
41.8146 15.8349
42.0057 15.6428
42.1969 15.4445
42.3882 15.2376
42.5797 15.0466
42.7713 14.8323
42.963 14.6099
43.1549 14.4392
43.3468 14.1557
43.5389 14.0597
43.7312 13.883
43.9237 13.6158
44.1162 13.3993
44.3088 13.2398
44.5016 13.0405
44.6945 12.9457
44.8875 12.6953
45.0806 12.5433
45.2739 12.3451
45.4673 12.221
45.6609 11.9847
45.8546 11.8571
46.0484 11.7056
46.2424 11.4877
46.4365 11.361
46.631 11.1703
46.8254 10.988
47.0199 10.8359
47.2146 10.6877
47.4095 10.5672
47.6044 10.3366
47.7996 10.1885
47.9948 10.029
48.1902 9.92215
48.3858 9.76223
48.5815 9.62063
48.7774 9.53177
48.9734 9.34623
49.1696 9.19971
49.3661 9.09824
49.5626 8.92821
49.7592 8.82139
49.956 8.69175
50.153 8.54673
50.3501 8.41332
50.5474 8.28222
50.7448 8.1667
50.9424 8.05912
51.1402 7.88159
51.3381 7.75595
51.5362 7.66421
51.7344 7.49559
51.9328 7.39763
52.1316 7.27154
52.3304 7.20372
52.5293 7.03541
52.7284 6.93592
52.9276 6.81348
53.1271 6.73182
53.3267 6.60513
53.5265 6.42254
53.7264 6.38281
53.9266 6.26006
54.1269 6.10266
54.3274 5.9808
54.528 5.8284
54.7289 5.58795
54.9301 5.49606
55.1314 5.34118
55.3328 5.07037
55.5344 4.936
55.7361 4.85771

File: Ni3Fe_FD0168.xy
TT I
1.27165 7.70168
1.45013 6.80487
1.62863 5.43121
1.80712 5.27871
1.98562 5.45053
2.16411 4.45251
2.34263 3.95449
2.52115 4.45665
2.69965 6.41412
2.87818 8.31431
3.05672 11.8146
3.23527 15.0276
3.4138 18.7157
3.59237 21.6837
3.77094 25.236
3.9495 28.4301
4.12809 33.1291
4.30669 37.9876
4.4853 44.7165
4.6639 53.5151
4.84253 65.8403
5.02118 90.5355
5.19981 531.67
5.37848 420.084
5.55716 107.521
5.73586 95.2906
5.91455 105.519
6.09328 2849.58
6.27201 89.0333
6.45075 66.8691
6.62952 60.2221
6.8083 56.049
6.98711 53.6162
7.16591 52.6205
7.34475 52.6031
7.5236 55.7287
7.70247 54.2949
7.88135 56.509
8.06026 60.6925
8.23919 68.1945
8.41812 83.9514
8.59709 907.948
8.77609 115.486
8.9551 85.5168
9.13412 81.8157
9.31318 85.762
9.49226 83.8258
9.67134 88.8587
9.85047 99.1407
10.0296 540.122
10.2088 961.752
10.388 104.73
10.5672 343.012
10.7465 90.7785
10.9257 76.2509
11.105 70.3672
11.2844 66.5149
11.4637 63.6811
11.6431 62.4211
11.8225 61.4546
12.002 65.1407
12.1814 120.177
12.3609 75.0428
12.5405 63.3694
12.72 65.6197
12.8996 70.1545
13.0792 79.6426
13.2589 208.264
13.4386 206.345
13.6183 196.883
13.7981 151.949
13.9779 76.4027
14.1577 74.5448
14.3376 69.4499
14.5175 68.7179
14.6974 69.92
14.8774 121.499
15.0574 206.023
15.2374 69.2789
15.4175 66.606
15.5976 65.9507
15.7778 107.598
15.958 186.123
16.1382 61.9923
16.3185 57.645
16.4988 55.2855
16.6792 54.4724
16.8596 54.5397
17.04 55.5751
17.2205 66.1287
17.401 81.137
17.5815 59.4288
17.7622 61.6387
17.9428 83.8286
18.1237 117.338
18.3044 89.0436
18.4852 94.6777
18.666 61.3053
18.8469 58.5774
19.0278 57.0744
19.2088 62.198
19.3898 69.8238
19.5709 56.3757
19.752 53.6596
19.9332 58.2504
20.1144 67.47
20.2957 61.8803
20.477 59.0688
20.6586 50.1762
20.84 49.383
21.0215 49.2738
21.203 50.0373
21.3846 50.8734
21.5662 49.2312
21.7479 54.3703
21.9297 62.9177
22.1115 56.7098
22.2933 52.4916
22.4753 49.236
22.6572 49.3948
22.8393 52.4791
23.0214 57.7173
23.2037 50.1326
23.3859 52.0043
23.5682 54.1798
23.7505 53.2932
23.9329 45.813
24.1154 44.6682
24.2979 44.0084
24.4805 43.2956
24.6631 43.444
24.8458 42.7147
25.0286 43.3485
25.2114 45.0649
25.3943 45.3003
25.5773 42.2047
25.7605 40.9055
25.9436 41.3382
26.1268 42.0408
26.31 41.1265
26.4933 41.2382
26.6767 42.3392
26.8601 41.4919
27.0437 39.6907
27.2272 39.0974
27.4109 38.9059
27.5946 39.0103
27.7784 38.7841
27.9623 38.815
28.1462 39.642
28.3304 38.2327
28.5145 36.6182
28.6987 36.2694
28.8829 35.8104
29.0673 35.5037
29.2517 34.8023
29.4361 34.5417
29.6207 33.8508
29.8053 33.2699
29.99 32.9258
30.1748 32.7465
30.3597 32.8739
30.5447 32.5751
30.7297 32.5251
30.915 32.1992
31.1002 31.6849
31.2855 31.266
31.4708 31.1772
31.6563 31.1077
31.8418 30.6033
32.0275 30.3789
32.2132 29.9514
32.399 29.4008
32.5848 28.9551
32.7708 28.5909
32.9569 28.4015
33.143 28.0993
33.3293 27.8514
33.5158 27.5024
33.7022 27.0101
33.8887 26.6506
34.0753 26.4163
34.262 25.9965
34.4488 25.7166
34.6357 25.3648
34.8227 25.0282
35.0098 24.8265
35.1969 24.5494
35.3842 24.2334
35.5716 24.1188
35.759 23.8785
35.9468 23.4369
36.1345 23.2348
36.3222 23.0183
36.5101 22.8548
36.6981 22.5105
36.8861 22.1302
37.0743 21.8372
37.2626 21.576
37.451 21.3549
37.6395 21.1125
37.8281 20.7783
38.0168 20.4955
38.2056 20.2889
38.3945 19.992
38.5837 19.763
38.7728 19.4592
38.9621 19.2384
39.1514 18.9947
39.3409 18.7205
39.5304 18.4838
39.7201 18.3445
39.9099 18.0871
40.0999 17.8388
40.2899 17.6076
40.48 17.3843
40.6703 17.1227
40.8607 17.0544
41.0512 16.6693
41.242 16.4849
41.4327 16.2722
41.6236 16.0742
41.8146 15.8877
42.0057 15.6261
42.1969 15.4229
42.3882 15.2131
42.5797 15.0513
42.7713 14.8131
42.963 14.6149
43.1549 14.4399
43.3468 14.2125
43.5389 14.0269
43.7312 13.815
43.9237 13.6326
44.1162 13.4424
44.3088 13.2539
44.5016 13.0649
44.6945 12.8832
44.8875 12.7251
45.0806 12.5323
45.2739 12.3228
45.4673 12.2058
45.6609 12.0011
45.8546 11.8592
46.0484 11.7127
46.2424 11.5134
46.4365 11.3419
46.631 11.1739
46.8254 10.9967
47.0199 10.8633
47.2146 10.6763
47.4095 10.5198
47.6044 10.3575
47.7996 10.195
47.9948 10.0579
48.1902 9.93359
48.3858 9.78263
48.5815 9.63407
48.7774 9.50975
48.9734 9.36825
49.1696 9.24866
49.3661 9.09491
49.5626 8.9209
49.7592 8.86615
49.956 8.70711
50.153 8.53835
50.3501 8.41953
50.5474 8.28915
50.7448 8.15283
50.9424 8.0377
51.1402 7.92829
51.3381 7.81274
51.5362 7.69828
51.7344 7.51777
51.9328 7.38781
52.1316 7.26022
52.3304 7.14658
52.5293 7.05262
52.7284 6.94819
52.9276 6.80036
53.1271 6.73971
53.3267 6.60047
53.5265 6.43725
53.7264 6.35252
53.9266 6.22212
54.1269 6.15053
54.3274 6.0668
54.528 5.84032
54.7289 5.63778
54.9301 5.48706
55.1314 5.31937
55.3328 5.10669
55.5344 4.92455
55.7361 4.84786

File: Ni3Fe_FD0169.xy
TT I
1.27165 7.55078
1.45013 6.50002
1.62863 5.58267
1.80712 5.22802
1.98562 5.28321
2.16411 4.82138
2.34263 4.43701
2.52115 4.46405
2.69965 5.53043
2.87818 7.4041
3.05672 11.6721
3.23527 14.986
3.4138 18.9847
3.59237 21.761
3.77094 25.1901
3.9495 28.7739
4.12809 32.7217
4.30669 38.067
4.4853 44.907
4.6639 53.9321
4.84253 66.8579
5.02118 91.0773
5.19981 530.349
5.37848 418.735
5.55716 108.081
5.73586 95.7495
5.91455 104.914
6.09328 2856.06
6.27201 88.8922
6.45075 66.5347
6.62952 60.1186
6.8083 55.8265
6.98711 53.9465
7.16591 52.8334
7.34475 52.2355
7.5236 55.7467
7.70247 54.0167
7.88135 56.6445
8.06026 60.6514
8.23919 68.3787
8.41812 83.7865
8.59709 907.24
8.77609 115.88
8.9551 85.234
9.13412 82.0173
9.31318 86.0923
9.49226 84.0138
9.67134 89.0176
9.85047 99.3431
10.0296 539.477
10.2088 958.892
10.388 104.85
10.5672 343.984
10.7465 90.8394
10.9257 75.965
11.105 70.4727
11.2844 66.5026
11.4637 63.9968
11.6431 62.2763
11.8225 61.5918
12.002 65.209
12.1814 120.336
12.3609 74.8701
12.5405 63.2958
12.72 65.5858
12.8996 70.2266
13.0792 79.6671
13.2589 208.671
13.4386 205.917
13.6183 197.343
13.7981 150.574
13.9779 76.5393
14.1577 74.565
14.3376 69.2992
14.5175 68.718
14.6974 70.0983
14.8774 121.342
15.0574 205.594
15.2374 69.3585
15.4175 66.617
15.5976 65.8205
15.7778 107.637
15.958 187.049
16.1382 61.9209
16.3185 57.5966
16.4988 55.1996
16.6792 54.2649
16.8596 54.4522
17.04 55.5038
17.2205 65.6066
17.401 81.1641
17.5815 59.3026
17.7622 61.7761
17.9428 83.8648
18.1237 117.165
18.3044 89.1157
18.4852 94.7525
18.666 61.1796
18.8469 58.743
19.0278 57.2284
19.2088 61.9152
19.3898 69.8854
19.5709 56.4024
19.752 53.6591
19.9332 58.4697
20.1144 67.8106
20.2957 61.6322
20.477 58.8328
20.6586 50.2043
20.84 49.3279
21.0215 49.2414
21.203 50.1978
21.3846 50.6809
21.5662 49.2395
21.7479 54.3078
21.9297 62.8107
22.1115 56.5901
22.2933 52.4925
22.4753 49.2137
22.6572 49.3661
22.8393 52.5908
23.0214 57.7702
23.2037 50.0448
23.3859 51.8827
23.5682 54.2288
23.7505 53.2727
23.9329 45.8676
24.1154 44.7325
24.2979 43.7957
24.4805 43.2323
24.6631 43.4268
24.8458 42.7472
25.0286 43.285
25.2114 44.9496
25.3943 45.2047
25.5773 42.0346
25.7605 41.0005
25.9436 41.244
26.1268 42.0089
26.31 41.1089
26.4933 41.2311
26.6767 42.4122
26.8601 41.5309
27.0437 39.912
27.2272 39.2682
27.4109 38.8653
27.5946 39.1157
27.7784 38.8005
27.9623 38.766
28.1462 39.6788
28.3304 38.4058
28.5145 36.7377
28.6987 36.1852
28.8829 35.7723
29.0673 35.3999
29.2517 34.7976
29.4361 34.5101
29.6207 33.6962
29.8053 33.1762
29.99 33.1186
30.1748 32.6344
30.3597 32.9318
30.5447 32.5312
30.7297 32.6058
30.915 32.3306
31.1002 31.6716
31.2855 31.3073
31.4708 31.1869
31.6563 31.1351
31.8418 30.5375
32.0275 30.3352
32.2132 29.8944
32.399 29.3904
32.5848 28.9085
32.7708 28.5754
32.9569 28.4659
33.143 28.2048
33.3293 27.7635
33.5158 27.4847
33.7022 26.985
33.8887 26.6818
34.0753 26.4443
34.262 26.0635
34.4488 25.7013
34.6357 25.3934
34.8227 24.9801
35.0098 24.7983
35.1969 24.5807
35.3842 24.2782
35.5716 24.1299
35.759 23.7667
35.9468 23.4536
36.1345 23.2616
36.3222 23.0046
36.5101 22.7996
36.6981 22.4658
36.8861 22.089
37.0743 21.7894
37.2626 21.5783
37.451 21.2828
37.6395 21.198
37.8281 20.8298
38.0168 20.5724
38.2056 20.2258
38.3945 19.9378
38.5837 19.6963
38.7728 19.4411
38.9621 19.2829
39.1514 19.0036
39.3409 18.7166
39.5304 18.5198
39.7201 18.3912
39.9099 18.0846
40.0999 17.857
40.2899 17.6308
40.48 17.3929
40.6703 17.1418
40.8607 16.9671
41.0512 16.7596
41.242 16.505
41.4327 16.2979
41.6236 16.0687
41.8146 15.8605
42.0057 15.602
42.1969 15.4851
42.3882 15.2098
42.5797 15.0385
42.7713 14.8795
42.963 14.5796
43.1549 14.4106
43.3468 14.2352
43.5389 14.0073
43.7312 13.8361
43.9237 13.6297
44.1162 13.4647
44.3088 13.2687
44.5016 13.0413
44.6945 12.9246
44.8875 12.7497
45.0806 12.4999
45.2739 12.3653
45.4673 12.2075
45.6609 12.0169
45.8546 11.8621
46.0484 11.6737
46.2424 11.512
46.4365 11.3681
46.631 11.2407
46.8254 11.0352
47.0199 10.8897
47.2146 10.6995
47.4095 10.5408
47.6044 10.3877
47.7996 10.239
47.9948 10.0608
48.1902 9.90301
48.3858 9.78494
48.5815 9.64497
48.7774 9.53304
48.9734 9.42795
49.1696 9.21188
49.3661 9.10852
49.5626 8.91469
49.7592 8.81404
49.956 8.70669
50.153 8.58233
50.3501 8.38761
50.5474 8.29196
50.7448 8.14864
50.9424 8.05114
51.1402 7.9327
51.3381 7.77125
51.5362 7.64197
51.7344 7.56773
51.9328 7.40137
52.1316 7.25841
52.3304 7.16376
52.5293 7.08075
52.7284 6.93485
52.9276 6.78763
53.1271 6.70794
53.3267 6.59457
53.5265 6.47856
53.7264 6.33346
53.9266 6.23407
54.1269 6.14234
54.3274 5.96076
54.528 5.81588
54.7289 5.65595
54.9301 5.51143
55.1314 5.31263
55.3328 5.13479
55.5344 4.89425
55.7361 4.84243

File: Ni3Fe_FD0170.xy
TT I
1.27165 8.36844
1.45013 6.57936
1.62863 5.82948
1.80712 4.72241
1.98562 5.15498
2.16411 4.93391
2.34263 4.16753
2.52115 4.67819
2.69965 4.59193
2.87818 8.4665
3.05672 11.48
3.23527 15.3615
3.4138 18.7758
3.59237 21.4967
3.77094 24.8995
3.9495 29.143
4.12809 32.8622
4.30669 37.9293
4.4853 45.2943
4.6639 54.3437
4.84253 66.5131
5.02118 90.3491
5.19981 528.615
5.37848 415.427
5.55716 107.121
5.73586 95.5102
5.91455 104.459
6.09328 2860.85
6.27201 88.6144
6.45075 66.6643
6.62952 60.1297
6.8083 55.9183
6.98711 53.938
7.16591 52.3736
7.34475 52.4549
7.5236 55.7938
7.70247 54.4401
7.88135 56.5852
8.06026 60.8667
8.23919 68.0294
8.41812 84.0205
8.59709 908.39
8.77609 115.875
8.9551 85.4773
9.13412 81.7306
9.31318 85.9731
9.49226 83.7534
9.67134 88.7039
9.85047 99.3446
10.0296 537.817
10.2088 958.456
10.388 104.587
10.5672 343.129
10.7465 90.7605
10.9257 75.9359
11.105 70.2982
11.2844 66.489
11.4637 63.7809
11.6431 62.2354
11.8225 61.6066
12.002 65.0888
12.1814 120.66
12.3609 74.9201
12.5405 63.2102
12.72 65.3351
12.8996 69.9556
13.0792 79.4606
13.2589 208.756
13.4386 205.653
13.6183 197.696
13.7981 150.031
13.9779 76.2826
14.1577 74.3923
14.3376 69.6201
14.5175 68.655
14.6974 70.0651
14.8774 121.771
15.0574 205.599
15.2374 69.3897
15.4175 66.3773
15.5976 66.1032
15.7778 107.465
15.958 186.829
16.1382 61.8121
16.3185 57.6177
16.4988 55.3713
16.6792 54.1775
16.8596 54.3369
17.04 55.4184
17.2205 65.8156
17.401 81.3281
17.5815 59.1869
17.7622 61.5726
17.9428 83.8239
18.1237 117.485
18.3044 88.9391
18.4852 94.9444
18.666 61.2665
18.8469 58.404
19.0278 56.9345
19.2088 61.9131
19.3898 70.0204
19.5709 56.6413
19.752 53.6155
19.9332 58.3438
20.1144 68.0394
20.2957 61.5598
20.477 59.0092
20.6586 50.1657
20.84 49.2236
21.0215 49.33
21.203 50.0482
21.3846 50.7886
21.5662 49.2781
21.7479 54.3493
21.9297 62.909
22.1115 56.8028
22.2933 52.6566
22.4753 49.0929
22.6572 49.3927
22.8393 52.4464
23.0214 57.7667
23.2037 50.1949
23.3859 51.9156
23.5682 54.1687
23.7505 53.1595
23.9329 45.9395
24.1154 44.6621
24.2979 43.8528
24.4805 43.3346
24.6631 43.4753
24.8458 42.78
25.0286 43.361
25.2114 45.0005
25.3943 45.4003
25.5773 42.0634
25.7605 41.0441
25.9436 41.4084
26.1268 42.0054
26.31 41.1459
26.4933 41.2222
26.6767 42.4975
26.8601 41.5706
27.0437 39.7631
27.2272 39.1086
27.4109 38.7607
27.5946 38.9831
27.7784 38.7295
27.9623 38.9255
28.1462 39.7606
28.3304 38.34
28.5145 36.5764
28.6987 36.1728
28.8829 35.8256
29.0673 35.4223
29.2517 34.7915
29.4361 34.4837
29.6207 33.8226
29.8053 33.3569
29.99 33.0557
30.1748 32.8634
30.3597 32.9732
30.5447 32.646
30.7297 32.5896
30.915 32.3404
31.1002 31.6235
31.2855 31.4054
31.4708 31.2434
31.6563 31.1194
31.8418 30.6358
32.0275 30.4873
32.2132 29.9943
32.399 29.3975
32.5848 28.9155
32.7708 28.6496
32.9569 28.4401
33.143 28.1959
33.3293 27.8596
33.5158 27.5618
33.7022 27.0222
33.8887 26.6927
34.0753 26.4469
34.262 26.013
34.4488 25.7066
34.6357 25.389
34.8227 25.0881
35.0098 24.8171
35.1969 24.6166
35.3842 24.2781
35.5716 24.1622
35.759 23.8562
35.9468 23.5334
36.1345 23.2507
36.3222 22.9876
36.5101 22.7821
36.6981 22.4742
36.8861 22.1054
37.0743 21.8313
37.2626 21.5536
37.451 21.2857
37.6395 21.1071
37.8281 20.8181
38.0168 20.5436
38.2056 20.2786
38.3945 19.9691
38.5837 19.7282
38.7728 19.5343
38.9621 19.2267
39.1514 18.9752
39.3409 18.7428
39.5304 18.4809
39.7201 18.2876
39.9099 18.1119
40.0999 17.8831
40.2899 17.6284
40.48 17.3568
40.6703 17.2251
40.8607 17.0285
41.0512 16.802
41.242 16.5206
41.4327 16.3369
41.6236 15.9879
41.8146 15.8984
42.0057 15.6378
42.1969 15.4502
42.3882 15.2732
42.5797 15.0603
42.7713 14.8398
42.963 14.59
43.1549 14.3994
43.3468 14.2559
43.5389 14.0169
43.7312 13.8391
43.9237 13.6366
44.1162 13.4481
44.3088 13.3286
44.5016 13.0938
44.6945 12.9241
44.8875 12.7294
45.0806 12.5241
45.2739 12.3929
45.4673 12.2045
45.6609 12.0374
45.8546 11.8814
46.0484 11.7009
46.2424 11.5199
46.4365 11.4158
46.631 11.1863
46.8254 10.9808
47.0199 10.8465
47.2146 10.7185
47.4095 10.5364
47.6044 10.3977
47.7996 10.2015
47.9948 10.0817
48.1902 9.95239
48.3858 9.77639
48.5815 9.65267
48.7774 9.5361
48.9734 9.3398
49.1696 9.19579
49.3661 9.08559
49.5626 8.9329
49.7592 8.82642
49.956 8.69905
50.153 8.55987
50.3501 8.41993
50.5474 8.26696
50.7448 8.13447
50.9424 8.05693
51.1402 7.93523
51.3381 7.79538
51.5362 7.66927
51.7344 7.5411
51.9328 7.39409
52.1316 7.2789
52.3304 7.18476
52.5293 7.031
52.7284 6.94718
52.9276 6.83117
53.1271 6.74225
53.3267 6.60511
53.5265 6.46926
53.7264 6.3748
53.9266 6.26168
54.1269 6.12283
54.3274 5.93923
54.528 5.86004
54.7289 5.67818
54.9301 5.46139
55.1314 5.30128
55.3328 5.12967
55.5344 4.91268
55.7361 4.77235

File: Ni3Fe_FD0171.xy
TT I
1.27165 7.99953
1.45013 6.90263
1.62863 5.74422
1.80712 5.5433
1.98562 4.92017
2.16411 4.59866
2.34263 4.27496
2.52115 4.406
2.69965 5.66266
2.87818 8.62757
3.05672 11.3561
3.23527 15.1481
3.4138 18.9176
3.59237 22.0585
3.77094 25.3292
3.9495 28.7351
4.12809 32.8803
4.30669 38.2573
4.4853 45.2158
4.6639 54.5418
4.84253 67.3212
5.02118 91.5099
5.19981 539.792
5.37848 409.048
5.55716 108.046
5.73586 96.5672
5.91455 105.536
6.09328 2872.68
6.27201 88.9621
6.45075 66.6808
6.62952 60.0785
6.8083 56.1864
6.98711 53.7003
7.16591 52.9077
7.34475 52.6776
7.5236 56.1988
7.70247 54.5443
7.88135 56.7989
8.06026 61.1916
8.23919 68.7857
8.41812 84.491
8.59709 911.364
8.77609 115.38
8.9551 86.0577
9.13412 81.8123
9.31318 86.4478
9.49226 84.2477
9.67134 89.1303
9.85047 99.7907
10.0296 542.3
10.2088 934.445
10.388 104.915
10.5672 346.298
10.7465 90.739
10.9257 76.177
11.105 70.9508
11.2844 66.9537
11.4637 63.9849
11.6431 62.7528
11.8225 61.4536
12.002 65.5624
12.1814 120.994
12.3609 74.5095
12.5405 63.4809
12.72 65.8516
12.8996 70.3911
13.0792 79.4807
13.2589 209.424
13.4386 201.505
13.6183 198.277
13.7981 147.134
13.9779 76.3224
14.1577 74.5336
14.3376 69.378
14.5175 68.905
14.6974 70.3953
14.8774 121.695
15.0574 203.807
15.2374 69.7079
15.4175 66.6302
15.5976 65.9589
15.7778 107.444
15.958 186.129
16.1382 62.0499
16.3185 57.6747
16.4988 55.4798
16.6792 54.4292
16.8596 54.7902
17.04 55.7314
17.2205 65.941
17.401 81.001
17.5815 59.6358
17.7622 61.757
17.9428 84.0487
18.1237 117.81
18.3044 88.5047
18.4852 94.4674
18.666 61.2277
18.8469 58.646
19.0278 57.1668
19.2088 62.0953
19.3898 70.0614
19.5709 56.4129
19.752 53.6117
19.9332 58.5694
20.1144 67.9307
20.2957 61.839
20.477 58.8675
20.6586 50.2452
20.84 49.1895
21.0215 49.3616
21.203 50.2384
21.3846 50.7859
21.5662 49.3912
21.7479 54.4389
21.9297 62.8565
22.1115 56.6682
22.2933 52.6048
22.4753 49.1932
22.6572 49.5537
22.8393 52.3727
23.0214 57.6379
23.2037 50.2268
23.3859 52.051
23.5682 54.3226
23.7505 53.0344
23.9329 45.9539
24.1154 44.8168
24.2979 43.9818
24.4805 43.5221
24.6631 43.4374
24.8458 42.7808
25.0286 43.4772
25.2114 45.1512
25.3943 45.1871
25.5773 42.0135
25.7605 41.1178
25.9436 41.4535
26.1268 41.9247
26.31 41.1865
26.4933 41.1794
26.6767 42.4039
26.8601 41.4741
27.0437 39.7716
27.2272 39.2592
27.4109 38.9159
27.5946 39.0889
27.7784 38.7974
27.9623 38.7362
28.1462 39.7717
28.3304 38.409
28.5145 36.5554
28.6987 36.2355
28.8829 35.8043
29.0673 35.4589
29.2517 34.7683
29.4361 34.4896
29.6207 33.8664
29.8053 33.3456
29.99 33.0072
30.1748 32.9054
30.3597 32.8932
30.5447 32.6529
30.7297 32.7043
30.915 32.2329
31.1002 31.7525
31.2855 31.4517
31.4708 31.1697
31.6563 31.2101
31.8418 30.5951
32.0275 30.4553
32.2132 29.9137
32.399 29.4602
32.5848 28.8357
32.7708 28.661
32.9569 28.4998
33.143 28.2263
33.3293 27.8055
33.5158 27.5873
33.7022 27.0617
33.8887 26.65
34.0753 26.3635
34.262 25.9967
34.4488 25.7188
34.6357 25.2905
34.8227 25.0498
35.0098 24.905
35.1969 24.5195
35.3842 24.3374
35.5716 24.1318
35.759 23.835
35.9468 23.4638
36.1345 23.1642
36.3222 23.0042
36.5101 22.7683
36.6981 22.4768
36.8861 22.1409
37.0743 21.7936
37.2626 21.5632
37.451 21.2653
37.6395 21.1845
37.8281 20.7681
38.0168 20.5334
38.2056 20.2512
38.3945 19.9488
38.5837 19.7434
38.7728 19.4963
38.9621 19.3276
39.1514 18.9541
39.3409 18.7422
39.5304 18.5582
39.7201 18.2767
39.9099 18.1505
40.0999 17.8977
40.2899 17.6194
40.48 17.3515
40.6703 17.1843
40.8607 16.9894
41.0512 16.7358
41.242 16.5065
41.4327 16.3393
41.6236 16.0754
41.8146 15.8925
42.0057 15.6692
42.1969 15.4214
42.3882 15.2429
42.5797 15.0767
42.7713 14.8414
42.963 14.6729
43.1549 14.4095
43.3468 14.263
43.5389 14.0858
43.7312 13.8624
43.9237 13.6679
44.1162 13.489
44.3088 13.2743
44.5016 13.0691
44.6945 12.9165
44.8875 12.718
45.0806 12.5402
45.2739 12.3955
45.4673 12.2242
45.6609 12.0396
45.8546 11.8857
46.0484 11.7155
46.2424 11.5434
46.4365 11.3631
46.631 11.1494
46.8254 11.0012
47.0199 10.8829
47.2146 10.6915
47.4095 10.5077
47.6044 10.3806
47.7996 10.2527
47.9948 10.0759
48.1902 9.939
48.3858 9.80823
48.5815 9.66839
48.7774 9.55527
48.9734 9.37572
49.1696 9.26307
49.3661 9.0823
49.5626 8.95765
49.7592 8.83332
49.956 8.73663
50.153 8.55954
50.3501 8.38132
50.5474 8.29062
50.7448 8.16945
50.9424 8.04074
51.1402 7.90899
51.3381 7.77048
51.5362 7.6668
51.7344 7.54325
51.9328 7.40732
52.1316 7.25344
52.3304 7.19775
52.5293 7.06067
52.7284 6.94717
52.9276 6.80736
53.1271 6.74176
53.3267 6.60725
53.5265 6.46734
53.7264 6.42141
53.9266 6.26011
54.1269 6.09149
54.3274 6.03649
54.528 5.84295
54.7289 5.70555
54.9301 5.52619
55.1314 5.37435
55.3328 5.13654
55.5344 4.95185
55.7361 4.74713