Folder: NiFe_MOF_catalyst_paper/XRD (part 155)

File: Ni3Fe_FD0840.xy
TT I
1.27165 7.99813
1.45013 6.63575
1.62863 5.00325
1.80712 5.01403
1.98562 5.08536
2.16411 5.57836
2.34263 6.16981
2.52115 7.06612
2.69965 8.66426
2.87818 8.99039
3.05672 11.4447
3.23527 14.8639
3.4138 19.1588
3.59237 23.5645
3.77094 25.9556
3.9495 29.645
4.12809 35.1472
4.30669 170.574
4.4853 60.4323
4.6639 54.9327
4.84253 66.7889
5.02118 85.7313
5.19981 319.307
5.37848 179.287
5.55716 100.973
5.73586 91.181
5.91455 92.4102
6.09328 4306.67
6.27201 80.7848
6.45075 67.4404
6.62952 62.1026
6.8083 58.2192
6.98711 55.0005
7.16591 54.7614
7.34475 80.7931
7.5236 54.1834
7.70247 55.8611
7.88135 57.0691
8.06026 61.6021
8.23919 68.7805
8.41812 83.5676
8.59709 1176.03
8.77609 97.8313
8.9551 89.1384
9.13412 81.382
9.31318 82.0591
9.49226 83.4577
9.67134 95.5812
9.85047 99.3682
10.0296 323.386
10.2088 403.162
10.388 102.767
10.5672 523.082
10.7465 85.0781
10.9257 77.2974
11.105 71.1449
11.2844 68.7303
11.4637 64.136
11.6431 62.996
11.8225 61.7981
12.002 62.9688
12.1814 156.87
12.3609 68.2685
12.5405 63.9119
12.72 68.3955
12.8996 70.2993
13.0792 77.9328
13.2589 242.281
13.4386 121.772
13.6183 251.919
13.7981 95.9835
13.9779 74.933
14.1577 71.3975
14.3376 70.2292
14.5175 68.0423
14.6974 69.5054
14.8774 109.451
15.0574 145.5
15.2374 69.7241
15.4175 65.6826
15.5976 64.9755
15.7778 93.9643
15.958 151.0
16.1382 61.4778
16.3185 57.7089
16.4988 54.865
16.6792 53.7424
16.8596 54.5246
17.04 55.0015
17.2205 66.3173
17.401 69.6028
17.5815 58.5913
17.7622 60.5053
17.9428 72.4012
18.1237 137.73
18.3044 90.8065
18.4852 75.9419
18.666 59.7438
18.8469 57.2725
19.0278 56.3184
19.2088 58.5718
19.3898 75.3793
19.5709 53.6943
19.752 52.8288
19.9332 55.5602
20.1144 69.0517
20.2957 63.7062
20.477 52.9349
20.6586 49.1559
20.84 48.382
21.0215 48.0517
21.203 50.3328
21.3846 48.4321
21.5662 48.1529
21.7479 52.0042
21.9297 63.6332
22.1115 55.5061
22.2933 49.4046
22.4753 48.26
22.6572 48.3209
22.8393 51.4751
23.0214 56.38
23.2037 48.2958
23.3859 49.1508
23.5682 56.5812
23.7505 47.8067
23.9329 44.6615
24.1154 43.74
24.2979 42.8451
24.4805 42.6232
24.6631 42.2234
24.8458 41.8247
25.0286 42.4702
25.2114 44.2031
25.3943 43.912
25.5773 40.4619
25.7605 40.0357
25.9436 40.4847
26.1268 41.1899
26.31 39.6929
26.4933 40.3328
26.6767 41.634
26.8601 39.9197
27.0437 38.4486
27.2272 38.063
27.4109 38.0606
27.5946 37.7993
27.7784 37.4001
27.9623 37.9963
28.1462 38.3486
28.3304 36.6987
28.5145 35.5339
28.6987 35.3183
28.8829 34.9361
29.0673 34.3063
29.2517 33.8992
29.4361 33.6679
29.6207 32.717
29.8053 32.5275
29.99 32.2529
30.1748 32.1123
30.3597 31.9298
30.5447 31.9202
30.7297 31.8509
30.915 31.2763
31.1002 30.8315
31.2855 30.5992
31.4708 30.3903
31.6563 30.0204
31.8418 29.8909
32.0275 29.5893
32.2132 29.1231
32.399 28.531
32.5848 28.1853
32.7708 27.8162
32.9569 27.7019
33.143 27.5292
33.3293 27.1331
33.5158 26.7166
33.7022 26.3062
33.8887 26.0425
34.0753 25.7791
34.262 25.415
34.4488 24.9794
34.6357 24.7152
34.8227 24.4175
35.0098 24.3164
35.1969 24.0168
35.3842 23.6492
35.5716 23.5588
35.759 23.2249
35.9468 22.852
36.1345 22.7296
36.3222 22.3683
36.5101 22.1926
36.6981 21.9023
36.8861 21.548
37.0743 21.276
37.2626 21.0523
37.451 20.8052
37.6395 20.6034
37.8281 20.272
38.0168 19.9788
38.2056 19.7282
38.3945 19.4665
38.5837 19.2753
38.7728 18.9742
38.9621 18.7534
39.1514 18.5323
39.3409 18.3015
39.5304 18.0222
39.7201 17.8416
39.9099 17.6533
40.0999 17.4537
40.2899 17.1198
40.48 16.9453
40.6703 16.7229
40.8607 16.5822
41.0512 16.3318
41.242 16.0839
41.4327 15.8805
41.6236 15.7016
41.8146 15.5097
42.0057 15.2336
42.1969 15.0296
42.3882 14.8638
42.5797 14.6842
42.7713 14.5168
42.963 14.252
43.1549 14.057
43.3468 13.878
43.5389 13.6747
43.7312 13.5309
43.9237 13.3538
44.1162 13.1447
44.3088 12.9608
44.5016 12.711
44.6945 12.5954
44.8875 12.435
45.0806 12.2047
45.2739 12.0868
45.4673 11.9391
45.6609 11.7413
45.8546 11.6077
46.0484 11.3697
46.2424 11.2455
46.4365 11.1042
46.631 10.9429
46.8254 10.71
47.0199 10.5879
47.2146 10.4628
47.4095 10.2878
47.6044 10.1497
47.7996 9.98517
47.9948 9.83046
48.1902 9.71758
48.3858 9.59914
48.5815 9.42534
48.7774 9.2959
48.9734 9.13575
49.1696 9.00308
49.3661 8.86999
49.5626 8.71493
49.7592 8.63725
49.956 8.47541
50.153 8.36122
50.3501 8.21097
50.5474 8.07824
50.7448 7.98823
50.9424 7.84102
51.1402 7.72025
51.3381 7.58863
51.5362 7.51585
51.7344 7.37477
51.9328 7.25723
52.1316 7.10783
52.3304 7.00042
52.5293 6.90509
52.7284 6.77269
52.9276 6.64559
53.1271 6.55777
53.3267 6.44823
53.5265 6.29188
53.7264 6.21303
53.9266 6.12417
54.1269 5.99304
54.3274 5.8814
54.528 5.71177
54.7289 5.57314
54.9301 5.43401
55.1314 5.28244
55.3328 5.13817
55.5344 4.9234
55.7361 4.72081

File: Ni3Fe_FD0841.xy
TT I
1.27165 7.49939
1.45013 6.02805
1.62863 5.84787
1.80712 5.3688
1.98562 5.20626
2.16411 4.99137
2.34263 5.65508
2.52115 7.01973
2.69965 8.55119
2.87818 8.62833
3.05672 11.2597
3.23527 14.5602
3.4138 18.6121
3.59237 23.6706
3.77094 25.9285
3.9495 29.7302
4.12809 34.3108
4.30669 174.781
4.4853 60.8171
4.6639 55.1695
4.84253 66.7437
5.02118 85.8885
5.19981 318.601
5.37848 179.258
5.55716 101.259
5.73586 91.4176
5.91455 92.4671
6.09328 4361.28
6.27201 80.7221
6.45075 66.6891
6.62952 61.9924
6.8083 57.7135
6.98711 55.4286
7.16591 54.7026
7.34475 81.9524
7.5236 54.5553
7.70247 55.48
7.88135 57.4458
8.06026 61.6332
8.23919 68.6763
8.41812 83.4725
8.59709 1170.19
8.77609 97.3414
8.9551 89.4353
9.13412 81.0477
9.31318 82.2766
9.49226 83.5919
9.67134 95.879
9.85047 98.8404
10.0296 322.671
10.2088 404.426
10.388 102.877
10.5672 526.856
10.7465 85.4222
10.9257 77.4483
11.105 70.8278
11.2844 68.8398
11.4637 64.2215
11.6431 62.7957
11.8225 61.785
12.002 62.6935
12.1814 156.735
12.3609 68.3939
12.5405 63.6612
12.72 68.472
12.8996 70.2505
13.0792 77.9591
13.2589 242.42
13.4386 121.942
13.6183 252.267
13.7981 96.0168
13.9779 74.6848
14.1577 71.3807
14.3376 70.4284
14.5175 68.0184
14.6974 69.3859
14.8774 109.05
15.0574 146.2
15.2374 69.5604
15.4175 65.4004
15.5976 64.8332
15.7778 93.1763
15.958 150.163
16.1382 61.3576
16.3185 57.681
16.4988 54.8323
16.6792 53.7719
16.8596 54.5159
17.04 55.0361
17.2205 66.1431
17.401 70.1123
17.5815 58.4822
17.7622 60.4137
17.9428 72.306
18.1237 137.648
18.3044 90.8601
18.4852 76.0391
18.666 59.8801
18.8469 57.3791
19.0278 56.1232
19.2088 58.585
19.3898 75.3383
19.5709 53.4819
19.752 52.4422
19.9332 55.4067
20.1144 69.0794
20.2957 63.6233
20.477 52.9705
20.6586 48.9074
20.84 48.3854
21.0215 47.8324
21.203 50.4118
21.3846 48.4481
21.5662 48.268
21.7479 51.9264
21.9297 63.4609
22.1115 55.4747
22.2933 49.1769
22.4753 48.1698
22.6572 48.26
22.8393 51.3829
23.0214 56.3017
23.2037 48.2525
23.3859 49.2572
23.5682 56.5712
23.7505 47.8179
23.9329 44.7315
24.1154 43.6204
24.2979 43.0141
24.4805 42.4102
24.6631 42.4279
24.8458 41.689
25.0286 42.4784
25.2114 44.1172
25.3943 43.99
25.5773 40.303
25.7605 40.0078
25.9436 40.454
26.1268 41.1488
26.31 39.6726
26.4933 40.3907
26.6767 41.6652
26.8601 39.8718
27.0437 38.3484
27.2272 38.1239
27.4109 37.897
27.5946 37.9828
27.7784 37.4938
27.9623 38.1229
28.1462 38.3112
28.3304 36.7653
28.5145 35.5475
28.6987 35.2152
28.8829 35.0674
29.0673 34.2862
29.2517 34.0172
29.4361 33.7072
29.6207 32.8451
29.8053 32.4574
29.99 32.1933
30.1748 32.0714
30.3597 31.9142
30.5447 31.7447
30.7297 31.8405
30.915 31.2837
31.1002 30.7403
31.2855 30.5309
31.4708 30.5124
31.6563 30.075
31.8418 29.7804
32.0275 29.6383
32.2132 29.0339
32.399 28.6196
32.5848 28.0891
32.7708 27.8337
32.9569 27.6494
33.143 27.5389
33.3293 27.0854
33.5158 26.7115
33.7022 26.3412
33.8887 26.1158
34.0753 25.6663
34.262 25.2819
34.4488 24.9766
34.6357 24.7062
34.8227 24.4024
35.0098 24.2277
35.1969 23.9914
35.3842 23.7804
35.5716 23.5111
35.759 23.2357
35.9468 22.8472
36.1345 22.6032
36.3222 22.4337
36.5101 22.1631
36.6981 21.9087
36.8861 21.4916
37.0743 21.2105
37.2626 21.0021
37.451 20.7273
37.6395 20.6455
37.8281 20.3461
38.0168 20.0236
38.2056 19.7758
38.3945 19.5003
38.5837 19.2787
38.7728 18.995
38.9621 18.7127
39.1514 18.5229
39.3409 18.3367
39.5304 18.0479
39.7201 17.8855
39.9099 17.6001
40.0999 17.4788
40.2899 17.1595
40.48 16.9723
40.6703 16.7568
40.8607 16.5225
41.0512 16.2962
41.242 16.0626
41.4327 15.9312
41.6236 15.6513
41.8146 15.5079
42.0057 15.2506
42.1969 15.0278
42.3882 14.8364
42.5797 14.6932
42.7713 14.4881
42.963 14.3102
43.1549 14.1037
43.3468 13.8714
43.5389 13.7065
43.7312 13.4703
43.9237 13.306
44.1162 13.1426
44.3088 12.9346
44.5016 12.7395
44.6945 12.6254
44.8875 12.4264
45.0806 12.2612
45.2739 12.0444
45.4673 11.9081
45.6609 11.7364
45.8546 11.5464
46.0484 11.4077
46.2424 11.2263
46.4365 11.1041
46.631 10.9059
46.8254 10.7461
47.0199 10.586
47.2146 10.4356
47.4095 10.2453
47.6044 10.116
47.7996 9.9451
47.9948 9.80184
48.1902 9.66966
48.3858 9.55458
48.5815 9.394
48.7774 9.28485
48.9734 9.14621
49.1696 9.00098
49.3661 8.87479
49.5626 8.70909
49.7592 8.60805
49.956 8.45503
50.153 8.34737
50.3501 8.19041
50.5474 8.10735
50.7448 7.97744
50.9424 7.84033
51.1402 7.746
51.3381 7.56437
51.5362 7.46996
51.7344 7.35
51.9328 7.196
52.1316 7.10389
52.3304 7.01062
52.5293 6.89124
52.7284 6.77128
52.9276 6.63441
53.1271 6.56211
53.3267 6.4318
53.5265 6.3069
53.7264 6.2087
53.9266 6.11027
54.1269 6.01175
54.3274 5.86715
54.528 5.75179
54.7289 5.63165
54.9301 5.43614
55.1314 5.28751
55.3328 5.07572
55.5344 4.91743
55.7361 4.76738

File: Ni3Fe_FD0842.xy
TT I
1.27165 7.3189
1.45013 6.13286
1.62863 5.11209
1.80712 4.76993
1.98562 4.39623
2.16411 4.88319
2.34263 5.44075
2.52115 7.14653
2.69965 8.25388
2.87818 9.07432
3.05672 11.4508
3.23527 15.3759
3.4138 19.2342
3.59237 23.563
3.77094 25.8636
3.9495 29.6475
4.12809 34.171
4.30669 178.272
4.4853 61.3883
4.6639 54.9554
4.84253 66.3819
5.02118 85.6734
5.19981 316.684
5.37848 178.253
5.55716 100.67
5.73586 90.8681
5.91455 92.1845
6.09328 4386.37
6.27201 81.1201
6.45075 66.8219
6.62952 62.1675
6.8083 57.9118
6.98711 55.3935
7.16591 55.037
7.34475 82.262
7.5236 54.1895
7.70247 55.6263
7.88135 57.1193
8.06026 61.3895
8.23919 68.4655
8.41812 83.5693
8.59709 1169.02
8.77609 97.0624
8.9551 89.3511
9.13412 80.749
9.31318 81.9124
9.49226 83.6536
9.67134 96.0644
9.85047 98.8393
10.0296 320.71
10.2088 404.011
10.388 102.635
10.5672 530.236
10.7465 85.6292
10.9257 77.3497
11.105 71.2707
11.2844 68.9316
11.4637 64.324
11.6431 63.0248
11.8225 61.7628
12.002 62.736
12.1814 156.863
12.3609 68.2775
12.5405 63.5186
12.72 68.5154
12.8996 70.1731
13.0792 77.9707
13.2589 241.965
13.4386 121.904
13.6183 251.766
13.7981 96.1157
13.9779 74.7943
14.1577 71.5912
14.3376 70.2906
14.5175 68.0082
14.6974 69.3885
14.8774 108.585
15.0574 146.247
15.2374 69.6533
15.4175 65.6534
15.5976 64.8694
15.7778 93.3336
15.958 150.268
16.1382 61.5604
16.3185 57.7131
16.4988 54.9799
16.6792 53.8329
16.8596 54.461
17.04 55.0534
17.2205 66.2899
17.401 69.7628
17.5815 58.5383
17.7622 60.5784
17.9428 72.3167
18.1237 137.638
18.3044 90.9765
18.4852 75.9629
18.666 59.6707
18.8469 57.442
19.0278 56.2142
19.2088 58.4392
19.3898 75.6201
19.5709 53.5919
19.752 52.4396
19.9332 55.5702
20.1144 69.1582
20.2957 63.7055
20.477 53.1142
20.6586 48.9468
20.84 48.1775
21.0215 48.1226
21.203 50.3592
21.3846 48.3674
21.5662 48.2096
21.7479 52.0309
21.9297 63.5631
22.1115 55.4909
22.2933 49.1844
22.4753 48.1716
22.6572 48.1857
22.8393 51.3974
23.0214 56.403
23.2037 48.2091
23.3859 49.1889
23.5682 56.462
23.7505 47.7202
23.9329 44.6011
24.1154 43.6486
24.2979 42.8985
24.4805 42.3503
24.6631 42.3241
24.8458 41.7252
25.0286 42.3565
25.2114 44.2092
25.3943 44.0775
25.5773 40.3882
25.7605 39.9747
25.9436 40.4874
26.1268 41.2524
26.31 39.6215
26.4933 40.3155
26.6767 41.7073
26.8601 39.9051
27.0437 38.5315
27.2272 38.0591
27.4109 37.8749
27.5946 37.8567
27.7784 37.6003
27.9623 38.0225
28.1462 38.3546
28.3304 36.6369
28.5145 35.5561
28.6987 35.243
28.8829 35.0313
29.0673 34.2902
29.2517 33.9904
29.4361 33.7066
29.6207 32.6832
29.8053 32.5149
29.99 32.1691
30.1748 31.987
30.3597 31.794
30.5447 31.7743
30.7297 31.8776
30.915 31.2672
31.1002 30.746
31.2855 30.4845
31.4708 30.5412
31.6563 30.0199
31.8418 29.8132
32.0275 29.6012
32.2132 29.0549
32.399 28.6087
32.5848 28.2054
32.7708 27.7961
32.9569 27.7567
33.143 27.5779
33.3293 27.0839
33.5158 26.6564
33.7022 26.3096
33.8887 26.0146
34.0753 25.6844
34.262 25.4006
34.4488 25.0899
34.6357 24.7356
34.8227 24.4008
35.0098 24.2626
35.1969 23.8967
35.3842 23.6758
35.5716 23.5407
35.759 23.2238
35.9468 22.9382
36.1345 22.6
36.3222 22.5054
36.5101 22.1741
36.6981 21.8608
36.8861 21.6108
37.0743 21.2889
37.2626 20.9226
37.451 20.7728
37.6395 20.6201
37.8281 20.265
38.0168 19.9844
38.2056 19.6693
38.3945 19.4737
38.5837 19.2406
38.7728 18.9705
38.9621 18.7831
39.1514 18.4342
39.3409 18.2449
39.5304 17.9619
39.7201 17.86
39.9099 17.5869
40.0999 17.3804
40.2899 17.196
40.48 16.9116
40.6703 16.722
40.8607 16.5301
41.0512 16.3058
41.242 16.0731
41.4327 15.8622
41.6236 15.6888
41.8146 15.5294
42.0057 15.2655
42.1969 15.0393
42.3882 14.8797
42.5797 14.6919
42.7713 14.4334
42.963 14.3181
43.1549 14.0818
43.3468 13.843
43.5389 13.6614
43.7312 13.4724
43.9237 13.2981
44.1162 13.1176
44.3088 12.9278
44.5016 12.7738
44.6945 12.6329
44.8875 12.4525
45.0806 12.251
45.2739 12.0397
45.4673 11.8975
45.6609 11.7281
45.8546 11.602
46.0484 11.4228
46.2424 11.2375
46.4365 11.0828
46.631 10.8847
46.8254 10.7185
47.0199 10.6029
47.2146 10.4625
47.4095 10.2583
47.6044 10.1091
47.7996 10.0116
47.9948 9.80082
48.1902 9.68759
48.3858 9.56323
48.5815 9.43696
48.7774 9.26418
48.9734 9.16404
49.1696 8.99517
49.3661 8.85896
49.5626 8.67051
49.7592 8.60191
49.956 8.4519
50.153 8.3158
50.3501 8.24222
50.5474 8.07221
50.7448 7.9883
50.9424 7.79701
51.1402 7.71875
51.3381 7.59693
51.5362 7.50819
51.7344 7.33462
51.9328 7.20599
52.1316 7.09821
52.3304 7.01438
52.5293 6.86833
52.7284 6.75697
52.9276 6.61215
53.1271 6.53678
53.3267 6.41007
53.5265 6.30586
53.7264 6.19682
53.9266 6.1409
54.1269 5.97836
54.3274 5.88638
54.528 5.7768
54.7289 5.58712
54.9301 5.43083
55.1314 5.31475
55.3328 5.07967
55.5344 4.91571
55.7361 4.77646

File: Ni3Fe_FD0843.xy
TT I
1.27165 7.17665
1.45013 6.2008
1.62863 4.7373
1.80712 4.61067
1.98562 4.72485
2.16411 5.42457
2.34263 5.66587
2.52115 7.62185
2.69965 7.94374
2.87818 8.61944
3.05672 11.8499
3.23527 15.8447
3.4138 18.7024
3.59237 23.587
3.77094 25.851
3.9495 29.2873
4.12809 34.9094
4.30669 181.884
4.4853 61.2778
4.6639 55.035
4.84253 67.0303
5.02118 85.4326
5.19981 314.825
5.37848 177.984
5.55716 100.85
5.73586 91.3081
5.91455 92.1684
6.09328 4378.55
6.27201 80.6906
6.45075 66.7011
6.62952 61.9952
6.8083 58.2898
6.98711 55.2171
7.16591 54.5778
7.34475 83.1714
7.5236 54.1418
7.70247 55.4735
7.88135 57.3415
8.06026 61.1077
8.23919 68.357
8.41812 83.6731
8.59709 1166.8
8.77609 97.7539
8.9551 90.0679
9.13412 81.4337
9.31318 81.944
9.49226 83.6506
9.67134 96.02
9.85047 98.5379
10.0296 320.434
10.2088 403.127
10.388 103.033
10.5672 532.173
10.7465 85.6779
10.9257 77.282
11.105 70.8997
11.2844 69.0196
11.4637 64.3266
11.6431 62.7691
11.8225 61.499
12.002 62.4736
12.1814 156.403
12.3609 68.7217
12.5405 63.7405
12.72 68.4097
12.8996 69.9622
13.0792 77.6658
13.2589 241.072
13.4386 121.447
13.6183 251.674
13.7981 95.7656
13.9779 74.5761
14.1577 71.3634
14.3376 70.3553
14.5175 68.0814
14.6974 69.3052
14.8774 108.855
15.0574 146.465
15.2374 69.5084
15.4175 65.6703
15.5976 64.7553
15.7778 92.6959
15.958 150.488
16.1382 61.5962
16.3185 57.7219
16.4988 54.7345
16.6792 53.7314
16.8596 54.4942
17.04 54.9921
17.2205 66.1678
17.401 69.925
17.5815 58.5105
17.7622 60.4416
17.9428 72.2487
18.1237 138.008
18.3044 90.709
18.4852 75.8911
18.666 59.6782
18.8469 57.3382
19.0278 56.0737
19.2088 58.597
19.3898 75.8269
19.5709 53.6815
19.752 52.7308
19.9332 55.5006
20.1144 69.1672
20.2957 63.61
20.477 53.0234
20.6586 48.9204
20.84 48.293
21.0215 48.0925
21.203 50.3917
21.3846 48.3364
21.5662 48.097
21.7479 51.8699
21.9297 63.7118
22.1115 55.3383
22.2933 49.2568
22.4753 48.3152
22.6572 48.3558
22.8393 51.4861
23.0214 56.3385
23.2037 48.2248
23.3859 49.0358
23.5682 56.6195
23.7505 47.6922
23.9329 44.7177
24.1154 43.6026
24.2979 42.9092
24.4805 42.4486
24.6631 42.1579
24.8458 41.8147
25.0286 42.3564
25.2114 44.2311
25.3943 44.0643
25.5773 40.574
25.7605 39.9643
25.9436 40.3035
26.1268 41.2186
26.31 39.6141
26.4933 40.2919
26.6767 41.6376
26.8601 39.9663
27.0437 38.5197
27.2272 38.0993
27.4109 38.0227
27.5946 37.9187
27.7784 37.2737
27.9623 38.0542
28.1462 38.3681
28.3304 36.7241
28.5145 35.5983
28.6987 35.146
28.8829 35.06
29.0673 34.2507
29.2517 33.9538
29.4361 33.6717
29.6207 32.7092
29.8053 32.6068
29.99 32.2055
30.1748 32.1187
30.3597 31.8404
30.5447 31.7455
30.7297 31.8815
30.915 31.2981
31.1002 30.803
31.2855 30.4307
31.4708 30.4534
31.6563 30.0258
31.8418 29.8567
32.0275 29.5176
32.2132 29.0196
32.399 28.6201
32.5848 28.1321
32.7708 27.9414
32.9569 27.604
33.143 27.4921
33.3293 27.0559
33.5158 26.8008
33.7022 26.3567
33.8887 26.0632
34.0753 25.7074
34.262 25.3976
34.4488 25.034
34.6357 24.6678
34.8227 24.3561
35.0098 24.2014
35.1969 23.9869
35.3842 23.7063
35.5716 23.5385
35.759 23.2266
35.9468 22.8245
36.1345 22.6481
36.3222 22.3774
36.5101 22.1662
36.6981 21.8386
36.8861 21.5162
37.0743 21.3043
37.2626 21.0195
37.451 20.7472
37.6395 20.5023
37.8281 20.2178
38.0168 19.987
38.2056 19.7097
38.3945 19.4614
38.5837 19.2054
38.7728 19.0247
38.9621 18.7541
39.1514 18.5105
39.3409 18.2333
39.5304 18.0272
39.7201 17.8722
39.9099 17.6504
40.0999 17.4067
40.2899 17.1694
40.48 16.9278
40.6703 16.7251
40.8607 16.5571
41.0512 16.3469
41.242 16.0643
41.4327 15.9126
41.6236 15.6547
41.8146 15.4828
42.0057 15.2134
42.1969 15.0096
42.3882 14.8768
42.5797 14.7035
42.7713 14.4427
42.963 14.2736
43.1549 14.0617
43.3468 13.8691
43.5389 13.6873
43.7312 13.4592
43.9237 13.2914
44.1162 13.1423
44.3088 12.9474
44.5016 12.7043
44.6945 12.5757
44.8875 12.4411
45.0806 12.2269
45.2739 12.0572
45.4673 11.8992
45.6609 11.733
45.8546 11.5656
46.0484 11.4398
46.2424 11.2358
46.4365 11.0917
46.631 10.91
46.8254 10.7258
47.0199 10.5716
47.2146 10.4576
47.4095 10.2707
47.6044 10.1299
47.7996 9.98003
47.9948 9.85055
48.1902 9.68878
48.3858 9.53974
48.5815 9.42633
48.7774 9.29942
48.9734 9.15476
49.1696 9.02071
49.3661 8.86406
49.5626 8.73089
49.7592 8.59946
49.956 8.46852
50.153 8.35461
50.3501 8.19331
50.5474 8.11245
50.7448 7.97896
50.9424 7.85203
51.1402 7.72018
51.3381 7.5601
51.5362 7.47205
51.7344 7.34079
51.9328 7.21598
52.1316 7.12527
52.3304 7.01063
52.5293 6.86553
52.7284 6.74375
52.9276 6.63892
53.1271 6.549
53.3267 6.44478
53.5265 6.29854
53.7264 6.19571
53.9266 6.08883
54.1269 5.96423
54.3274 5.86685
54.528 5.73763
54.7289 5.64034
54.9301 5.43289
55.1314 5.30787
55.3328 5.07095
55.5344 4.86814
55.7361 4.78274

File: Ni3Fe_FD0844.xy
TT I
1.27165 7.62034
1.45013 6.04026
1.62863 5.39152
1.80712 5.6503
1.98562 4.86914
2.16411 5.20939
2.34263 5.91608
2.52115 6.89891
2.69965 8.42054
2.87818 9.03627
3.05672 11.7081
3.23527 15.1465
3.4138 18.7721
3.59237 23.77
3.77094 26.092
3.9495 29.7696
4.12809 34.4498
4.30669 184.327
4.4853 61.9303
4.6639 54.8009
4.84253 66.2589
5.02118 85.5309
5.19981 311.838
5.37848 176.996
5.55716 100.9
5.73586 90.9962
5.91455 92.3728
6.09328 4385.5
6.27201 81.1638
6.45075 66.538
6.62952 62.0792
6.8083 58.006
6.98711 55.4053
7.16591 54.7342
7.34475 83.6968
7.5236 54.2193
7.70247 55.6943
7.88135 57.2971
8.06026 61.4085
8.23919 68.4192
8.41812 83.6391
8.59709 1172.68
8.77609 97.6468
8.9551 89.5196
9.13412 81.0756
9.31318 81.8433
9.49226 83.144
9.67134 96.2148
9.85047 98.5975
10.0296 320.029
10.2088 403.482
10.388 102.547
10.5672 533.9
10.7465 85.2669
10.9257 76.9193
11.105 71.0089
11.2844 68.9784
11.4637 64.0594
11.6431 62.8454
11.8225 61.4456
12.002 62.6893
12.1814 156.348
12.3609 68.6944
12.5405 63.7217
12.72 68.6954
12.8996 70.0727
13.0792 77.8608
13.2589 239.663
13.4386 121.472
13.6183 250.859
13.7981 96.0818
13.9779 74.8636
14.1577 71.5344
14.3376 70.4802
14.5175 67.9014
14.6974 69.6552
14.8774 108.579
15.0574 146.724
15.2374 69.8419
15.4175 65.6772
15.5976 64.9447
15.7778 92.7718
15.958 150.998
16.1382 61.5396
16.3185 57.7267
16.4988 54.5647
16.6792 53.739
16.8596 54.4874
17.04 55.0226
17.2205 66.0177
17.401 69.7777
17.5815 58.4584
17.7622 60.6973
17.9428 72.0379
18.1237 138.42
18.3044 90.4567
18.4852 75.8928
18.666 59.6651
18.8469 57.1947
19.0278 56.2429
19.2088 58.661
19.3898 75.2947
19.5709 53.5409
19.752 52.6265
19.9332 55.4592
20.1144 69.3342
20.2957 63.834
20.477 53.0386
20.6586 49.157
20.84 48.1443
21.0215 48.1056
21.203 50.3524
21.3846 48.4289
21.5662 48.2743
21.7479 51.8545
21.9297 63.5968
22.1115 55.6286
22.2933 49.2499
22.4753 48.4008
22.6572 48.2905
22.8393 51.3784
23.0214 56.4449
23.2037 48.1563
23.3859 49.1023
23.5682 56.5095
23.7505 47.765
23.9329 44.6721
24.1154 43.7283
24.2979 43.0649
24.4805 42.5127
24.6631 42.3219
24.8458 41.8599
25.0286 42.4351
25.2114 44.1654
25.3943 44.0288
25.5773 40.5033
25.7605 39.9746
25.9436 40.3657
26.1268 41.2721
26.31 39.7433
26.4933 40.2648
26.6767 41.7319
26.8601 40.0021
27.0437 38.3389
27.2272 38.062
27.4109 37.8971
27.5946 37.9595
27.7784 37.4447
27.9623 38.0522
28.1462 38.2821
28.3304 36.7747
28.5145 35.4599
28.6987 35.2813
28.8829 35.0653
29.0673 34.2088
29.2517 33.9813
29.4361 33.7582
29.6207 32.789
29.8053 32.5273
29.99 32.2376
30.1748 32.0522
30.3597 31.9446
30.5447 31.8312
30.7297 31.7398
30.915 31.2748
31.1002 30.7315
31.2855 30.5476
31.4708 30.4058
31.6563 29.9544
31.8418 29.7934
32.0275 29.6093
32.2132 29.0689
32.399 28.6382
32.5848 28.1087
32.7708 27.8989
32.9569 27.693
33.143 27.5563
33.3293 27.0269
33.5158 26.6816
33.7022 26.2913
33.8887 25.9705
34.0753 25.7256
34.262 25.3721
34.4488 25.0221
34.6357 24.6419
34.8227 24.438
35.0098 24.2995
35.1969 23.924
35.3842 23.7304
35.5716 23.5095
35.759 23.2193
35.9468 22.8224
36.1345 22.5646
36.3222 22.4338
36.5101 22.1666
36.6981 21.9236
36.8861 21.5348
37.0743 21.2801
37.2626 20.9756
37.451 20.7332
37.6395 20.598
37.8281 20.2624
38.0168 19.9753
38.2056 19.6942
38.3945 19.4992
38.5837 19.2204
38.7728 19.0463
38.9621 18.7668
39.1514 18.4682
39.3409 18.2256
39.5304 18.1035
39.7201 17.831
39.9099 17.6257
40.0999 17.3952
40.2899 17.2075
40.48 16.8837
40.6703 16.7623
40.8607 16.5943
41.0512 16.2795
41.242 16.0732
41.4327 15.8825
41.6236 15.6501
41.8146 15.527
42.0057 15.272
42.1969 15.0601
42.3882 14.8791
42.5797 14.6693
42.7713 14.432
42.963 14.2775
43.1549 14.0609
43.3468 13.8843
43.5389 13.6579
43.7312 13.5164
43.9237 13.3254
44.1162 13.133
44.3088 12.9551
44.5016 12.7591
44.6945 12.6204
44.8875 12.3847
45.0806 12.2229
45.2739 12.0503
45.4673 11.9346
45.6609 11.7635
45.8546 11.556
46.0484 11.4314
46.2424 11.2458
46.4365 11.0976
46.631 10.8598
46.8254 10.7324
47.0199 10.5701
47.2146 10.4583
47.4095 10.2586
47.6044 10.1319
47.7996 9.93992
47.9948 9.82274
48.1902 9.67982
48.3858 9.55496
48.5815 9.42739
48.7774 9.24522
48.9734 9.13041
49.1696 8.97226
49.3661 8.84831
49.5626 8.70462
49.7592 8.60527
49.956 8.45964
50.153 8.33843
50.3501 8.25507
50.5474 8.08547
50.7448 7.95214
50.9424 7.86678
51.1402 7.71988
51.3381 7.60901
51.5362 7.50203
51.7344 7.35189
51.9328 7.21088
52.1316 7.07676
52.3304 6.96296
52.5293 6.87331
52.7284 6.7438
52.9276 6.61263
53.1271 6.53251
53.3267 6.44823
53.5265 6.32053
53.7264 6.20035
53.9266 6.12605
54.1269 6.00445
54.3274 5.87155
54.528 5.72896
54.7289 5.55441
54.9301 5.41135
55.1314 5.29144
55.3328 5.11699
55.5344 4.89208
55.7361 4.76932