Folder: NiFe_MOF_catalyst_paper/XRD (part 104)

File: Ni3Fe_FD0564.xy
TT I
1.27165 7.57687
1.45013 6.23401
1.62863 5.3502
1.80712 5.07799
1.98562 4.43148
2.16411 4.89662
2.34263 5.29022
2.52115 7.09271
2.69965 7.60837
2.87818 8.99762
3.05672 10.7764
3.23527 15.1345
3.4138 18.4942
3.59237 23.4398
3.77094 25.8611
3.9495 29.5692
4.12809 34.6858
4.30669 147.686
4.4853 58.5683
4.6639 56.1182
4.84253 67.3527
5.02118 88.7499
5.19981 438.955
5.37848 197.146
5.55716 103.297
5.73586 93.137
5.91455 96.7629
6.09328 4431.72
6.27201 82.6851
6.45075 67.7328
6.62952 62.732
6.8083 58.6997
6.98711 55.7117
7.16591 55.6062
7.34475 78.574
7.5236 55.1955
7.70247 56.3848
7.88135 58.166
8.06026 62.5685
8.23919 70.1511
8.41812 85.3275
8.59709 1232.25
8.77609 99.9256
8.9551 90.1256
9.13412 82.5238
9.31318 83.3174
9.49226 85.1876
9.67134 96.2187
9.85047 100.955
10.0296 379.594
10.2088 397.258
10.388 105.899
10.5672 522.581
10.7465 87.4069
10.9257 78.2521
11.105 72.0836
11.2844 69.7365
11.4637 65.0121
11.6431 64.033
11.8225 62.532
12.002 64.6329
12.1814 155.152
12.3609 68.9449
12.5405 64.9105
12.72 69.2484
12.8996 71.6634
13.0792 80.2753
13.2589 249.564
13.4386 122.529
13.6183 253.635
13.7981 96.74
13.9779 76.12
14.1577 72.6233
14.3376 71.2799
14.5175 69.4119
14.6974 71.1167
14.8774 115.604
15.0574 144.412
15.2374 70.7504
15.4175 66.8674
15.5976 66.6071
15.7778 98.6564
15.958 153.603
16.1382 62.5413
16.3185 58.7058
16.4988 55.6871
16.6792 54.873
16.8596 55.3521
17.04 56.4111
17.2205 67.7888
17.401 70.946
17.5815 59.6686
17.7622 61.8777
17.9428 75.4661
18.1237 141.593
18.3044 92.0004
18.4852 77.2144
18.666 60.7276
18.8469 58.4897
19.0278 57.0934
19.2088 60.2251
19.3898 76.2608
19.5709 54.6026
19.752 53.6848
19.9332 56.9592
20.1144 70.3831
20.2957 64.2875
20.477 53.7067
20.6586 49.8554
20.84 49.0101
21.0215 48.8576
21.203 51.1529
21.3846 49.3789
21.5662 49.3155
21.7479 53.4042
21.9297 65.1279
22.1115 56.552
22.2933 50.2333
22.4753 49.0427
22.6572 49.4142
22.8393 52.5751
23.0214 57.484
23.2037 49.1707
23.3859 50.2635
23.5682 57.2976
23.7505 48.3748
23.9329 45.573
24.1154 44.4089
24.2979 43.6669
24.4805 43.2269
24.6631 43.0063
24.8458 42.5063
25.0286 43.227
25.2114 44.8867
25.3943 44.8374
25.5773 41.2195
25.7605 40.7332
25.9436 41.2431
26.1268 42.0503
26.31 40.4283
26.4933 41.0087
26.6767 42.4802
26.8601 40.6755
27.0437 39.0738
27.2272 38.7855
27.4109 38.7617
27.5946 38.6479
27.7784 38.1742
27.9623 38.7283
28.1462 39.1864
28.3304 37.4006
28.5145 36.1918
28.6987 35.8255
28.8829 35.577
29.0673 34.869
29.2517 34.5709
29.4361 34.4225
29.6207 33.326
29.8053 32.9939
29.99 32.7883
30.1748 32.6242
30.3597 32.3994
30.5447 32.3686
30.7297 32.383
30.915 31.7503
31.1002 31.3237
31.2855 31.0304
31.4708 30.9934
31.6563 30.5566
31.8418 30.39
32.0275 30.0079
32.2132 29.5325
32.399 29.0815
32.5848 28.5976
32.7708 28.3607
32.9569 28.2741
33.143 27.9345
33.3293 27.5716
33.5158 27.1586
33.7022 26.7546
33.8887 26.3965
34.0753 26.2116
34.262 25.8363
34.4488 25.4447
34.6357 25.1711
34.8227 24.7782
35.0098 24.6229
35.1969 24.3444
35.3842 24.1732
35.5716 23.9454
35.759 23.6573
35.9468 23.236
36.1345 22.9993
36.3222 22.8093
36.5101 22.5658
36.6981 22.3102
36.8861 21.9141
37.0743 21.616
37.2626 21.3622
37.451 21.1156
37.6395 20.9716
37.8281 20.5827
38.0168 20.3547
38.2056 20.0864
38.3945 19.8114
38.5837 19.5923
38.7728 19.335
38.9621 19.0502
39.1514 18.8315
39.3409 18.5699
39.5304 18.3758
39.7201 18.1742
39.9099 17.9811
40.0999 17.7197
40.2899 17.4573
40.48 17.1987
40.6703 17.059
40.8607 16.8215
41.0512 16.6378
41.242 16.3039
41.4327 16.2157
41.6236 15.9541
41.8146 15.757
42.0057 15.5139
42.1969 15.2895
42.3882 15.1079
42.5797 14.8892
42.7713 14.7226
42.963 14.5172
43.1549 14.3168
43.3468 14.0727
43.5389 13.9267
43.7312 13.7338
43.9237 13.5405
44.1162 13.3264
44.3088 13.1324
44.5016 12.9569
44.6945 12.7812
44.8875 12.597
45.0806 12.4539
45.2739 12.2874
45.4673 12.1417
45.6609 11.912
45.8546 11.7744
46.0484 11.577
46.2424 11.4262
46.4365 11.3068
46.631 11.077
46.8254 10.9284
47.0199 10.7424
47.2146 10.6285
47.4095 10.4273
47.6044 10.2964
47.7996 10.1697
47.9948 10.0238
48.1902 9.84235
48.3858 9.68989
48.5815 9.61616
48.7774 9.45472
48.9734 9.31041
49.1696 9.14845
49.3661 9.01888
49.5626 8.84764
49.7592 8.78396
49.956 8.59793
50.153 8.45355
50.3501 8.34922
50.5474 8.23978
50.7448 8.10163
50.9424 7.97683
51.1402 7.82756
51.3381 7.70075
51.5362 7.62369
51.7344 7.46098
51.9328 7.33823
52.1316 7.23577
52.3304 7.11611
52.5293 7.01585
52.7284 6.9012
52.9276 6.76869
53.1271 6.66171
53.3267 6.54183
53.5265 6.4367
53.7264 6.29313
53.9266 6.20197
54.1269 6.03294
54.3274 5.99163
54.528 5.91675
54.7289 5.65758
54.9301 5.51231
55.1314 5.4297
55.3328 5.19781
55.5344 4.99985
55.7361 4.84353

File: Ni3Fe_FD0565.xy
TT I
1.27165 7.26347
1.45013 5.73034
1.62863 5.31255
1.80712 5.15906
1.98562 4.74404
2.16411 4.93921
2.34263 5.55231
2.52115 5.83082
2.69965 8.11118
2.87818 8.40784
3.05672 11.0245
3.23527 15.1058
3.4138 18.7771
3.59237 23.6866
3.77094 25.8219
3.9495 30.1737
4.12809 34.6218
4.30669 144.466
4.4853 58.7795
4.6639 56.358
4.84253 67.9729
5.02118 89.3224
5.19981 440.397
5.37848 196.678
5.55716 102.662
5.73586 93.6759
5.91455 97.1482
6.09328 4444.21
6.27201 82.4372
6.45075 68.2224
6.62952 62.7628
6.8083 58.6098
6.98711 55.6915
7.16591 55.6486
7.34475 77.7658
7.5236 54.6102
7.70247 56.3639
7.88135 58.0817
8.06026 62.7453
8.23919 69.9868
8.41812 85.8595
8.59709 1232.78
8.77609 99.7668
8.9551 90.254
9.13412 83.095
9.31318 83.3996
9.49226 85.0649
9.67134 96.2832
9.85047 101.072
10.0296 378.215
10.2088 391.228
10.388 106.063
10.5672 522.437
10.7465 87.2349
10.9257 78.7566
11.105 72.1219
11.2844 69.2642
11.4637 65.3618
11.6431 63.7824
11.8225 62.6444
12.002 64.6042
12.1814 155.128
12.3609 68.6309
12.5405 64.6361
12.72 68.9978
12.8996 71.8359
13.0792 80.3644
13.2589 249.432
13.4386 122.188
13.6183 254.352
13.7981 96.4788
13.9779 76.2451
14.1577 72.5855
14.3376 71.3137
14.5175 69.4995
14.6974 70.9741
14.8774 115.642
15.0574 144.317
15.2374 70.4849
15.4175 66.8943
15.5976 66.5278
15.7778 98.8403
15.958 152.893
16.1382 62.4089
16.3185 58.4887
16.4988 55.7364
16.6792 54.7588
16.8596 55.4204
17.04 56.4529
17.2205 68.0059
17.401 71.0748
17.5815 59.5862
17.7622 61.6735
17.9428 75.56
18.1237 141.548
18.3044 92.1302
18.4852 77.2019
18.666 60.722
18.8469 58.4085
19.0278 57.147
19.2088 60.1315
19.3898 76.4259
19.5709 54.3864
19.752 53.5256
19.9332 56.933
20.1144 70.4614
20.2957 64.433
20.477 53.6717
20.6586 49.9729
20.84 49.1719
21.0215 48.968
21.203 51.1131
21.3846 49.3309
21.5662 49.293
21.7479 53.5112
21.9297 65.1284
22.1115 56.3207
22.2933 50.0853
22.4753 49.1399
22.6572 49.274
22.8393 52.4944
23.0214 57.4811
23.2037 49.1356
23.3859 50.22
23.5682 57.3833
23.7505 48.4408
23.9329 45.4476
24.1154 44.4814
24.2979 43.5876
24.4805 43.1512
24.6631 43.0601
24.8458 42.5429
25.0286 43.2102
25.2114 45.1025
25.3943 44.8509
25.5773 41.1647
25.7605 40.6793
25.9436 41.0496
26.1268 42.0286
26.31 40.3354
26.4933 41.0005
26.6767 42.5663
26.8601 40.5903
27.0437 39.1485
27.2272 38.7742
27.4109 38.5964
27.5946 38.614
27.7784 38.1007
27.9623 38.7002
28.1462 39.0239
28.3304 37.3995
28.5145 36.1319
28.6987 35.9347
28.8829 35.7068
29.0673 34.858
29.2517 34.5628
29.4361 34.4192
29.6207 33.2744
29.8053 33.0911
29.99 32.7931
30.1748 32.6316
30.3597 32.4418
30.5447 32.4068
30.7297 32.4579
30.915 31.8172
31.1002 31.3143
31.2855 31.0326
31.4708 31.0084
31.6563 30.5433
31.8418 30.315
32.0275 30.1267
32.2132 29.5851
32.399 29.0932
32.5848 28.5168
32.7708 28.3642
32.9569 28.2059
33.143 27.9826
33.3293 27.5958
33.5158 27.1489
33.7022 26.7431
33.8887 26.4957
34.0753 26.1386
34.262 25.8179
34.4488 25.4844
34.6357 25.1632
34.8227 24.7865
35.0098 24.6554
35.1969 24.3072
35.3842 24.0914
35.5716 23.8998
35.759 23.6223
35.9468 23.2655
36.1345 23.02
36.3222 22.7729
36.5101 22.5949
36.6981 22.2692
36.8861 21.931
37.0743 21.5971
37.2626 21.394
37.451 21.1034
37.6395 20.9938
37.8281 20.5726
38.0168 20.4089
38.2056 20.1046
38.3945 19.7899
38.5837 19.5511
38.7728 19.3468
38.9621 19.1122
39.1514 18.7722
39.3409 18.5189
39.5304 18.3393
39.7201 18.2044
39.9099 17.941
40.0999 17.6887
40.2899 17.4583
40.48 17.1961
40.6703 17.0412
40.8607 16.8414
41.0512 16.6281
41.242 16.3211
41.4327 16.1578
41.6236 15.9252
41.8146 15.7498
42.0057 15.5631
42.1969 15.2879
42.3882 15.0881
42.5797 14.9098
42.7713 14.6698
42.963 14.5
43.1549 14.3452
43.3468 14.0815
43.5389 13.9025
43.7312 13.6965
43.9237 13.5665
44.1162 13.358
44.3088 13.1715
44.5016 12.9971
44.6945 12.846
44.8875 12.5934
45.0806 12.432
45.2739 12.2824
45.4673 12.1372
45.6609 11.9366
45.8546 11.7632
46.0484 11.6031
46.2424 11.3944
46.4365 11.2309
46.631 11.0684
46.8254 10.8985
47.0199 10.7886
47.2146 10.6153
47.4095 10.4291
47.6044 10.311
47.7996 10.1191
47.9948 10.0112
48.1902 9.8374
48.3858 9.67076
48.5815 9.60525
48.7774 9.44869
48.9734 9.31222
49.1696 9.15839
49.3661 8.98599
49.5626 8.85139
49.7592 8.77986
49.956 8.60698
50.153 8.47176
50.3501 8.33341
50.5474 8.20478
50.7448 8.1064
50.9424 8.00741
51.1402 7.82776
51.3381 7.70136
51.5362 7.58304
51.7344 7.47417
51.9328 7.31169
52.1316 7.24116
52.3304 7.10231
52.5293 6.99058
52.7284 6.85753
52.9276 6.75455
53.1271 6.6895
53.3267 6.52898
53.5265 6.42916
53.7264 6.35588
53.9266 6.18807
54.1269 6.05016
54.3274 5.93281
54.528 5.84018
54.7289 5.64236
54.9301 5.53937
55.1314 5.39119
55.3328 5.14727
55.5344 4.99642
55.7361 4.82987

File: Ni3Fe_FD0566.xy
TT I
1.27165 7.34418
1.45013 6.32348
1.62863 5.28762
1.80712 5.31825
1.98562 4.41894
2.16411 4.44334
2.34263 5.08853
2.52115 6.4663
2.69965 8.08095
2.87818 9.30408
3.05672 10.8604
3.23527 14.9713
3.4138 19.0583
3.59237 23.6491
3.77094 25.9176
3.9495 29.6112
4.12809 34.1255
4.30669 143.018
4.4853 58.5422
4.6639 56.209
4.84253 67.9735
5.02118 88.7636
5.19981 443.423
5.37848 198.195
5.55716 103.251
5.73586 93.5204
5.91455 97.0382
6.09328 4464.06
6.27201 82.5394
6.45075 68.0181
6.62952 63.0487
6.8083 58.9865
6.98711 55.7616
7.16591 55.5742
7.34475 77.1667
7.5236 54.8458
7.70247 56.3923
7.88135 58.0592
8.06026 62.5755
8.23919 70.0113
8.41812 85.8199
8.59709 1242.44
8.77609 99.7271
8.9551 89.9026
9.13412 83.0059
9.31318 83.3707
9.49226 85.7282
9.67134 96.3882
9.85047 100.87
10.0296 379.41
10.2088 382.989
10.388 106.104
10.5672 524.081
10.7465 87.2801
10.9257 78.1586
11.105 72.0816
11.2844 69.7349
11.4637 65.1279
11.6431 63.8121
11.8225 62.8331
12.002 64.7152
12.1814 155.191
12.3609 68.6002
12.5405 64.8266
12.72 68.8161
12.8996 71.7228
13.0792 80.3903
13.2589 250.214
13.4386 122.112
13.6183 254.239
13.7981 96.1699
13.9779 76.565
14.1577 72.5764
14.3376 71.5468
14.5175 69.1974
14.6974 70.932
14.8774 115.507
15.0574 144.606
15.2374 70.5416
15.4175 66.6944
15.5976 66.6394
15.7778 98.7678
15.958 152.592
16.1382 62.3056
16.3185 58.5155
16.4988 55.8296
16.6792 54.9369
16.8596 55.2394
17.04 56.4203
17.2205 67.8007
17.401 71.0266
17.5815 59.6057
17.7622 61.9814
17.9428 75.7045
18.1237 141.297
18.3044 91.9597
18.4852 76.9692
18.666 60.8828
18.8469 58.3823
19.0278 57.3235
19.2088 60.1709
19.3898 76.2401
19.5709 54.5316
19.752 53.7345
19.9332 56.7504
20.1144 70.6068
20.2957 64.3213
20.477 53.7486
20.6586 49.8436
20.84 49.1141
21.0215 48.8612
21.203 51.1592
21.3846 49.1498
21.5662 49.3521
21.7479 53.3588
21.9297 65.0415
22.1115 56.3788
22.2933 50.0173
22.4753 49.2221
22.6572 49.2639
22.8393 52.4283
23.0214 57.4366
23.2037 49.1302
23.3859 50.3685
23.5682 57.5046
23.7505 48.4386
23.9329 45.4643
24.1154 44.3385
24.2979 43.6255
24.4805 43.2499
24.6631 43.0938
24.8458 42.5215
25.0286 43.2575
25.2114 44.8811
25.3943 44.826
25.5773 41.133
25.7605 40.815
25.9436 41.1233
26.1268 42.0487
26.31 40.3443
26.4933 41.0862
26.6767 42.4366
26.8601 40.6977
27.0437 39.22
27.2272 38.8242
27.4109 38.7463
27.5946 38.5615
27.7784 38.1039
27.9623 38.7086
28.1462 39.073
28.3304 37.3718
28.5145 36.1608
28.6987 35.9122
28.8829 35.6137
29.0673 34.8721
29.2517 34.5036
29.4361 34.2787
29.6207 33.2898
29.8053 33.0882
29.99 32.7184
30.1748 32.6803
30.3597 32.3973
30.5447 32.4434
30.7297 32.4519
30.915 31.739
31.1002 31.3971
31.2855 31.1032
31.4708 30.9409
31.6563 30.5799
31.8418 30.3598
32.0275 30.0684
32.2132 29.5334
32.399 29.1057
32.5848 28.7085
32.7708 28.3642
32.9569 28.2532
33.143 28.0096
33.3293 27.6124
33.5158 27.1758
33.7022 26.7484
33.8887 26.4236
34.0753 26.1904
34.262 25.8674
34.4488 25.4443
34.6357 25.15
34.8227 24.8458
35.0098 24.7012
35.1969 24.3483
35.3842 24.0706
35.5716 23.9332
35.759 23.6336
35.9468 23.2869
36.1345 23.0038
36.3222 22.8039
36.5101 22.5848
36.6981 22.2437
36.8861 21.9826
37.0743 21.5902
37.2626 21.3341
37.451 21.0835
37.6395 20.9272
37.8281 20.614
38.0168 20.3522
38.2056 20.1003
38.3945 19.8403
38.5837 19.643
38.7728 19.3237
38.9621 19.0019
39.1514 18.815
39.3409 18.5465
39.5304 18.3407
39.7201 18.0938
39.9099 17.9194
40.0999 17.7145
40.2899 17.4943
40.48 17.2404
40.6703 17.0062
40.8607 16.8453
41.0512 16.5743
41.242 16.3447
41.4327 16.1808
41.6236 15.9087
41.8146 15.6752
42.0057 15.443
42.1969 15.377
42.3882 15.1751
42.5797 14.8918
42.7713 14.6989
42.963 14.4857
43.1549 14.2709
43.3468 14.0983
43.5389 13.9253
43.7312 13.6841
43.9237 13.5151
44.1162 13.3545
44.3088 13.1543
44.5016 12.9517
44.6945 12.769
44.8875 12.6284
45.0806 12.4474
45.2739 12.2659
45.4673 12.1047
45.6609 11.9256
45.8546 11.7885
46.0484 11.6265
46.2424 11.3896
46.4365 11.265
46.631 11.0908
46.8254 10.9278
47.0199 10.7881
47.2146 10.6103
47.4095 10.4585
47.6044 10.3329
47.7996 10.1572
47.9948 10.0159
48.1902 9.8064
48.3858 9.71201
48.5815 9.56276
48.7774 9.42458
48.9734 9.29918
49.1696 9.13849
49.3661 9.01147
49.5626 8.82866
49.7592 8.73705
49.956 8.60414
50.153 8.47398
50.3501 8.35791
50.5474 8.23314
50.7448 8.12084
50.9424 7.96187
51.1402 7.80997
51.3381 7.73064
51.5362 7.61264
51.7344 7.44895
51.9328 7.36225
52.1316 7.24617
52.3304 7.07342
52.5293 6.95547
52.7284 6.87704
52.9276 6.74986
53.1271 6.61768
53.3267 6.53098
53.5265 6.43883
53.7264 6.29378
53.9266 6.21191
54.1269 6.08221
54.3274 5.95243
54.528 5.82923
54.7289 5.68587
54.9301 5.5133
55.1314 5.36001
55.3328 5.17078
55.5344 4.95318
55.7361 4.82659

File: Ni3Fe_FD0567.xy
TT I
1.27165 7.28657
1.45013 6.31275
1.62863 5.55242
1.80712 5.13715
1.98562 4.763
2.16411 4.26473
2.34263 5.73887
2.52115 6.88106
2.69965 7.56008
2.87818 8.36764
3.05672 11.5627
3.23527 14.7717
3.4138 19.0629
3.59237 23.3209
3.77094 25.7554
3.9495 29.863
4.12809 34.8758
4.30669 140.222
4.4853 58.3482
4.6639 55.853
4.84253 68.2875
5.02118 89.1309
5.19981 447.943
5.37848 196.567
5.55716 103.42
5.73586 93.703
5.91455 97.0883
6.09328 4488.04
6.27201 82.4879
6.45075 68.175
6.62952 62.7165
6.8083 58.9247
6.98711 55.5537
7.16591 55.5448
7.34475 76.533
7.5236 54.9113
7.70247 56.8141
7.88135 58.2225
8.06026 62.8407
8.23919 70.0659
8.41812 85.8867
8.59709 1234.43
8.77609 100.204
8.9551 90.2277
9.13412 82.6907
9.31318 83.798
9.49226 85.6127
9.67134 96.5237
9.85047 101.605
10.0296 381.208
10.2088 378.112
10.388 106.26
10.5672 524.812
10.7465 86.9514
10.9257 78.3715
11.105 72.1392
11.2844 69.7943
11.4637 65.3932
11.6431 64.0556
11.8225 63.0112
12.002 64.4693
12.1814 156.292
12.3609 68.3691
12.5405 64.9077
12.72 69.4115
12.8996 71.7873
13.0792 80.8486
13.2589 250.649
13.4386 121.567
13.6183 257.456
13.7981 97.0053
13.9779 76.3775
14.1577 72.6392
14.3376 71.4014
14.5175 69.5256
14.6974 71.2634
14.8774 116.127
15.0574 143.831
15.2374 70.4951
15.4175 66.9403
15.5976 66.5289
15.7778 99.1279
15.958 150.846
16.1382 62.555
16.3185 58.7514
16.4988 55.8194
16.6792 54.9036
16.8596 55.6306
17.04 56.6254
17.2205 68.1427
17.401 70.761
17.5815 59.7306
17.7622 61.9584
17.9428 75.5568
18.1237 141.605
18.3044 92.2024
18.4852 76.8662
18.666 60.8904
18.8469 58.4575
19.0278 57.5003
19.2088 60.3196
19.3898 76.3508
19.5709 54.4498
19.752 53.8169
19.9332 57.006
20.1144 70.2367
20.2957 64.2965
20.477 53.7147
20.6586 50.1161
20.84 49.1537
21.0215 49.1242
21.203 51.1732
21.3846 49.2235
21.5662 49.314
21.7479 53.342
21.9297 64.9148
22.1115 56.3114
22.2933 49.9997
22.4753 49.1247
22.6572 49.4414
22.8393 52.5238
23.0214 57.3099
23.2037 49.102
23.3859 50.2954
23.5682 57.4187
23.7505 48.1839
23.9329 45.4892
24.1154 44.2606
24.2979 43.6145
24.4805 43.2646
24.6631 43.0178
24.8458 42.5541
25.0286 43.2656
25.2114 44.8693
25.3943 44.7832
25.5773 41.2786
25.7605 40.6014
25.9436 40.9853
26.1268 41.9422
26.31 40.3143
26.4933 41.051
26.6767 42.3679
26.8601 40.6428
27.0437 39.0643
27.2272 38.8082
27.4109 38.7873
27.5946 38.6423
27.7784 38.176
27.9623 38.629
28.1462 38.8663
28.3304 37.344
28.5145 36.205
28.6987 35.8707
28.8829 35.5972
29.0673 34.8764
29.2517 34.6623
29.4361 34.3249
29.6207 33.4519
29.8053 33.0765
29.99 32.7846
30.1748 32.6421
30.3597 32.4164
30.5447 32.4282
30.7297 32.43
30.915 31.7933
31.1002 31.4543
31.2855 31.0918
31.4708 30.9441
31.6563 30.4965
31.8418 30.4203
32.0275 30.1647
32.2132 29.6105
32.399 29.1031
32.5848 28.6908
32.7708 28.3453
32.9569 28.2203
33.143 27.9753
33.3293 27.5248
33.5158 27.2562
33.7022 26.7122
33.8887 26.4789
34.0753 26.0998
34.262 25.7848
34.4488 25.4823
34.6357 25.1199
34.8227 24.869
35.0098 24.6845
35.1969 24.3894
35.3842 24.1539
35.5716 23.8622
35.759 23.5953
35.9468 23.2549
36.1345 23.017
36.3222 22.7912
36.5101 22.5645
36.6981 22.3091
36.8861 21.9817
37.0743 21.6945
37.2626 21.3934
37.451 21.135
37.6395 20.907
37.8281 20.6678
38.0168 20.334
38.2056 20.1069
38.3945 19.7586
38.5837 19.6548
38.7728 19.3514
38.9621 19.1138
39.1514 18.8067
39.3409 18.5541
39.5304 18.3578
39.7201 18.207
39.9099 17.8764
40.0999 17.7304
40.2899 17.4843
40.48 17.2322
40.6703 17.0541
40.8607 16.8362
41.0512 16.6204
41.242 16.3649
41.4327 16.1761
41.6236 15.9578
41.8146 15.7396
42.0057 15.5574
42.1969 15.3202
42.3882 15.1466
42.5797 14.9632
42.7713 14.7057
42.963 14.5186
43.1549 14.2965
43.3468 14.0831
43.5389 13.8619
43.7312 13.7245
43.9237 13.5323
44.1162 13.3256
44.3088 13.1702
44.5016 12.9331
44.6945 12.8074
44.8875 12.6579
45.0806 12.4173
45.2739 12.2835
45.4673 12.1065
45.6609 11.9345
45.8546 11.779
46.0484 11.5943
46.2424 11.4242
46.4365 11.2627
46.631 11.0805
46.8254 10.9626
47.0199 10.7757
47.2146 10.6104
47.4095 10.4705
47.6044 10.2822
47.7996 10.1181
47.9948 9.97926
48.1902 9.81884
48.3858 9.70823
48.5815 9.60903
48.7774 9.47489
48.9734 9.28453
49.1696 9.16261
49.3661 9.00606
49.5626 8.86216
49.7592 8.74237
49.956 8.61737
50.153 8.45245
50.3501 8.32809
50.5474 8.26421
50.7448 8.09359
50.9424 7.9734
51.1402 7.85542
51.3381 7.74019
51.5362 7.60046
51.7344 7.46581
51.9328 7.3484
52.1316 7.22101
52.3304 7.13734
52.5293 7.0194
52.7284 6.88153
52.9276 6.73129
53.1271 6.66266
53.3267 6.56046
53.5265 6.3917
53.7264 6.3379
53.9266 6.22312
54.1269 6.1053
54.3274 5.93866
54.528 5.84662
54.7289 5.69092
54.9301 5.50815
55.1314 5.37185
55.3328 5.18436
55.5344 4.97987
55.7361 4.82833

File: Ni3Fe_FD0568.xy
TT I
1.27165 7.43885
1.45013 6.14954
1.62863 5.40001
1.80712 4.72497
1.98562 4.44551
2.16411 4.60079
2.34263 5.34096
2.52115 6.28527
2.69965 7.35961
2.87818 8.28581
3.05672 11.1491
3.23527 14.7735
3.4138 18.9263
3.59237 23.3683
3.77094 26.1101
3.9495 29.7614
4.12809 34.1122
4.30669 139.772
4.4853 57.8613
4.6639 55.6546
4.84253 67.9939
5.02118 88.8492
5.19981 446.793
5.37848 198.613
5.55716 102.665
5.73586 93.6243
5.91455 97.5865
6.09328 4446.36
6.27201 82.3883
6.45075 68.0955
6.62952 62.4227
6.8083 58.7798
6.98711 56.0034
7.16591 55.3654
7.34475 77.0622
7.5236 54.6648
7.70247 56.5101
7.88135 58.0093
8.06026 62.6192
8.23919 69.5557
8.41812 85.6154
8.59709 1237.08
8.77609 100.306
8.9551 89.7042
9.13412 82.9488
9.31318 83.579
9.49226 85.0876
9.67134 96.3602
9.85047 100.966
10.0296 379.026
10.2088 377.228
10.388 106.492
10.5672 522.624
10.7465 86.9464
10.9257 78.4353
11.105 72.2074
11.2844 69.4536
11.4637 65.2339
11.6431 63.7684
11.8225 62.7728
12.002 64.8866
12.1814 155.692
12.3609 68.4643
12.5405 65.046
12.72 69.1991
12.8996 71.5848
13.0792 80.757
13.2589 250.234
13.4386 122.348
13.6183 254.81
13.7981 96.4335
13.9779 76.1343
14.1577 72.617
14.3376 71.2464
14.5175 69.6992
14.6974 71.2197
14.8774 115.617
15.0574 144.633
15.2374 70.6958
15.4175 66.822
15.5976 66.3388
15.7778 98.9709
15.958 152.681
16.1382 62.2719
16.3185 58.5083
16.4988 55.8202
16.6792 54.7408
16.8596 55.3779
17.04 56.5654
17.2205 67.8252
17.401 70.8507
17.5815 59.5676
17.7622 61.9123
17.9428 75.4643
18.1237 141.526
18.3044 92.0155
18.4852 77.1901
18.666 60.7515
18.8469 58.3973
19.0278 57.1406
19.2088 60.177
19.3898 76.2917
19.5709 54.4444
19.752 53.7191
19.9332 56.8391
20.1144 70.2971
20.2957 64.3237
20.477 53.6753
20.6586 49.912
20.84 49.2447
21.0215 48.9324
21.203 51.0678
21.3846 49.3639
21.5662 49.3651
21.7479 53.5687
21.9297 65.2819
22.1115 56.2802
22.2933 50.1123
22.4753 49.024
22.6572 49.3375
22.8393 52.5878
23.0214 57.5297
23.2037 49.1636
23.3859 50.1556
23.5682 57.3399
23.7505 48.3608
23.9329 45.4359
24.1154 44.3122
24.2979 43.6118
24.4805 43.1014
24.6631 43.0472
24.8458 42.506
25.0286 43.194
25.2114 45.0094
25.3943 44.833
25.5773 41.2334
25.7605 40.7245
25.9436 41.1713
26.1268 42.1046
26.31 40.2399
26.4933 41.0222
26.6767 42.5333
26.8601 40.669
27.0437 39.03
27.2272 38.7962
27.4109 38.6503
27.5946 38.6667
27.7784 38.1441
27.9623 38.678
28.1462 39.0195
28.3304 37.3049
28.5145 36.2959
28.6987 35.7889
28.8829 35.6062
29.0673 34.8765
29.2517 34.5494
29.4361 34.3393
29.6207 33.3149
29.8053 33.1515
29.99 32.8912
30.1748 32.7063
30.3597 32.3972
30.5447 32.454
30.7297 32.46
30.915 31.7792
31.1002 31.3367
31.2855 31.0572
31.4708 31.0675
31.6563 30.5911
31.8418 30.3251
32.0275 30.126
32.2132 29.6302
32.399 29.0891
32.5848 28.6628
32.7708 28.3403
32.9569 28.2221
33.143 27.9377
33.3293 27.5906
33.5158 27.1798
33.7022 26.751
33.8887 26.4648
34.0753 26.1247
34.262 25.7865
34.4488 25.4814
34.6357 25.0929
34.8227 24.8576
35.0098 24.6471
35.1969 24.3541
35.3842 24.0606
35.5716 23.9949
35.759 23.6255
35.9468 23.2345
36.1345 23.0286
36.3222 22.7805
36.5101 22.6125
36.6981 22.2321
36.8861 21.9774
37.0743 21.662
37.2626 21.4408
37.451 21.1733
37.6395 20.9086
37.8281 20.5734
38.0168 20.2938
38.2056 20.1324
38.3945 19.8877
38.5837 19.6161
38.7728 19.3148
38.9621 19.1068
39.1514 18.8358
39.3409 18.5605
39.5304 18.4092
39.7201 18.1329
39.9099 17.9661
40.0999 17.7204
40.2899 17.528
40.48 17.1875
40.6703 16.991
40.8607 16.821
41.0512 16.6823
41.242 16.3994
41.4327 16.1257
41.6236 15.9072
41.8146 15.7339
42.0057 15.4696
42.1969 15.3308
42.3882 15.084
42.5797 14.8719
42.7713 14.6995
42.963 14.4884
43.1549 14.3219
43.3468 14.1043
43.5389 13.9441
43.7312 13.7016
43.9237 13.5468
44.1162 13.3231
44.3088 13.1559
44.5016 12.9639
44.6945 12.7565
44.8875 12.5722
45.0806 12.4331
45.2739 12.2441
45.4673 12.087
45.6609 11.9182
45.8546 11.785
46.0484 11.545
46.2424 11.4371
46.4365 11.2619
46.631 11.0799
46.8254 10.9499
47.0199 10.7337
47.2146 10.6327
47.4095 10.4086
47.6044 10.2815
47.7996 10.142
47.9948 9.99252
48.1902 9.8298
48.3858 9.71515
48.5815 9.58001
48.7774 9.46585
48.9734 9.30134
49.1696 9.17216
49.3661 9.01485
49.5626 8.8342
49.7592 8.77616
49.956 8.61901
50.153 8.47303
50.3501 8.33266
50.5474 8.24252
50.7448 8.13411
50.9424 8.00213
51.1402 7.86067
51.3381 7.70394
51.5362 7.57806
51.7344 7.46209
51.9328 7.33043
52.1316 7.16746
52.3304 7.09549
52.5293 6.98952
52.7284 6.90739
52.9276 6.7563
53.1271 6.66425
53.3267 6.54097
53.5265 6.44462
53.7264 6.32409
53.9266 6.18615
54.1269 6.10009
54.3274 5.99774
54.528 5.81903
54.7289 5.69949
54.9301 5.53802
55.1314 5.39809
55.3328 5.16405
55.5344 5.01322
55.7361 4.85909