Folder: NiFe_MOF_catalyst_paper/XRD (part 194)

File: Ni3Fe_FD1046.xy
TT I
1.27165 6.92992
1.45013 5.32968
1.62863 5.21384
1.80712 4.46143
1.98562 4.20432
2.16411 3.92816
2.34263 5.40116
2.52115 7.16457
2.69965 8.51937
2.87818 8.85259
3.05672 10.476
3.23527 15.1633
3.4138 18.5085
3.59237 21.5745
3.77094 24.503
3.9495 27.8525
4.12809 32.7075
4.30669 57.4078
4.4853 46.388
4.6639 53.0355
4.84253 64.3574
5.02118 83.4126
5.19981 233.755
5.37848 214.369
5.55716 97.533
5.73586 87.8262
5.91455 89.0091
6.09328 4554.92
6.27201 75.9005
6.45075 63.5167
6.62952 58.3759
6.8083 54.4127
6.98711 52.6792
7.16591 51.6456
7.34475 55.8146
7.5236 59.2394
7.70247 53.2468
7.88135 55.0269
8.06026 59.3153
8.23919 65.6252
8.41812 78.1348
8.59709 1087.96
8.77609 95.0335
8.9551 82.5182
9.13412 79.2954
9.31318 89.5847
9.49226 81.2694
9.67134 86.5916
9.85047 94.0387
10.0296 348.042
10.2088 437.174
10.388 97.929
10.5672 506.353
10.7465 86.8404
10.9257 73.5354
11.105 68.2424
11.2844 64.7873
11.4637 61.5311
11.6431 60.4909
11.8225 59.7866
12.002 66.8885
12.1814 146.82
12.3609 64.3771
12.5405 61.5797
12.72 63.8496
12.8996 67.8701
13.0792 76.8394
13.2589 228.127
13.4386 126.896
13.6183 236.716
13.7981 100.319
13.9779 73.2566
14.1577 75.727
14.3376 67.2754
14.5175 66.3653
14.6974 67.4719
14.8774 109.792
15.0574 160.496
15.2374 66.6802
15.4175 64.0362
15.5976 63.3691
15.7778 94.0625
15.958 167.374
16.1382 59.9376
16.3185 55.3904
16.4988 53.4377
16.6792 52.5078
16.8596 52.8635
17.04 53.8241
17.2205 64.9049
17.401 71.7544
17.5815 57.2127
17.7622 60.1556
17.9428 73.0172
18.1237 141.879
18.3044 88.943
18.4852 78.939
18.666 58.8678
18.8469 56.4379
19.0278 55.0367
19.2088 57.9838
19.3898 76.2428
19.5709 53.0389
19.752 51.8055
19.9332 55.0266
20.1144 70.1076
20.2957 63.5399
20.477 52.8839
20.6586 48.3003
20.84 48.0015
21.0215 47.2092
21.203 49.5305
21.3846 47.7622
21.5662 47.7031
21.7479 51.7616
21.9297 65.2278
22.1115 55.8589
22.2933 48.9955
22.4753 47.4284
22.6572 47.6661
22.8393 51.0189
23.0214 57.5588
23.2037 47.8443
23.3859 49.3743
23.5682 57.0117
23.7505 48.1111
23.9329 44.3643
24.1154 43.0793
24.2979 42.4322
24.4805 41.9271
24.6631 42.0035
24.8458 41.3074
25.0286 42.0129
25.2114 44.2344
25.3943 44.1593
25.5773 40.1319
25.7605 39.6999
25.9436 39.9317
26.1268 41.214
26.31 39.4993
26.4933 40.0154
26.6767 41.7486
26.8601 39.9674
27.0437 38.2199
27.2272 37.9
27.4109 37.7498
27.5946 37.8
27.7784 37.4349
27.9623 37.9118
28.1462 38.6591
28.3304 36.8018
28.5145 35.3061
28.6987 35.0044
28.8829 34.9397
29.0673 34.0393
29.2517 33.6832
29.4361 33.6103
29.6207 32.5998
29.8053 32.2116
29.99 31.9552
30.1748 31.8497
30.3597 31.7803
30.5447 31.6134
30.7297 31.7967
30.915 31.1195
31.1002 30.6331
31.2855 30.3608
31.4708 30.4861
31.6563 29.9504
31.8418 29.7452
32.0275 29.4852
32.2132 28.8537
32.399 28.5327
32.5848 28.0316
32.7708 27.7307
32.9569 27.5127
33.143 27.3533
33.3293 27.0296
33.5158 26.6551
33.7022 26.105
33.8887 25.9703
34.0753 25.5752
34.262 25.2718
34.4488 24.8581
34.6357 24.583
34.8227 24.3126
35.0098 24.0816
35.1969 23.7716
35.3842 23.6224
35.5716 23.4293
35.759 23.1427
35.9468 22.7223
36.1345 22.5603
36.3222 22.334
36.5101 21.9722
36.6981 21.839
36.8861 21.4778
37.0743 21.1519
37.2626 20.924
37.451 20.6415
37.6395 20.5764
37.8281 20.1647
38.0168 19.8727
38.2056 19.6476
38.3945 19.3356
38.5837 19.0984
38.7728 18.8769
38.9621 18.6349
39.1514 18.4459
39.3409 18.1414
39.5304 17.9278
39.7201 17.806
39.9099 17.5869
40.0999 17.3532
40.2899 17.0837
40.48 16.8569
40.6703 16.6501
40.8607 16.545
41.0512 16.2369
41.242 15.9614
41.4327 15.7572
41.6236 15.6205
41.8146 15.4313
42.0057 15.1839
42.1969 14.9921
42.3882 14.803
42.5797 14.5585
42.7713 14.4008
42.963 14.2177
43.1549 13.9988
43.3468 13.7428
43.5389 13.6251
43.7312 13.3935
43.9237 13.2479
44.1162 13.0705
44.3088 12.8873
44.5016 12.6926
44.6945 12.4836
44.8875 12.3238
45.0806 12.2031
45.2739 11.9783
45.4673 11.8358
45.6609 11.6991
45.8546 11.4909
46.0484 11.336
46.2424 11.1357
46.4365 11.0336
46.631 10.8458
46.8254 10.639
47.0199 10.5574
47.2146 10.377
47.4095 10.2301
47.6044 10.0358
47.7996 9.91954
47.9948 9.80373
48.1902 9.64436
48.3858 9.49093
48.5815 9.36318
48.7774 9.261
48.9734 9.09558
49.1696 8.95097
49.3661 8.80737
49.5626 8.66549
49.7592 8.52233
49.956 8.40738
50.153 8.29577
50.3501 8.1481
50.5474 8.02228
50.7448 7.92413
50.9424 7.8137
51.1402 7.66895
51.3381 7.52284
51.5362 7.44439
51.7344 7.32412
51.9328 7.20393
52.1316 7.07677
52.3304 6.9231
52.5293 6.80372
52.7284 6.72723
52.9276 6.62489
53.1271 6.54454
53.3267 6.38582
53.5265 6.2529
53.7264 6.21124
53.9266 6.08646
54.1269 5.985
54.3274 5.81651
54.528 5.69102
54.7289 5.54425
54.9301 5.4255
55.1314 5.26248
55.3328 5.05429
55.5344 4.87934
55.7361 4.77278

File: Ni3Fe_FD1047.xy
TT I
1.27165 6.76005
1.45013 6.06077
1.62863 4.75899
1.80712 4.5959
1.98562 4.09677
2.16411 4.63276
2.34263 5.31686
2.52115 7.19221
2.69965 8.00863
2.87818 8.47027
3.05672 10.3727
3.23527 14.5751
3.4138 18.5353
3.59237 21.178
3.77094 24.3904
3.9495 28.1437
4.12809 31.9685
4.30669 56.5707
4.4853 46.1638
4.6639 52.753
4.84253 64.2781
5.02118 82.927
5.19981 233.586
5.37848 213.249
5.55716 97.1694
5.73586 87.958
5.91455 88.943
6.09328 4592.79
6.27201 76.0895
6.45075 63.2342
6.62952 58.3835
6.8083 54.1751
6.98711 52.442
7.16591 51.7285
7.34475 56.0311
7.5236 59.0894
7.70247 53.2238
7.88135 54.8569
8.06026 59.187
8.23919 65.8746
8.41812 77.9248
8.59709 1089.29
8.77609 94.7102
8.9551 82.1844
9.13412 79.017
9.31318 89.8621
9.49226 81.1459
9.67134 86.6974
9.85047 93.9114
10.0296 347.811
10.2088 437.117
10.388 97.9583
10.5672 505.424
10.7465 86.4128
10.9257 73.449
11.105 68.0537
11.2844 64.9187
11.4637 61.6732
11.6431 60.559
11.8225 59.6599
12.002 67.087
12.1814 146.827
12.3609 64.6406
12.5405 61.4237
12.72 64.1034
12.8996 67.9174
13.0792 76.6616
13.2589 227.813
13.4386 127.119
13.6183 236.719
13.7981 100.312
13.9779 73.5101
14.1577 75.5523
14.3376 67.2888
14.5175 66.3232
14.6974 67.5199
14.8774 110.021
15.0574 160.818
15.2374 66.4014
15.4175 64.18
15.5976 63.2699
15.7778 94.2518
15.958 167.967
16.1382 59.8324
16.3185 55.7892
16.4988 53.4191
16.6792 52.7017
16.8596 52.8259
17.04 53.7152
17.2205 64.4383
17.401 71.9198
17.5815 57.2535
17.7622 60.0741
17.9428 73.3954
18.1237 141.872
18.3044 88.9457
18.4852 79.365
18.666 58.8025
18.8469 56.5492
19.0278 55.1295
19.2088 57.897
19.3898 76.1014
19.5709 52.9398
19.752 51.9097
19.9332 54.9029
20.1144 70.4864
20.2957 63.3793
20.477 52.8999
20.6586 48.504
20.84 47.9493
21.0215 47.1715
21.203 49.4898
21.3846 47.8503
21.5662 47.6575
21.7479 51.8384
21.9297 65.3158
22.1115 55.9511
22.2933 48.9325
22.4753 47.5816
22.6572 47.6321
22.8393 51.2141
23.0214 57.3687
23.2037 47.7658
23.3859 49.3606
23.5682 57.2739
23.7505 48.128
23.9329 44.353
24.1154 43.2264
24.2979 42.3194
24.4805 41.9026
24.6631 41.9855
24.8458 41.3364
25.0286 41.9417
25.2114 44.13
25.3943 44.1841
25.5773 40.3325
25.7605 39.6392
25.9436 40.0474
26.1268 41.1361
26.31 39.3825
26.4933 39.9467
26.6767 42.0255
26.8601 40.0931
27.0437 38.1855
27.2272 37.8264
27.4109 37.627
27.5946 37.8756
27.7784 37.2786
27.9623 37.9962
28.1462 38.6318
28.3304 36.7879
28.5145 35.3953
28.6987 34.9309
28.8829 34.7157
29.0673 34.0997
29.2517 33.6796
29.4361 33.52
29.6207 32.5208
29.8053 32.3309
29.99 31.8657
30.1748 31.9175
30.3597 31.7572
30.5447 31.5778
30.7297 31.8243
30.915 31.2117
31.1002 30.737
31.2855 30.3747
31.4708 30.3382
31.6563 30.01
31.8418 29.7383
32.0275 29.5306
32.2132 28.921
32.399 28.507
32.5848 28.0709
32.7708 27.6737
32.9569 27.6518
33.143 27.3827
33.3293 26.9845
33.5158 26.6751
33.7022 26.1312
33.8887 25.9597
34.0753 25.5747
34.262 25.2994
34.4488 24.8993
34.6357 24.553
34.8227 24.2549
35.0098 24.0939
35.1969 23.8548
35.3842 23.6629
35.5716 23.4104
35.759 23.063
35.9468 22.7476
36.1345 22.6034
36.3222 22.3504
36.5101 22.0388
36.6981 21.7949
36.8861 21.4988
37.0743 21.1324
37.2626 20.9006
37.451 20.6364
37.6395 20.4974
37.8281 20.1659
38.0168 19.8376
38.2056 19.6245
38.3945 19.4137
38.5837 19.1336
38.7728 18.9047
38.9621 18.6216
39.1514 18.4499
39.3409 18.1836
39.5304 17.9731
39.7201 17.8047
39.9099 17.5687
40.0999 17.2574
40.2899 17.0958
40.48 16.8517
40.6703 16.6373
40.8607 16.4652
41.0512 16.2689
41.242 15.9947
41.4327 15.7436
41.6236 15.6043
41.8146 15.3806
42.0057 15.1715
42.1969 14.9956
42.3882 14.804
42.5797 14.5766
42.7713 14.3913
42.963 14.2278
43.1549 14.0099
43.3468 13.8053
43.5389 13.5937
43.7312 13.4334
43.9237 13.229
44.1162 13.0749
44.3088 12.8895
44.5016 12.6608
44.6945 12.5292
44.8875 12.3637
45.0806 12.1431
45.2739 11.9943
45.4673 11.8846
45.6609 11.6277
45.8546 11.5342
46.0484 11.3732
46.2424 11.1558
46.4365 11.0521
46.631 10.8278
46.8254 10.6974
47.0199 10.548
47.2146 10.3871
47.4095 10.2189
47.6044 10.0703
47.7996 9.93025
47.9948 9.74471
48.1902 9.57046
48.3858 9.47295
48.5815 9.38029
48.7774 9.22492
48.9734 9.08573
49.1696 8.95843
49.3661 8.82786
49.5626 8.63323
49.7592 8.54957
49.956 8.47823
50.153 8.27288
50.3501 8.17548
50.5474 8.04393
50.7448 7.92907
50.9424 7.77646
51.1402 7.6815
51.3381 7.54217
51.5362 7.46627
51.7344 7.3099
51.9328 7.18195
52.1316 7.03224
52.3304 6.95999
52.5293 6.80452
52.7284 6.73752
52.9276 6.5773
53.1271 6.51541
53.3267 6.41384
53.5265 6.28073
53.7264 6.17659
53.9266 6.06599
54.1269 5.92611
54.3274 5.8474
54.528 5.73916
54.7289 5.54503
54.9301 5.37831
55.1314 5.25416
55.3328 5.11973
55.5344 4.93367
55.7361 4.81256

File: Ni3Fe_FD1048.xy
TT I
1.27165 6.68663
1.45013 5.47046
1.62863 4.72911
1.80712 4.71249
1.98562 4.74188
2.16411 4.44392
2.34263 5.08503
2.52115 6.54717
2.69965 8.45491
2.87818 8.72012
3.05672 10.9527
3.23527 14.4637
3.4138 17.9017
3.59237 21.5928
3.77094 24.3628
3.9495 28.0888
4.12809 32.629
4.30669 56.69
4.4853 46.5568
4.6639 52.5046
4.84253 63.7954
5.02118 83.3618
5.19981 233.529
5.37848 213.273
5.55716 97.0764
5.73586 87.6828
5.91455 89.2227
6.09328 4612.87
6.27201 76.0383
6.45075 63.4814
6.62952 57.8429
6.8083 54.3722
6.98711 52.4674
7.16591 51.6626
7.34475 55.9364
7.5236 59.2406
7.70247 53.2585
7.88135 54.7503
8.06026 59.0007
8.23919 65.6015
8.41812 77.7469
8.59709 1088.74
8.77609 95.0411
8.9551 82.0744
9.13412 79.3032
9.31318 89.7584
9.49226 80.856
9.67134 86.7971
9.85047 94.1542
10.0296 349.321
10.2088 437.808
10.388 98.0458
10.5672 504.156
10.7465 86.1341
10.9257 73.448
11.105 68.025
11.2844 64.5641
11.4637 62.0053
11.6431 60.5262
11.8225 59.6288
12.002 66.5404
12.1814 146.686
12.3609 64.677
12.5405 61.2783
12.72 64.046
12.8996 67.8947
13.0792 76.695
13.2589 228.427
13.4386 126.962
13.6183 236.674
13.7981 100.408
13.9779 73.2373
14.1577 75.4826
14.3376 67.2184
14.5175 66.4481
14.6974 67.581
14.8774 109.682
15.0574 160.628
15.2374 66.472
15.4175 64.1172
15.5976 63.3102
15.7778 94.2931
15.958 168.342
16.1382 59.8484
16.3185 55.7541
16.4988 53.2064
16.6792 52.6196
16.8596 52.7731
17.04 53.84
17.2205 64.6903
17.401 71.9654
17.5815 57.1626
17.7622 59.8336
17.9428 73.4199
18.1237 142.168
18.3044 88.8894
18.4852 79.0036
18.666 58.8266
18.8469 56.5406
19.0278 55.2593
19.2088 58.1557
19.3898 76.0424
19.5709 53.0044
19.752 51.868
19.9332 55.1238
20.1144 70.5143
20.2957 63.2865
20.477 52.8986
20.6586 48.3307
20.84 47.864
21.0215 47.1532
21.203 49.5651
21.3846 47.7645
21.5662 47.4959
21.7479 51.7034
21.9297 65.4488
22.1115 55.7929
22.2933 48.9815
22.4753 47.4454
22.6572 47.6202
22.8393 51.1396
23.0214 57.2147
23.2037 47.664
23.3859 49.377
23.5682 57.15
23.7505 48.162
23.9329 44.3264
24.1154 43.0824
24.2979 42.4908
24.4805 41.8795
24.6631 42.0255
24.8458 41.1518
25.0286 42.0198
25.2114 44.1479
25.3943 44.2851
25.5773 40.1743
25.7605 39.5424
25.9436 40.1655
26.1268 41.1596
26.31 39.4956
26.4933 40.0567
26.6767 41.886
26.8601 39.9982
27.0437 38.2833
27.2272 37.7916
27.4109 37.7662
27.5946 37.8582
27.7784 37.3082
27.9623 37.9225
28.1462 38.5646
28.3304 36.74
28.5145 35.4
28.6987 34.9336
28.8829 34.8355
29.0673 34.132
29.2517 33.7549
29.4361 33.6412
29.6207 32.5407
29.8053 32.2327
29.99 32.0461
30.1748 31.7699
30.3597 31.6349
30.5447 31.6693
30.7297 31.7416
30.915 31.1901
31.1002 30.6821
31.2855 30.3842
31.4708 30.3792
31.6563 29.9159
31.8418 29.7399
32.0275 29.5694
32.2132 28.9009
32.399 28.4629
32.5848 28.0207
32.7708 27.7484
32.9569 27.5345
33.143 27.4285
33.3293 26.96
33.5158 26.6648
33.7022 26.2055
33.8887 25.8968
34.0753 25.5588
34.262 25.2382
34.4488 24.8977
34.6357 24.5694
34.8227 24.367
35.0098 24.0924
35.1969 23.8012
35.3842 23.6059
35.5716 23.461
35.759 23.1645
35.9468 22.7675
36.1345 22.6112
36.3222 22.2999
36.5101 22.0808
36.6981 21.8373
36.8861 21.5677
37.0743 21.1852
37.2626 20.9232
37.451 20.6079
37.6395 20.5179
37.8281 20.2033
38.0168 19.8604
38.2056 19.6065
38.3945 19.3738
38.5837 19.1171
38.7728 18.8805
38.9621 18.6902
39.1514 18.3634
39.3409 18.1982
39.5304 17.913
39.7201 17.7519
39.9099 17.5745
40.0999 17.2694
40.2899 17.0808
40.48 16.8721
40.6703 16.7107
40.8607 16.4333
41.0512 16.2395
41.242 15.9843
41.4327 15.8282
41.6236 15.6126
41.8146 15.4493
42.0057 15.1531
42.1969 14.9758
42.3882 14.8021
42.5797 14.6171
42.7713 14.3874
42.963 14.1919
43.1549 14.012
43.3468 13.7808
43.5389 13.6252
43.7312 13.4172
43.9237 13.2534
44.1162 13.0376
44.3088 12.8674
44.5016 12.6571
44.6945 12.5601
44.8875 12.3586
45.0806 12.1517
45.2739 12.0525
45.4673 11.8347
45.6609 11.6678
45.8546 11.5227
46.0484 11.3645
46.2424 11.1341
46.4365 11.0731
46.631 10.8348
46.8254 10.6615
47.0199 10.5291
47.2146 10.3498
47.4095 10.2117
47.6044 10.0689
47.7996 9.94333
47.9948 9.75672
48.1902 9.6404
48.3858 9.48021
48.5815 9.36859
48.7774 9.23943
48.9734 9.08991
49.1696 8.93435
49.3661 8.82525
49.5626 8.66744
49.7592 8.56363
49.956 8.43912
50.153 8.30953
50.3501 8.16553
50.5474 8.04296
50.7448 7.93666
50.9424 7.79114
51.1402 7.71646
51.3381 7.51559
51.5362 7.39811
51.7344 7.28542
51.9328 7.15556
52.1316 7.05884
52.3304 6.94012
52.5293 6.8191
52.7284 6.72544
52.9276 6.65086
53.1271 6.4977
53.3267 6.3967
53.5265 6.2398
53.7264 6.15964
53.9266 6.08226
54.1269 5.95045
54.3274 5.82617
54.528 5.71036
54.7289 5.59744
54.9301 5.4051
55.1314 5.25305
55.3328 5.07124
55.5344 4.86099
55.7361 4.79237

File: Ni3Fe_FD1049.xy
TT I
1.27165 7.24601
1.45013 5.7903
1.62863 4.68928
1.80712 4.35476
1.98562 4.41007
2.16411 4.20858
2.34263 5.4821
2.52115 7.53553
2.69965 8.8946
2.87818 9.31921
3.05672 10.8099
3.23527 14.4162
3.4138 18.3485
3.59237 21.4318
3.77094 24.4324
3.9495 28.5209
4.12809 32.6208
4.30669 56.8884
4.4853 46.4997
4.6639 52.6656
4.84253 63.9032
5.02118 83.396
5.19981 234.167
5.37848 212.262
5.55716 97.4031
5.73586 87.7331
5.91455 89.2308
6.09328 4543.72
6.27201 76.1426
6.45075 63.4179
6.62952 58.2854
6.8083 54.4016
6.98711 52.3723
7.16591 51.569
7.34475 55.6874
7.5236 59.4575
7.70247 53.2302
7.88135 54.7963
8.06026 58.8635
8.23919 66.1308
8.41812 77.9685
8.59709 1090.25
8.77609 95.0273
8.9551 82.5898
9.13412 78.8962
9.31318 89.7922
9.49226 80.8047
9.67134 86.5552
9.85047 94.1353
10.0296 350.312
10.2088 436.388
10.388 97.898
10.5672 506.541
10.7465 86.4286
10.9257 73.4076
11.105 68.0555
11.2844 64.7849
11.4637 62.2045
11.6431 60.565
11.8225 59.946
12.002 66.6298
12.1814 146.049
12.3609 64.4957
12.5405 61.4524
12.72 64.1397
12.8996 68.0414
13.0792 76.5369
13.2589 228.969
13.4386 126.855
13.6183 237.059
13.7981 100.445
13.9779 73.3616
14.1577 75.6212
14.3376 67.2714
14.5175 66.656
14.6974 67.5088
14.8774 109.872
15.0574 159.869
15.2374 66.5412
15.4175 64.2578
15.5976 63.4978
15.7778 94.433
15.958 167.689
16.1382 60.1158
16.3185 55.7264
16.4988 53.6739
16.6792 52.6079
16.8596 53.0531
17.04 53.8617
17.2205 64.8714
17.401 71.8827
17.5815 57.451
17.7622 60.0405
17.9428 73.2621
18.1237 141.686
18.3044 89.0056
18.4852 79.2
18.666 58.9736
18.8469 56.3827
19.0278 55.0502
19.2088 58.0081
19.3898 76.1744
19.5709 53.1019
19.752 51.8982
19.9332 55.1178
20.1144 70.362
20.2957 63.3723
20.477 52.9178
20.6586 48.4331
20.84 47.7234
21.0215 47.3233
21.203 49.5545
21.3846 47.8884
21.5662 47.5666
21.7479 51.7069
21.9297 65.2439
22.1115 55.8422
22.2933 49.1193
22.4753 47.3942
22.6572 47.7029
22.8393 51.1505
23.0214 57.5121
23.2037 47.661
23.3859 49.274
23.5682 57.3456
23.7505 48.1691
23.9329 44.3128
24.1154 43.1768
24.2979 42.377
24.4805 41.9664
24.6631 41.8988
24.8458 41.2217
25.0286 42.0389
25.2114 44.1769
25.3943 44.4046
25.5773 40.0059
25.7605 39.6348
25.9436 40.1009
26.1268 41.278
26.31 39.4157
26.4933 40.0078
26.6767 41.9135
26.8601 40.0763
27.0437 38.2428
27.2272 37.8715
27.4109 37.722
27.5946 37.768
27.7784 37.2308
27.9623 37.8964
28.1462 38.5875
28.3304 36.9026
28.5145 35.3833
28.6987 35.0082
28.8829 34.8813
29.0673 34.1289
29.2517 33.7586
29.4361 33.6174
29.6207 32.5911
29.8053 32.2776
29.99 31.9245
30.1748 31.8566
30.3597 31.6901
30.5447 31.7162
30.7297 31.8917
30.915 31.2523
31.1002 30.6943
31.2855 30.3603
31.4708 30.4494
31.6563 29.9611
31.8418 29.7752
32.0275 29.5936
32.2132 28.9442
32.399 28.5089
32.5848 27.9905
32.7708 27.7231
32.9569 27.5539
33.143 27.3349
33.3293 27.0195
33.5158 26.6694
33.7022 26.2093
33.8887 25.9901
34.0753 25.6198
34.262 25.2518
34.4488 24.8516
34.6357 24.5852
34.8227 24.3065
35.0098 24.0081
35.1969 23.8169
35.3842 23.703
35.5716 23.3918
35.759 23.0912
35.9468 22.7569
36.1345 22.6233
36.3222 22.3481
36.5101 22.137
36.6981 21.8072
36.8861 21.5105
37.0743 21.1782
37.2626 20.9444
37.451 20.6558
37.6395 20.561
37.8281 20.1251
38.0168 19.9065
38.2056 19.6877
38.3945 19.402
38.5837 19.1223
38.7728 18.9253
38.9621 18.6839
39.1514 18.3822
39.3409 18.1768
39.5304 17.981
39.7201 17.7516
39.9099 17.5022
40.0999 17.3036
40.2899 17.087
40.48 16.8703
40.6703 16.684
40.8607 16.5117
41.0512 16.261
41.242 16.0086
41.4327 15.7909
41.6236 15.5849
41.8146 15.425
42.0057 15.1791
42.1969 14.9861
42.3882 14.783
42.5797 14.5685
42.7713 14.4243
42.963 14.1594
43.1549 14.0173
43.3468 13.791
43.5389 13.5894
43.7312 13.4247
43.9237 13.2688
44.1162 13.0791
44.3088 12.8693
44.5016 12.7103
44.6945 12.5379
44.8875 12.347
45.0806 12.181
45.2739 11.9917
45.4673 11.8254
45.6609 11.671
45.8546 11.5355
46.0484 11.3372
46.2424 11.1974
46.4365 11.0667
46.631 10.9025
46.8254 10.6219
47.0199 10.5037
47.2146 10.3764
47.4095 10.2235
47.6044 10.0461
47.7996 9.93713
47.9948 9.78773
48.1902 9.6356
48.3858 9.51499
48.5815 9.39814
48.7774 9.27201
48.9734 9.11702
49.1696 8.94859
49.3661 8.80707
49.5626 8.66974
49.7592 8.57274
49.956 8.44152
50.153 8.26023
50.3501 8.12214
50.5474 8.03093
50.7448 7.9336
50.9424 7.78285
51.1402 7.68735
51.3381 7.58512
51.5362 7.43333
51.7344 7.32558
51.9328 7.19524
52.1316 7.05811
52.3304 6.98132
52.5293 6.83615
52.7284 6.73701
52.9276 6.60459
53.1271 6.53972
53.3267 6.41114
53.5265 6.27974
53.7264 6.14468
53.9266 6.05783
54.1269 5.9574
54.3274 5.83174
54.528 5.68067
54.7289 5.51775
54.9301 5.40936
55.1314 5.23432
55.3328 5.07681
55.5344 4.87519
55.7361 4.7192

File: Ni3Fe_FD1051.xy
TT I
1.27165 6.72879
1.45013 5.41888
1.62863 4.47208
1.80712 4.49816
1.98562 4.4044
2.16411 4.31317
2.34263 5.26734
2.52115 7.25978
2.69965 8.57696
2.87818 9.28821
3.05672 10.7631
3.23527 15.1255
3.4138 18.3438
3.59237 21.614
3.77094 24.4758
3.9495 28.3494
4.12809 32.5617
4.30669 56.4881
4.4853 46.0765
4.6639 52.8594
4.84253 64.3012
5.02118 83.2087
5.19981 233.413
5.37848 212.073
5.55716 97.2573
5.73586 87.8247
5.91455 88.4565
6.09328 4562.69
6.27201 75.9066
6.45075 63.3176
6.62952 58.1885
6.8083 54.6226
6.98711 52.5128
7.16591 51.5368
7.34475 56.0469
7.5236 59.017
7.70247 53.2104
7.88135 54.6073
8.06026 59.1156
8.23919 65.7986
8.41812 77.9926
8.59709 1090.12
8.77609 95.1557
8.9551 82.3637
9.13412 78.7923
9.31318 89.3747
9.49226 80.9152
9.67134 86.3686
9.85047 94.0844
10.0296 350.097
10.2088 438.741
10.388 97.7107
10.5672 504.532
10.7465 86.5252
10.9257 73.2847
11.105 68.0992
11.2844 64.6271
11.4637 61.9696
11.6431 60.4759
11.8225 59.7914
12.002 66.7549
12.1814 146.166
12.3609 64.6114
12.5405 61.4725
12.72 63.9738
12.8996 67.7174
13.0792 76.7028
13.2589 228.541
13.4386 127.171
13.6183 236.966
13.7981 100.464
13.9779 73.1732
14.1577 75.4839
14.3376 67.4318
14.5175 66.5215
14.6974 67.367
14.8774 109.87
15.0574 160.124
15.2374 66.7062
15.4175 64.0329
15.5976 63.4756
15.7778 94.452
15.958 168.243
16.1382 60.0037
16.3185 55.5421
16.4988 53.4089
16.6792 52.6992
16.8596 52.8321
17.04 53.728
17.2205 64.684
17.401 71.8359
17.5815 57.1981
17.7622 60.0157
17.9428 73.2401
18.1237 141.854
18.3044 88.9435
18.4852 79.2106
18.666 58.9806
18.8469 56.224
19.0278 54.9699
19.2088 58.1509
19.3898 76.2316
19.5709 52.9418
19.752 51.7795
19.9332 55.1897
20.1144 70.3438
20.2957 63.4929
20.477 53.0024
20.6586 48.2929
20.84 47.8303
21.0215 47.3011
21.203 49.4561
21.3846 47.9856
21.5662 47.6221
21.7479 51.7932
21.9297 65.1765
22.1115 55.8672
22.2933 48.8893
22.4753 47.536
22.6572 47.5773
22.8393 51.1031
23.0214 57.3817
23.2037 47.7437
23.3859 49.2954
23.5682 57.3902
23.7505 48.1943
23.9329 44.3405
24.1154 43.1201
24.2979 42.4371
24.4805 41.9584
24.6631 41.9316
24.8458 41.3377
25.0286 41.9171
25.2114 44.0377
25.3943 44.367
25.5773 40.1545
25.7605 39.6977
25.9436 40.1507
26.1268 41.2574
26.31 39.3268
26.4933 40.0031
26.6767 41.8876
26.8601 39.9755
27.0437 38.2987
27.2272 37.8106
27.4109 37.7189
27.5946 37.9451
27.7784 37.3616
27.9623 37.9878
28.1462 38.5993
28.3304 36.8596
28.5145 35.4011
28.6987 35.0346
28.8829 34.8462
29.0673 34.0553
29.2517 33.706
29.4361 33.5869
29.6207 32.4904
29.8053 32.2504
29.99 32.0154
30.1748 31.9459
30.3597 31.7115
30.5447 31.6748
30.7297 31.8629
30.915 31.1503
31.1002 30.7027
31.2855 30.4123
31.4708 30.4242
31.6563 29.9051
31.8418 29.6998
32.0275 29.5872
32.2132 28.9972
32.399 28.5192
32.5848 28.0061
32.7708 27.6631
32.9569 27.5906
33.143 27.3886
33.3293 26.9411
33.5158 26.6138
33.7022 26.142
33.8887 25.9293
34.0753 25.5946
34.262 25.3081
34.4488 24.9442
34.6357 24.5852
34.8227 24.3312
35.0098 24.1139
35.1969 23.8881
35.3842 23.6442
35.5716 23.4331
35.759 23.0476
35.9468 22.7856
36.1345 22.6183
36.3222 22.3846
36.5101 22.141
36.6981 21.8408
36.8861 21.5229
37.0743 21.1204
37.2626 20.9531
37.451 20.5846
37.6395 20.5357
37.8281 20.1753
38.0168 19.8793
38.2056 19.6256
38.3945 19.3335
38.5837 19.1657
38.7728 18.9061
38.9621 18.7061
39.1514 18.4182
39.3409 18.1621
39.5304 17.9633
39.7201 17.7895
39.9099 17.5435
40.0999 17.3843
40.2899 17.0528
40.48 16.8492
40.6703 16.6349
40.8607 16.4347
41.0512 16.2658
41.242 16.0756
41.4327 15.8242
41.6236 15.5897
41.8146 15.3981
42.0057 15.1541
42.1969 14.9941
42.3882 14.7602
42.5797 14.6212
42.7713 14.4274
42.963 14.1616
43.1549 13.9897
43.3468 13.7483
43.5389 13.6476
43.7312 13.4158
43.9237 13.252
44.1162 13.1048
44.3088 12.8961
44.5016 12.7127
44.6945 12.5151
44.8875 12.3629
45.0806 12.1883
45.2739 11.9893
45.4673 11.8681
45.6609 11.6895
45.8546 11.5007
46.0484 11.3783
46.2424 11.1625
46.4365 11.0421
46.631 10.868
46.8254 10.6638
47.0199 10.5605
47.2146 10.3729
47.4095 10.2334
47.6044 10.0828
47.7996 9.94665
47.9948 9.77515
48.1902 9.64027
48.3858 9.51965
48.5815 9.36652
48.7774 9.26065
48.9734 9.09597
49.1696 8.95847
49.3661 8.78593
49.5626 8.66846
49.7592 8.57287
49.956 8.43036
50.153 8.31378
50.3501 8.17076
50.5474 8.06858
50.7448 7.9002
50.9424 7.81129
51.1402 7.69485
51.3381 7.54601
51.5362 7.4352
51.7344 7.30419
51.9328 7.1792
52.1316 7.06933
52.3304 6.9616
52.5293 6.84533
52.7284 6.71808
52.9276 6.59643
53.1271 6.51875
53.3267 6.38448
53.5265 6.27971
53.7264 6.21396
53.9266 6.06016
54.1269 5.97592
54.3274 5.805
54.528 5.74117
54.7289 5.50811
54.9301 5.42153
55.1314 5.24398
55.3328 5.08576
55.5344 4.88199
55.7361 4.74826