Folder: NiFe_MOF_catalyst_paper/XRD (part 85)

File: Ni3Fe_FD0456.xy
TT I
1.27165 8.20961
1.45013 6.26366
1.62863 5.31613
1.80712 4.44714
1.98562 5.14561
2.16411 4.76846
2.34263 5.23949
2.52115 6.26881
2.69965 7.14049
2.87818 7.75253
3.05672 11.0479
3.23527 14.7413
3.4138 18.7899
3.59237 23.4191
3.77094 25.9459
3.9495 29.9136
4.12809 34.8677
4.30669 139.018
4.4853 57.5333
4.6639 56.1717
4.84253 68.2754
5.02118 89.6893
5.19981 511.676
5.37848 204.56
5.55716 104.312
5.73586 94.6807
5.91455 98.9451
6.09328 4216.68
6.27201 83.8932
6.45075 68.5812
6.62952 62.5864
6.8083 58.6789
6.98711 55.9588
7.16591 55.8212
7.34475 76.375
7.5236 55.2634
7.70247 56.7167
7.88135 58.3654
8.06026 63.1993
8.23919 70.6325
8.41812 86.5402
8.59709 1226.24
8.77609 101.607
8.9551 90.5203
9.13412 83.5717
9.31318 84.5173
9.49226 85.9944
9.67134 97.0086
9.85047 101.817
10.0296 408.303
10.2088 416.006
10.388 108.056
10.5672 491.38
10.7465 88.2586
10.9257 78.6415
11.105 72.6391
11.2844 70.277
11.4637 65.7882
11.6431 64.6114
11.8225 63.4888
12.002 65.4069
12.1814 154.838
12.3609 69.3921
12.5405 65.2688
12.72 69.6112
12.8996 72.4973
13.0792 81.5421
13.2589 249.539
13.4386 125.729
13.6183 252.291
13.7981 98.1963
13.9779 77.008
14.1577 73.337
14.3376 72.0311
14.5175 70.0353
14.6974 71.8805
14.8774 117.702
15.0574 148.972
15.2374 71.2195
15.4175 67.5436
15.5976 67.1689
15.7778 101.094
15.958 156.645
16.1382 62.7939
16.3185 59.029
16.4988 56.531
16.6792 55.6004
16.8596 55.9405
17.04 57.1948
17.2205 68.5368
17.401 71.8979
17.5815 60.1576
17.7622 62.4315
17.9428 77.2137
18.1237 139.405
18.3044 91.9289
18.4852 78.2317
18.666 61.5275
18.8469 58.853
19.0278 57.7256
19.2088 60.769
19.3898 76.7532
19.5709 54.8555
19.752 54.1905
19.9332 57.6437
20.1144 70.7939
20.2957 64.473
20.477 54.3686
20.6586 50.4924
20.84 49.5252
21.0215 49.3821
21.203 51.5219
21.3846 49.7458
21.5662 49.8552
21.7479 53.8509
21.9297 65.3889
22.1115 56.544
22.2933 50.6983
22.4753 49.4409
22.6572 49.9274
22.8393 52.9496
23.0214 58.0956
23.2037 49.6399
23.3859 50.8563
23.5682 57.3556
23.7505 48.9933
23.9329 45.9336
24.1154 44.792
24.2979 44.1705
24.4805 43.5094
24.6631 43.4489
24.8458 42.8369
25.0286 43.749
25.2114 45.2267
25.3943 45.35
25.5773 41.5259
25.7605 41.1055
25.9436 41.5117
26.1268 42.3921
26.31 40.8003
26.4933 41.4908
26.6767 42.8233
26.8601 41.094
27.0437 39.6313
27.2272 39.1405
27.4109 39.0259
27.5946 39.0299
27.7784 38.6529
27.9623 39.007
28.1462 39.41
28.3304 37.7089
28.5145 36.64
28.6987 36.2186
28.8829 35.9514
29.0673 35.2089
29.2517 34.9235
29.4361 34.7037
29.6207 33.6833
29.8053 33.4731
29.99 33.1093
30.1748 33.0429
30.3597 32.788
30.5447 32.6897
30.7297 32.6574
30.915 32.0602
31.1002 31.6116
31.2855 31.3337
31.4708 31.3753
31.6563 30.8793
31.8418 30.6587
32.0275 30.4065
32.2132 29.9188
32.399 29.379
32.5848 29.0276
32.7708 28.5456
32.9569 28.4877
33.143 28.2774
33.3293 27.8045
33.5158 27.4367
33.7022 27.034
33.8887 26.7561
34.0753 26.3941
34.262 26.0519
34.4488 25.6425
34.6357 25.3941
34.8227 25.0652
35.0098 24.9104
35.1969 24.6082
35.3842 24.3328
35.5716 24.0973
35.759 23.8552
35.9468 23.5018
36.1345 23.2575
36.3222 22.9461
36.5101 22.8162
36.6981 22.4123
36.8861 22.1842
37.0743 21.8624
37.2626 21.545
37.451 21.3303
37.6395 21.1152
37.8281 20.7125
38.0168 20.5435
38.2056 20.2023
38.3945 19.9623
38.5837 19.7572
38.7728 19.5507
38.9621 19.2742
39.1514 18.9468
39.3409 18.7841
39.5304 18.5276
39.7201 18.2844
39.9099 18.0981
40.0999 17.883
40.2899 17.6255
40.48 17.4291
40.6703 17.2039
40.8607 16.9895
41.0512 16.7765
41.242 16.4728
41.4327 16.2978
41.6236 16.0554
41.8146 15.9379
42.0057 15.6676
42.1969 15.4594
42.3882 15.2563
42.5797 15.0344
42.7713 14.8476
42.963 14.6604
43.1549 14.4463
43.3468 14.2216
43.5389 14.0125
43.7312 13.8019
43.9237 13.6318
44.1162 13.4096
44.3088 13.273
44.5016 13.1128
44.6945 12.9662
44.8875 12.752
45.0806 12.58
45.2739 12.4026
45.4673 12.1969
45.6609 12.0189
45.8546 11.8539
46.0484 11.6715
46.2424 11.4913
46.4365 11.3865
46.631 11.2048
46.8254 11.0153
47.0199 10.866
47.2146 10.7236
47.4095 10.5574
47.6044 10.404
47.7996 10.2137
47.9948 10.0784
48.1902 9.92212
48.3858 9.82353
48.5815 9.65316
48.7774 9.54222
48.9734 9.3926
49.1696 9.23333
49.3661 9.0809
49.5626 8.95627
49.7592 8.8293
49.956 8.68569
50.153 8.54529
50.3501 8.40076
50.5474 8.28717
50.7448 8.16786
50.9424 8.05707
51.1402 7.91438
51.3381 7.77317
51.5362 7.66348
51.7344 7.55711
51.9328 7.3734
52.1316 7.21757
52.3304 7.18066
52.5293 7.02991
52.7284 6.92435
52.9276 6.80643
53.1271 6.70208
53.3267 6.60371
53.5265 6.45974
53.7264 6.37273
53.9266 6.26733
54.1269 6.15564
54.3274 6.0338
54.528 5.87935
54.7289 5.76834
54.9301 5.53578
55.1314 5.40922
55.3328 5.18836
55.5344 5.04686
55.7361 4.88645

File: Ni3Fe_FD0457.xy
TT I
1.27165 7.17074
1.45013 6.01769
1.62863 5.41821
1.80712 4.85581
1.98562 4.6347
2.16411 4.36741
2.34263 4.65261
2.52115 6.21181
2.69965 7.61381
2.87818 8.73581
3.05672 10.9593
3.23527 15.2433
3.4138 19.3067
3.59237 23.564
3.77094 26.3462
3.9495 29.6221
4.12809 34.8866
4.30669 138.11
4.4853 58.102
4.6639 56.4251
4.84253 68.7967
5.02118 89.7685
5.19981 515.412
5.37848 204.709
5.55716 104.796
5.73586 94.5227
5.91455 98.9328
6.09328 4203.92
6.27201 83.7664
6.45075 68.4043
6.62952 63.0766
6.8083 59.068
6.98711 56.3411
7.16591 55.9594
7.34475 75.8178
7.5236 55.235
7.70247 56.7809
7.88135 58.7214
8.06026 63.0514
8.23919 70.6692
8.41812 86.5265
8.59709 1227.88
8.77609 101.944
8.9551 90.9471
9.13412 83.3738
9.31318 84.3739
9.49226 85.7524
9.67134 96.7855
9.85047 102.014
10.0296 409.121
10.2088 414.877
10.388 107.84
10.5672 491.281
10.7465 88.1866
10.9257 78.9612
11.105 72.8318
11.2844 70.3641
11.4637 65.8727
11.6431 64.4863
11.8225 63.4647
12.002 65.4815
12.1814 155.053
12.3609 69.6851
12.5405 65.3024
12.72 69.7135
12.8996 72.3529
13.0792 81.6204
13.2589 249.731
13.4386 124.995
13.6183 252.611
13.7981 97.8168
13.9779 76.8982
14.1577 73.3792
14.3376 71.9158
14.5175 70.2399
14.6974 71.699
14.8774 117.901
15.0574 148.952
15.2374 71.3587
15.4175 67.4842
15.5976 67.1052
15.7778 101.137
15.958 156.294
16.1382 62.7898
16.3185 58.9393
16.4988 56.4471
16.6792 55.2773
16.8596 56.1709
17.04 57.0958
17.2205 68.7637
17.401 71.9276
17.5815 60.257
17.7622 62.5074
17.9428 77.1378
18.1237 139.491
18.3044 91.7506
18.4852 78.076
18.666 61.434
18.8469 59.0405
19.0278 57.9079
19.2088 61.0392
19.3898 76.6673
19.5709 55.0097
19.752 54.2905
19.9332 57.6731
20.1144 70.6076
20.2957 64.3319
20.477 54.066
20.6586 50.5299
20.84 49.5172
21.0215 49.4305
21.203 51.5437
21.3846 49.7621
21.5662 49.7407
21.7479 54.1052
21.9297 65.3233
22.1115 56.4867
22.2933 50.744
22.4753 49.5379
22.6572 49.7795
22.8393 52.9235
23.0214 58.2755
23.2037 49.6551
23.3859 50.8355
23.5682 57.2856
23.7505 49.1219
23.9329 45.9456
24.1154 44.892
24.2979 44.1128
24.4805 43.4605
24.6631 43.4791
24.8458 42.9478
25.0286 43.591
25.2114 45.3455
25.3943 45.1452
25.5773 41.4864
25.7605 41.0947
25.9436 41.5872
26.1268 42.4039
26.31 40.7867
26.4933 41.5339
26.6767 42.8658
26.8601 41.0333
27.0437 39.4977
27.2272 39.1661
27.4109 39.0085
27.5946 39.057
27.7784 38.5194
27.9623 38.9412
28.1462 39.429
28.3304 37.7662
28.5145 36.3916
28.6987 36.3315
28.8829 35.9807
29.0673 35.1158
29.2517 34.8509
29.4361 34.8005
29.6207 33.6602
29.8053 33.392
29.99 33.0264
30.1748 33.0369
30.3597 32.8141
30.5447 32.7274
30.7297 32.7086
30.915 32.0529
31.1002 31.592
31.2855 31.3443
31.4708 31.2801
31.6563 30.8718
31.8418 30.7006
32.0275 30.3246
32.2132 29.8265
32.399 29.3358
32.5848 28.9355
32.7708 28.7639
32.9569 28.4198
33.143 28.258
33.3293 27.8266
33.5158 27.3529
33.7022 27.017
33.8887 26.7785
34.0753 26.3586
34.262 26.018
34.4488 25.7587
34.6357 25.3827
34.8227 25.1023
35.0098 24.8219
35.1969 24.6056
35.3842 24.3124
35.5716 24.0905
35.759 23.7884
35.9468 23.4997
36.1345 23.1945
36.3222 22.9728
36.5101 22.7709
36.6981 22.5165
36.8861 22.1003
37.0743 21.8347
37.2626 21.6114
37.451 21.3459
37.6395 21.1356
37.8281 20.8206
38.0168 20.5557
38.2056 20.2468
38.3945 19.9859
38.5837 19.7211
38.7728 19.4861
38.9621 19.1878
39.1514 18.9583
39.3409 18.7694
39.5304 18.5589
39.7201 18.3438
39.9099 18.132
40.0999 17.8147
40.2899 17.6212
40.48 17.3462
40.6703 17.1363
40.8607 17.0377
41.0512 16.7856
41.242 16.5039
41.4327 16.3142
41.6236 16.0321
41.8146 15.8678
42.0057 15.6713
42.1969 15.3887
42.3882 15.2758
42.5797 15.039
42.7713 14.8511
42.963 14.6242
43.1549 14.4409
43.3468 14.2043
43.5389 14.0121
43.7312 13.8266
43.9237 13.6288
44.1162 13.47
44.3088 13.2945
44.5016 13.0651
44.6945 12.9072
44.8875 12.69
45.0806 12.547
45.2739 12.3432
45.4673 12.2066
45.6609 12.0277
45.8546 11.8898
46.0484 11.672
46.2424 11.5063
46.4365 11.3758
46.631 11.1542
46.8254 11.0357
47.0199 10.8371
47.2146 10.7171
47.4095 10.5357
47.6044 10.3793
47.7996 10.2549
47.9948 10.0785
48.1902 9.93841
48.3858 9.81791
48.5815 9.68467
48.7774 9.50369
48.9734 9.36831
49.1696 9.22402
49.3661 9.08958
49.5626 8.98402
49.7592 8.85237
49.956 8.68202
50.153 8.56004
50.3501 8.42297
50.5474 8.27588
50.7448 8.17586
50.9424 8.03299
51.1402 7.92602
51.3381 7.7729
51.5362 7.66089
51.7344 7.51553
51.9328 7.3912
52.1316 7.25715
52.3304 7.17475
52.5293 7.03796
52.7284 6.93775
52.9276 6.81546
53.1271 6.70285
53.3267 6.58898
53.5265 6.48139
53.7264 6.39043
53.9266 6.22386
54.1269 6.15537
54.3274 6.0469
54.528 5.87233
54.7289 5.74275
54.9301 5.56473
55.1314 5.45498
55.3328 5.18957
55.5344 5.05593
55.7361 4.89783

File: Ni3Fe_FD0459.xy
TT I
1.27165 7.68909
1.45013 6.15854
1.62863 5.19084
1.80712 4.69894
1.98562 5.18433
2.16411 5.13536
2.34263 5.42449
2.52115 6.87819
2.69965 7.64433
2.87818 8.22459
3.05672 11.075
3.23527 15.122
3.4138 18.6721
3.59237 23.9603
3.77094 25.9036
3.9495 29.9534
4.12809 34.4622
4.30669 136.053
4.4853 57.6177
4.6639 56.4801
4.84253 69.0291
5.02118 90.4298
5.19981 519.934
5.37848 205.847
5.55716 104.82
5.73586 94.7214
5.91455 98.8301
6.09328 4192.05
6.27201 83.7069
6.45075 68.9105
6.62952 63.1976
6.8083 58.9609
6.98711 56.182
7.16591 56.0642
7.34475 75.4622
7.5236 55.2304
7.70247 56.853
7.88135 58.6383
8.06026 63.3964
8.23919 70.497
8.41812 86.8537
8.59709 1223.23
8.77609 101.722
8.9551 90.3184
9.13412 83.4267
9.31318 84.8991
9.49226 86.0478
9.67134 97.0866
9.85047 102.297
10.0296 408.818
10.2088 410.206
10.388 108.186
10.5672 492.119
10.7465 88.1966
10.9257 78.9237
11.105 72.5626
11.2844 70.3643
11.4637 65.8529
11.6431 64.3232
11.8225 63.6989
12.002 65.4738
12.1814 154.889
12.3609 69.4353
12.5405 65.4025
12.72 69.5001
12.8996 72.3345
13.0792 81.9035
13.2589 250.816
13.4386 124.756
13.6183 253.27
13.7981 97.63
13.9779 77.2686
14.1577 73.5361
14.3376 71.909
14.5175 69.9891
14.6974 72.0581
14.8774 117.96
15.0574 148.119
15.2374 71.243
15.4175 67.5042
15.5976 67.3864
15.7778 101.209
15.958 155.761
16.1382 62.9125
16.3185 59.0149
16.4988 56.3924
16.6792 55.3738
16.8596 55.8377
17.04 56.9961
17.2205 68.7604
17.401 71.7646
17.5815 60.349
17.7622 62.5178
17.9428 77.3407
18.1237 139.707
18.3044 91.9788
18.4852 78.2469
18.666 61.2887
18.8469 59.0236
19.0278 57.7841
19.2088 60.9969
19.3898 76.8017
19.5709 54.8527
19.752 54.3282
19.9332 57.5344
20.1144 70.5309
20.2957 64.4027
20.477 54.1869
20.6586 50.5761
20.84 49.5891
21.0215 49.3883
21.203 51.4668
21.3846 49.7084
21.5662 50.0073
21.7479 54.0102
21.9297 65.2648
22.1115 56.5341
22.2933 50.6506
22.4753 49.5879
22.6572 49.9129
22.8393 53.1311
23.0214 58.0556
23.2037 49.696
23.3859 50.7341
23.5682 57.4357
23.7505 48.8645
23.9329 45.8904
24.1154 44.7818
24.2979 44.1918
24.4805 43.6631
24.6631 43.3918
24.8458 42.9789
25.0286 43.6829
25.2114 45.3557
25.3943 45.2327
25.5773 41.6243
25.7605 41.1307
25.9436 41.5608
26.1268 42.3823
26.31 40.7119
26.4933 41.4619
26.6767 42.8315
26.8601 41.0332
27.0437 39.5697
27.2272 39.107
27.4109 39.0475
27.5946 38.9915
27.7784 38.5476
27.9623 39.0873
28.1462 39.4696
28.3304 37.8028
28.5145 36.599
28.6987 36.2325
28.8829 35.8288
29.0673 35.2482
29.2517 34.9049
29.4361 34.6916
29.6207 33.7378
29.8053 33.3822
29.99 33.1774
30.1748 32.8838
30.3597 32.7534
30.5447 32.7823
30.7297 32.7974
30.915 32.0789
31.1002 31.6489
31.2855 31.404
31.4708 31.3648
31.6563 30.8412
31.8418 30.6475
32.0275 30.4511
32.2132 29.8011
32.399 29.3369
32.5848 28.9881
32.7708 28.5521
32.9569 28.4737
33.143 28.3662
33.3293 27.8342
33.5158 27.5295
33.7022 27.075
33.8887 26.7089
34.0753 26.3142
34.262 25.9435
34.4488 25.6921
34.6357 25.3517
34.8227 25.0708
35.0098 24.8919
35.1969 24.5693
35.3842 24.3832
35.5716 24.1542
35.759 23.8665
35.9468 23.4943
36.1345 23.26
36.3222 22.9517
36.5101 22.8258
36.6981 22.4678
36.8861 22.0873
37.0743 21.7917
37.2626 21.6559
37.451 21.3413
37.6395 21.1974
37.8281 20.8362
38.0168 20.5086
38.2056 20.2482
38.3945 20.0108
38.5837 19.7174
38.7728 19.5196
38.9621 19.2667
39.1514 18.9646
39.3409 18.7217
39.5304 18.5704
39.7201 18.339
39.9099 18.0971
40.0999 17.8505
40.2899 17.6091
40.48 17.411
40.6703 17.1786
40.8607 16.9882
41.0512 16.7621
41.242 16.5261
41.4327 16.3008
41.6236 16.0357
41.8146 15.8378
42.0057 15.6633
42.1969 15.4912
42.3882 15.253
42.5797 15.0529
42.7713 14.8366
42.963 14.6718
43.1549 14.4633
43.3468 14.1722
43.5389 14.0624
43.7312 13.8697
43.9237 13.6439
44.1162 13.4706
44.3088 13.2544
44.5016 13.0892
44.6945 12.8852
44.8875 12.7439
45.0806 12.5266
45.2739 12.3853
45.4673 12.2412
45.6609 12.0752
45.8546 11.9078
46.0484 11.6884
46.2424 11.5112
46.4365 11.3596
46.631 11.212
46.8254 11.0196
47.0199 10.8618
47.2146 10.72
47.4095 10.5485
47.6044 10.3495
47.7996 10.2673
47.9948 10.0816
48.1902 9.91833
48.3858 9.8001
48.5815 9.65008
48.7774 9.50269
48.9734 9.37186
49.1696 9.23589
49.3661 9.08092
49.5626 8.94421
49.7592 8.84006
49.956 8.70789
50.153 8.54968
50.3501 8.41697
50.5474 8.30637
50.7448 8.16937
50.9424 8.05815
51.1402 7.94207
51.3381 7.77444
51.5362 7.66655
51.7344 7.53684
51.9328 7.38893
52.1316 7.24707
52.3304 7.17696
52.5293 7.06551
52.7284 6.94933
52.9276 6.78529
53.1271 6.74356
53.3267 6.58602
53.5265 6.44585
53.7264 6.3671
53.9266 6.23833
54.1269 6.11834
54.3274 6.03879
54.528 5.90956
54.7289 5.69831
54.9301 5.57915
55.1314 5.37703
55.3328 5.19633
55.5344 5.00393
55.7361 4.93629

File: Ni3Fe_FD0460.xy
TT I
1.27165 7.13257
1.45013 5.86847
1.62863 5.17584
1.80712 4.94906
1.98562 4.88337
2.16411 5.08343
2.34263 5.42146
2.52115 6.4195
2.69965 7.73092
2.87818 9.05068
3.05672 10.8847
3.23527 15.2315
3.4138 18.6474
3.59237 23.7549
3.77094 26.2577
3.9495 29.7102
4.12809 34.3401
4.30669 133.289
4.4853 58.0767
4.6639 56.4443
4.84253 69.0908
5.02118 90.0491
5.19981 520.749
5.37848 204.57
5.55716 105.247
5.73586 95.1481
5.91455 98.9993
6.09328 4239.7
6.27201 83.7582
6.45075 68.9745
6.62952 63.2756
6.8083 59.3227
6.98711 56.5186
7.16591 56.0362
7.34475 75.6217
7.5236 55.0263
7.70247 56.9424
7.88135 58.8594
8.06026 63.1288
8.23919 70.5841
8.41812 87.0682
8.59709 1216.03
8.77609 101.816
8.9551 90.4854
9.13412 83.7442
9.31318 84.9922
9.49226 86.1916
9.67134 96.7131
9.85047 102.268
10.0296 410.037
10.2088 409.782
10.388 108.266
10.5672 493.22
10.7465 88.2801
10.9257 78.7303
11.105 72.8582
11.2844 70.1132
11.4637 65.8709
11.6431 64.378
11.8225 63.2836
12.002 65.7294
12.1814 156.241
12.3609 69.4411
12.5405 65.3838
12.72 69.731
12.8996 72.3972
13.0792 81.8679
13.2589 250.326
13.4386 124.369
13.6183 253.874
13.7981 97.7152
13.9779 76.9916
14.1577 73.6699
14.3376 71.7446
14.5175 70.3992
14.6974 71.7929
14.8774 117.965
15.0574 147.933
15.2374 71.1386
15.4175 67.271
15.5976 67.2558
15.7778 100.946
15.958 155.543
16.1382 62.8202
16.3185 59.2258
16.4988 56.3771
16.6792 55.3864
16.8596 55.7488
17.04 57.0391
17.2205 68.6223
17.401 71.6604
17.5815 60.2158
17.7622 62.2622
17.9428 76.9937
18.1237 139.95
18.3044 91.8784
18.4852 77.883
18.666 61.4324
18.8469 58.8984
19.0278 57.6386
19.2088 60.9846
19.3898 76.7178
19.5709 54.8942
19.752 54.2159
19.9332 57.6193
20.1144 70.6273
20.2957 64.4986
20.477 54.1741
20.6586 50.5104
20.84 49.6682
21.0215 49.5344
21.203 51.6518
21.3846 49.6162
21.5662 49.7562
21.7479 53.824
21.9297 65.3972
22.1115 56.6118
22.2933 50.5959
22.4753 49.6808
22.6572 49.7374
22.8393 53.1001
23.0214 57.9404
23.2037 49.7732
23.3859 50.8218
23.5682 57.3161
23.7505 49.1999
23.9329 45.7905
24.1154 44.8272
24.2979 44.0581
24.4805 43.6639
24.6631 43.6289
24.8458 42.9635
25.0286 43.6468
25.2114 45.5819
25.3943 45.182
25.5773 41.5389
25.7605 41.1839
25.9436 41.4541
26.1268 42.2962
26.31 40.7656
26.4933 41.4697
26.6767 42.7987
26.8601 41.0108
27.0437 39.4508
27.2272 39.04
27.4109 39.0303
27.5946 38.9951
27.7784 38.5857
27.9623 38.9055
28.1462 39.3521
28.3304 37.7429
28.5145 36.4927
28.6987 36.1331
28.8829 35.8652
29.0673 35.2853
29.2517 34.8908
29.4361 34.6259
29.6207 33.6702
29.8053 33.455
29.99 33.1316
30.1748 32.9605
30.3597 32.8497
30.5447 32.6418
30.7297 32.7858
30.915 32.1488
31.1002 31.6415
31.2855 31.3953
31.4708 31.2803
31.6563 30.7404
31.8418 30.6805
32.0275 30.4119
32.2132 29.8928
32.399 29.3818
32.5848 28.8976
32.7708 28.5488
32.9569 28.4282
33.143 28.1907
33.3293 27.8576
33.5158 27.4595
33.7022 27.0266
33.8887 26.7458
34.0753 26.3628
34.262 26.0838
34.4488 25.6602
34.6357 25.3132
34.8227 25.1211
35.0098 24.8095
35.1969 24.5417
35.3842 24.3405
35.5716 24.1459
35.759 23.8063
35.9468 23.5145
36.1345 23.2197
36.3222 23.0645
36.5101 22.7749
36.6981 22.486
36.8861 22.0997
37.0743 21.855
37.2626 21.5169
37.451 21.3191
37.6395 21.1244
37.8281 20.7667
38.0168 20.5601
38.2056 20.2911
38.3945 20.0007
38.5837 19.6948
38.7728 19.4716
38.9621 19.2725
39.1514 18.9592
39.3409 18.7381
39.5304 18.5701
39.7201 18.3254
39.9099 18.0888
40.0999 17.8171
40.2899 17.595
40.48 17.3703
40.6703 17.2507
40.8607 17.0038
41.0512 16.7778
41.242 16.5152
41.4327 16.3442
41.6236 16.0795
41.8146 15.8836
42.0057 15.6466
42.1969 15.4244
42.3882 15.2715
42.5797 15.0702
42.7713 14.8508
42.963 14.6389
43.1549 14.4543
43.3468 14.2294
43.5389 14.0469
43.7312 13.8541
43.9237 13.6052
44.1162 13.4401
44.3088 13.2066
44.5016 13.125
44.6945 12.9324
44.8875 12.7532
45.0806 12.5175
45.2739 12.329
45.4673 12.2565
45.6609 12.0215
45.8546 11.9075
46.0484 11.6974
46.2424 11.5336
46.4365 11.3651
46.631 11.1246
46.8254 11.0242
47.0199 10.8474
47.2146 10.7231
47.4095 10.5363
47.6044 10.3514
47.7996 10.2481
47.9948 10.0937
48.1902 9.93911
48.3858 9.79961
48.5815 9.64721
48.7774 9.52774
48.9734 9.38767
49.1696 9.22652
49.3661 9.08288
49.5626 8.93582
49.7592 8.8318
49.956 8.68945
50.153 8.58932
50.3501 8.4094
50.5474 8.30496
50.7448 8.14668
50.9424 8.03898
51.1402 7.87935
51.3381 7.82065
51.5362 7.6299
51.7344 7.55326
51.9328 7.38516
52.1316 7.27466
52.3304 7.17943
52.5293 7.06555
52.7284 6.89706
52.9276 6.8569
53.1271 6.71631
53.3267 6.58762
53.5265 6.49731
53.7264 6.33177
53.9266 6.25268
54.1269 6.13408
54.3274 6.03439
54.528 5.86578
54.7289 5.72995
54.9301 5.52968
55.1314 5.45894
55.3328 5.26571
55.5344 4.9973
55.7361 4.88602

File: Ni3Fe_FD0461.xy
TT I
1.27165 7.78118
1.45013 5.87809
1.62863 5.63681
1.80712 5.10337
1.98562 5.02401
2.16411 4.80744
2.34263 5.0762
2.52115 6.42756
2.69965 8.14966
2.87818 8.52598
3.05672 11.3772
3.23527 15.0011
3.4138 18.996
3.59237 23.2523
3.77094 25.9703
3.9495 29.9875
4.12809 34.7645
4.30669 131.663
4.4853 57.7901
4.6639 56.2798
4.84253 68.6983
5.02118 89.8714
5.19981 525.082
5.37848 205.219
5.55716 104.807
5.73586 95.1874
5.91455 99.5232
6.09328 4210.76
6.27201 84.2429
6.45075 68.6217
6.62952 63.1564
6.8083 59.2568
6.98711 56.4229
7.16591 56.2771
7.34475 75.0517
7.5236 55.0451
7.70247 57.0626
7.88135 58.6311
8.06026 63.3461
8.23919 70.6631
8.41812 87.0854
8.59709 1229.23
8.77609 101.718
8.9551 90.8396
9.13412 83.994
9.31318 85.0865
9.49226 86.3488
9.67134 96.8591
9.85047 102.624
10.0296 410.532
10.2088 407.631
10.388 108.364
10.5672 494.684
10.7465 88.1811
10.9257 79.123
11.105 72.8955
11.2844 70.5488
11.4637 65.8208
11.6431 64.3004
11.8225 63.4976
12.002 65.5413
12.1814 155.776
12.3609 69.434
12.5405 65.8291
12.72 69.6517
12.8996 72.4994
13.0792 81.8999
13.2589 251.402
13.4386 124.337
13.6183 254.098
13.7981 97.8268
13.9779 77.1274
14.1577 73.3882
14.3376 71.9123
14.5175 70.2791
14.6974 72.0114
14.8774 118.604
15.0574 147.262
15.2374 71.486
15.4175 67.5643
15.5976 67.2719
15.7778 101.473
15.958 155.164
16.1382 62.975
16.3185 58.9542
16.4988 56.2854
16.6792 55.4794
16.8596 55.9708
17.04 57.0058
17.2205 68.9066
17.401 71.7879
17.5815 60.3624
17.7622 62.7562
17.9428 77.3845
18.1237 139.65
18.3044 92.3042
18.4852 77.8455
18.666 61.4601
18.8469 59.1024
19.0278 57.9464
19.2088 60.7704
19.3898 76.686
19.5709 55.0151
19.752 54.2888
19.9332 57.7881
20.1144 70.3577
20.2957 64.6617
20.477 54.3046
20.6586 50.6377
20.84 49.7436
21.0215 49.6595
21.203 51.5925
21.3846 49.7566
21.5662 50.0809
21.7479 53.9603
21.9297 65.5117
22.1115 56.5863
22.2933 50.5527
22.4753 49.4439
22.6572 50.0191
22.8393 53.2654
23.0214 57.8602
23.2037 49.7692
23.3859 50.967
23.5682 57.3203
23.7505 48.8992
23.9329 46.0148
24.1154 44.9756
24.2979 44.1953
24.4805 43.7048
24.6631 43.4074
24.8458 42.9828
25.0286 43.6498
25.2114 45.3573
25.3943 45.1779
25.5773 41.6051
25.7605 41.0689
25.9436 41.5336
26.1268 42.3993
26.31 40.8154
26.4933 41.4794
26.6767 42.7999
26.8601 41.0707
27.0437 39.5333
27.2272 39.2246
27.4109 38.9862
27.5946 38.9962
27.7784 38.4841
27.9623 38.8737
28.1462 39.3955
28.3304 37.7634
28.5145 36.5663
28.6987 36.1707
28.8829 36.1135
29.0673 35.2682
29.2517 34.914
29.4361 34.6639
29.6207 33.7866
29.8053 33.3763
29.99 33.0262
30.1748 32.9282
30.3597 32.878
30.5447 32.7279
30.7297 32.7817
30.915 32.1018
31.1002 31.7052
31.2855 31.4185
31.4708 31.3128
31.6563 30.782
31.8418 30.6256
32.0275 30.3681
32.2132 29.8967
32.399 29.4298
32.5848 28.9378
32.7708 28.6788
32.9569 28.4497
33.143 28.2105
33.3293 27.8424
33.5158 27.4818
33.7022 27.0293
33.8887 26.7305
34.0753 26.3604
34.262 26.0603
34.4488 25.6831
34.6357 25.3747
34.8227 25.0907
35.0098 24.9884
35.1969 24.595
35.3842 24.3817
35.5716 24.1323
35.759 23.8947
35.9468 23.505
36.1345 23.296
36.3222 23.0345
36.5101 22.8011
36.6981 22.4644
36.8861 22.1383
37.0743 21.8612
37.2626 21.6229
37.451 21.3526
37.6395 21.1399
37.8281 20.8094
38.0168 20.5659
38.2056 20.2967
38.3945 19.9842
38.5837 19.7598
38.7728 19.4884
38.9621 19.2815
39.1514 19.0185
39.3409 18.7137
39.5304 18.5274
39.7201 18.3128
39.9099 18.1654
40.0999 17.9
40.2899 17.6531
40.48 17.3447
40.6703 17.124
40.8607 17.0234
41.0512 16.8625
41.242 16.5566
41.4327 16.3079
41.6236 16.0573
41.8146 15.897
42.0057 15.7059
42.1969 15.4264
42.3882 15.3209
42.5797 15.0617
42.7713 14.8488
42.963 14.6407
43.1549 14.4588
43.3468 14.2359
43.5389 14.0577
43.7312 13.8456
43.9237 13.7141
44.1162 13.4868
44.3088 13.298
44.5016 13.0885
44.6945 12.9359
44.8875 12.7145
45.0806 12.5468
45.2739 12.3988
45.4673 12.2315
45.6609 12.0046
45.8546 11.8436
46.0484 11.7074
46.2424 11.5309
46.4365 11.3894
46.631 11.2007
46.8254 11.0557
47.0199 10.8535
47.2146 10.7561
47.4095 10.5496
47.6044 10.3478
47.7996 10.2313
47.9948 10.0882
48.1902 9.90785
48.3858 9.81304
48.5815 9.67558
48.7774 9.52936
48.9734 9.39999
49.1696 9.2497
49.3661 9.07717
49.5626 8.9371
49.7592 8.82808
49.956 8.69069
50.153 8.58926
50.3501 8.44339
50.5474 8.28577
50.7448 8.18095
50.9424 8.06893
51.1402 7.91839
51.3381 7.76377
51.5362 7.66685
51.7344 7.53319
51.9328 7.40809
52.1316 7.25731
52.3304 7.17835
52.5293 7.05861
52.7284 6.94062
52.9276 6.85646
53.1271 6.69919
53.3267 6.55035
53.5265 6.49104
53.7264 6.35558
53.9266 6.23801
54.1269 6.16437
54.3274 6.04695
54.528 5.91146
54.7289 5.71886
54.9301 5.53136
55.1314 5.41019
55.3328 5.22179
55.5344 5.07085
55.7361 4.91038