Folder: NiFe_MOF_catalyst_paper/XRD (part 132)

File: Ni3Fe_FD0712.xy
TT I
1.27165 7.11502
1.45013 6.237
1.62863 5.02639
1.80712 5.09551
1.98562 4.69378
2.16411 4.13874
2.34263 5.52088
2.52115 7.19009
2.69965 7.48593
2.87818 8.57992
3.05672 10.6674
3.23527 15.2136
3.4138 18.6181
3.59237 22.8619
3.77094 25.3154
3.9495 29.1185
4.12809 33.5643
4.30669 100.59
4.4853 53.4297
4.6639 55.5089
4.84253 68.2717
5.02118 87.5936
5.19981 430.736
5.37848 198.666
5.55716 102.378
5.73586 93.0241
5.91455 95.6874
6.09328 4605.99
6.27201 80.4907
6.45075 70.2173
6.62952 62.8931
6.8083 59.4427
6.98711 55.1153
7.16591 56.48
7.34475 66.6625
7.5236 53.8832
7.70247 56.4387
7.88135 57.3386
8.06026 62.8275
8.23919 69.3297
8.41812 83.8696
8.59709 1247.45
8.77609 97.8365
8.9551 89.5044
9.13412 83.1319
9.31318 84.8693
9.49226 84.6695
9.67134 95.4333
9.85047 101.74
10.0296 364.899
10.2088 360.99
10.388 105.707
10.5672 517.995
10.7465 86.6552
10.9257 77.8848
11.105 71.1386
11.2844 68.4514
11.4637 64.3973
11.6431 63.0666
11.8225 62.4928
12.002 64.4095
12.1814 155.365
12.3609 66.7522
12.5405 64.7787
12.72 67.4399
12.8996 71.3494
13.0792 80.5877
13.2589 250.567
13.4386 121.073
13.6183 260.824
13.7981 94.1353
13.9779 75.6352
14.1577 71.7999
14.3376 70.2334
14.5175 68.8849
14.6974 70.7212
14.8774 114.56
15.0574 140.283
15.2374 69.5614
15.4175 66.3349
15.5976 65.903
15.7778 97.5777
15.958 148.128
16.1382 61.1373
16.3185 57.6562
16.4988 55.2105
16.6792 54.2031
16.8596 54.8762
17.04 56.0524
17.2205 67.5495
17.401 69.684
17.5815 59.1835
17.7622 61.3638
17.9428 74.7851
18.1237 142.001
18.3044 91.476
18.4852 74.8891
18.666 60.1208
18.8469 58.0386
19.0278 56.696
19.2088 59.3225
19.3898 75.9777
19.5709 53.8345
19.752 53.2564
19.9332 56.5071
20.1144 69.4949
20.2957 64.0754
20.477 52.7695
20.6586 49.3868
20.84 48.6578
21.0215 48.6577
21.203 50.8592
21.3846 48.882
21.5662 48.9453
21.7479 52.8791
21.9297 65.119
22.1115 55.8185
22.2933 49.5426
22.4753 48.7138
22.6572 48.8578
22.8393 52.2147
23.0214 56.9796
23.2037 48.6859
23.3859 49.6115
23.5682 57.3964
23.7505 47.9528
23.9329 45.1717
24.1154 43.9396
24.2979 43.138
24.4805 42.8206
24.6631 42.5504
24.8458 41.9784
25.0286 42.8668
25.2114 44.6235
25.3943 44.4946
25.5773 40.7289
25.7605 40.2221
25.9436 40.8507
26.1268 41.6419
26.31 40.0225
26.4933 40.7382
26.6767 42.188
26.8601 40.2708
27.0437 38.8565
27.2272 38.4985
27.4109 38.2728
27.5946 38.244
27.7784 37.7956
27.9623 38.3075
28.1462 38.6661
28.3304 37.0178
28.5145 35.8585
28.6987 35.5344
28.8829 35.2873
29.0673 34.4999
29.2517 34.3096
29.4361 34.0194
29.6207 33.1156
29.8053 32.7444
29.99 32.4688
30.1748 32.4134
30.3597 32.2143
30.5447 32.0857
30.7297 32.1305
30.915 31.5062
31.1002 31.0112
31.2855 30.7372
31.4708 30.7752
31.6563 30.1773
31.8418 30.0585
32.0275 29.8065
32.2132 29.3119
32.399 28.8285
32.5848 28.4227
32.7708 28.1024
32.9569 27.9644
33.143 27.7851
33.3293 27.3212
33.5158 26.8317
33.7022 26.5199
33.8887 26.3003
34.0753 25.8303
34.262 25.5938
34.4488 25.0931
34.6357 24.8646
34.8227 24.6357
35.0098 24.3603
35.1969 24.0711
35.3842 24.011
35.5716 23.7415
35.759 23.4434
35.9468 23.1006
36.1345 22.8117
36.3222 22.6158
36.5101 22.354
36.6981 22.0195
36.8861 21.7337
37.0743 21.4452
37.2626 21.2073
37.451 20.9477
37.6395 20.7596
37.8281 20.3822
38.0168 20.1337
38.2056 19.8973
38.3945 19.5846
38.5837 19.4496
38.7728 19.0825
38.9621 18.9249
39.1514 18.6357
39.3409 18.4061
39.5304 18.1827
39.7201 18.0276
39.9099 17.7251
40.0999 17.5111
40.2899 17.3219
40.48 17.0403
40.6703 16.8156
40.8607 16.6837
41.0512 16.4598
41.242 16.2373
41.4327 16.0476
41.6236 15.7396
41.8146 15.6034
42.0057 15.3647
42.1969 15.168
42.3882 15.0027
42.5797 14.7272
42.7713 14.5457
42.963 14.3783
43.1549 14.1587
43.3468 13.9588
43.5389 13.7742
43.7312 13.5662
43.9237 13.4063
44.1162 13.2035
44.3088 13.006
44.5016 12.8271
44.6945 12.6554
44.8875 12.5424
45.0806 12.3253
45.2739 12.1825
45.4673 11.9876
45.6609 11.8347
45.8546 11.6511
46.0484 11.5033
46.2424 11.3196
46.4365 11.1778
46.631 11.0104
46.8254 10.8252
47.0199 10.6662
47.2146 10.5138
47.4095 10.3222
47.6044 10.1551
47.7996 10.0466
47.9948 9.88948
48.1902 9.75596
48.3858 9.62993
48.5815 9.49788
48.7774 9.34142
48.9734 9.23877
49.1696 9.0133
49.3661 8.92849
49.5626 8.75649
49.7592 8.6797
49.956 8.573
50.153 8.39468
50.3501 8.23766
50.5474 8.13097
50.7448 8.04143
50.9424 7.87011
51.1402 7.78838
51.3381 7.62354
51.5362 7.53487
51.7344 7.40841
51.9328 7.29388
52.1316 7.13893
52.3304 7.0362
52.5293 6.93037
52.7284 6.81261
52.9276 6.69088
53.1271 6.59887
53.3267 6.48229
53.5265 6.36314
53.7264 6.26969
53.9266 6.10302
54.1269 6.05421
54.3274 5.92562
54.528 5.75934
54.7289 5.62099
54.9301 5.4532
55.1314 5.31041
55.3328 5.1037
55.5344 4.96332
55.7361 4.80268

File: Ni3Fe_FD0713.xy
TT I
1.27165 7.46149
1.45013 6.13623
1.62863 4.88359
1.80712 5.10949
1.98562 4.67821
2.16411 5.15726
2.34263 5.372
2.52115 7.21377
2.69965 8.0711
2.87818 8.93039
3.05672 10.9859
3.23527 15.3838
3.4138 18.7895
3.59237 23.043
3.77094 25.7398
3.9495 29.6889
4.12809 34.302
4.30669 98.5494
4.4853 53.5224
4.6639 55.6881
4.84253 68.9775
5.02118 88.2519
5.19981 437.029
5.37848 198.913
5.55716 103.024
5.73586 93.5627
5.91455 96.35
6.09328 4616.08
6.27201 80.782
6.45075 69.7021
6.62952 62.9677
6.8083 59.5434
6.98711 55.2544
7.16591 56.0349
7.34475 66.6389
7.5236 54.2536
7.70247 56.7404
7.88135 57.34
8.06026 62.5795
8.23919 69.6274
8.41812 84.3227
8.59709 1246.86
8.77609 98.019
8.9551 89.522
9.13412 83.3154
9.31318 85.1596
9.49226 85.0793
9.67134 95.2769
9.85047 102.09
10.0296 368.272
10.2088 352.009
10.388 106.145
10.5672 524.202
10.7465 85.9305
10.9257 78.0906
11.105 71.8515
11.2844 68.3211
11.4637 64.715
11.6431 63.3552
11.8225 62.8959
12.002 64.7289
12.1814 157.637
12.3609 66.9335
12.5405 65.1937
12.72 68.2796
12.8996 71.6717
13.0792 81.0592
13.2589 252.612
13.4386 119.806
13.6183 259.992
13.7981 93.6522
13.9779 75.8609
14.1577 71.9676
14.3376 70.3743
14.5175 68.96
14.6974 71.0627
14.8774 114.944
15.0574 138.38
15.2374 69.6283
15.4175 66.4116
15.5976 65.8893
15.7778 97.3661
15.958 147.32
16.1382 61.4258
16.3185 57.9988
16.4988 55.3204
16.6792 54.4649
16.8596 54.7593
17.04 56.1458
17.2205 67.0974
17.401 69.5858
17.5815 59.2929
17.7622 61.4799
17.9428 74.5424
18.1237 140.853
18.3044 91.5231
18.4852 74.5388
18.666 60.1762
18.8469 57.9879
19.0278 56.9329
19.2088 59.3776
19.3898 75.5552
19.5709 53.9956
19.752 53.3821
19.9332 56.3465
20.1144 69.9073
20.2957 64.0712
20.477 52.8792
20.6586 49.5199
20.84 48.7526
21.0215 48.4552
21.203 50.775
21.3846 48.8295
21.5662 49.0158
21.7479 53.04
21.9297 64.8364
22.1115 55.974
22.2933 49.5842
22.4753 48.5595
22.6572 48.9279
22.8393 52.3384
23.0214 56.8792
23.2037 48.8208
23.3859 49.7977
23.5682 57.1334
23.7505 47.9007
23.9329 45.0699
24.1154 43.972
24.2979 43.3049
24.4805 42.8451
24.6631 42.6828
24.8458 42.1698
25.0286 42.8147
25.2114 44.6639
25.3943 44.5832
25.5773 40.8717
25.7605 40.5298
25.9436 40.7851
26.1268 41.5724
26.31 40.0314
26.4933 40.6619
26.6767 42.1289
26.8601 40.3031
27.0437 38.8518
27.2272 38.4793
27.4109 38.3917
27.5946 38.3512
27.7784 38.0512
27.9623 38.4337
28.1462 38.6637
28.3304 36.9215
28.5145 35.8922
28.6987 35.5594
28.8829 35.2841
29.0673 34.5634
29.2517 34.3678
29.4361 34.16
29.6207 33.0081
29.8053 32.8788
29.99 32.5383
30.1748 32.3053
30.3597 32.216
30.5447 32.1337
30.7297 32.1915
30.915 31.5748
31.1002 31.0755
31.2855 30.7697
31.4708 30.7497
31.6563 30.322
31.8418 30.0987
32.0275 29.9215
32.2132 29.2401
32.399 28.8903
32.5848 28.4769
32.7708 28.0315
32.9569 27.8379
33.143 27.6689
33.3293 27.3507
33.5158 26.9618
33.7022 26.5234
33.8887 26.2574
34.0753 25.8871
34.262 25.576
34.4488 25.2675
34.6357 24.9519
34.8227 24.5523
35.0098 24.4423
35.1969 24.132
35.3842 23.8977
35.5716 23.6804
35.759 23.3882
35.9468 23.0351
36.1345 22.8722
36.3222 22.6716
36.5101 22.4111
36.6981 22.1351
36.8861 21.7387
37.0743 21.4668
37.2626 21.2052
37.451 20.9103
37.6395 20.8014
37.8281 20.4612
38.0168 20.1069
38.2056 19.888
38.3945 19.6822
38.5837 19.4701
38.7728 19.1736
38.9621 18.856
39.1514 18.6334
39.3409 18.3688
39.5304 18.2448
39.7201 17.9784
39.9099 17.7641
40.0999 17.5269
40.2899 17.351
40.48 17.1009
40.6703 16.8127
40.8607 16.666
41.0512 16.3948
41.242 16.2517
41.4327 16.0126
41.6236 15.8047
41.8146 15.6317
42.0057 15.457
42.1969 15.1452
42.3882 14.9989
42.5797 14.7777
42.7713 14.5641
42.963 14.3517
43.1549 14.1829
43.3468 13.9666
43.5389 13.7858
43.7312 13.5754
43.9237 13.4608
44.1162 13.2178
44.3088 13.0506
44.5016 12.8799
44.6945 12.6848
44.8875 12.5179
45.0806 12.3117
45.2739 12.1275
45.4673 12.0039
45.6609 11.8016
45.8546 11.6655
46.0484 11.5068
46.2424 11.2923
46.4365 11.1932
46.631 10.9819
46.8254 10.8373
47.0199 10.6528
47.2146 10.5205
47.4095 10.3634
47.6044 10.1657
47.7996 10.048
47.9948 9.89218
48.1902 9.76017
48.3858 9.61447
48.5815 9.49658
48.7774 9.36059
48.9734 9.20981
49.1696 9.11751
49.3661 8.91693
49.5626 8.80236
49.7592 8.69313
49.956 8.56472
50.153 8.4272
50.3501 8.2686
50.5474 8.15408
50.7448 8.05831
50.9424 7.88117
51.1402 7.79509
51.3381 7.63974
51.5362 7.55749
51.7344 7.38525
51.9328 7.26842
52.1316 7.19782
52.3304 7.03339
52.5293 6.93607
52.7284 6.80896
52.9276 6.67126
53.1271 6.57649
53.3267 6.51498
53.5265 6.36487
53.7264 6.27369
53.9266 6.15532
54.1269 6.0525
54.3274 5.89417
54.528 5.78227
54.7289 5.62345
54.9301 5.47784
55.1314 5.30548
55.3328 5.05402
55.5344 4.94669
55.7361 4.82814

File: Ni3Fe_FD0714.xy
TT I
1.27165 7.1171
1.45013 6.10628
1.62863 5.41686
1.80712 4.93073
1.98562 4.2051
2.16411 4.65915
2.34263 4.42874
2.52115 6.65756
2.69965 8.07077
2.87818 8.51128
3.05672 10.7876
3.23527 14.8738
3.4138 18.7612
3.59237 23.0747
3.77094 25.5609
3.9495 29.18
4.12809 34.2574
4.30669 98.5362
4.4853 53.0849
4.6639 55.3099
4.84253 68.3579
5.02118 87.4813
5.19981 432.916
5.37848 198.269
5.55716 102.659
5.73586 93.1644
5.91455 95.9155
6.09328 4603.35
6.27201 80.7162
6.45075 69.7635
6.62952 62.9459
6.8083 59.2941
6.98711 55.2234
7.16591 55.5845
7.34475 66.4282
7.5236 54.18
7.70247 56.7694
7.88135 57.9348
8.06026 62.8677
8.23919 69.5628
8.41812 83.8045
8.59709 1259.91
8.77609 98.0455
8.9551 89.0993
9.13412 82.852
9.31318 85.1483
9.49226 85.2855
9.67134 95.4822
9.85047 101.879
10.0296 366.051
10.2088 357.041
10.388 106.127
10.5672 518.801
10.7465 86.2128
10.9257 77.9478
11.105 71.0985
11.2844 68.0515
11.4637 64.5447
11.6431 63.425
11.8225 62.7003
12.002 64.6826
12.1814 157.156
12.3609 66.72
12.5405 64.9322
12.72 67.7473
12.8996 71.314
13.0792 81.0017
13.2589 250.381
13.4386 120.521
13.6183 260.913
13.7981 93.8631
13.9779 75.8189
14.1577 71.9561
14.3376 70.181
14.5175 68.6917
14.6974 70.529
14.8774 114.765
15.0574 138.854
15.2374 69.3733
15.4175 66.2518
15.5976 66.1074
15.7778 97.5772
15.958 148.522
16.1382 61.3535
16.3185 57.7889
16.4988 55.3381
16.6792 54.3419
16.8596 54.8309
17.04 56.2544
17.2205 67.4385
17.401 69.6102
17.5815 59.1338
17.7622 61.3415
17.9428 74.7208
18.1237 141.819
18.3044 91.6884
18.4852 74.678
18.666 60.143
18.8469 58.1622
19.0278 56.802
19.2088 59.3577
19.3898 75.9232
19.5709 53.7662
19.752 53.3921
19.9332 56.5085
20.1144 69.5027
20.2957 64.1635
20.477 52.7691
20.6586 49.55
20.84 48.7247
21.0215 48.4073
21.203 50.6534
21.3846 48.6768
21.5662 48.9764
21.7479 52.9245
21.9297 64.7776
22.1115 55.8336
22.2933 49.6471
22.4753 48.5687
22.6572 48.984
22.8393 52.1701
23.0214 57.0066
23.2037 48.6463
23.3859 49.8063
23.5682 57.15
23.7505 47.8562
23.9329 45.1165
24.1154 43.989
24.2979 43.3723
24.4805 42.8994
24.6631 42.6264
24.8458 42.1683
25.0286 42.8415
25.2114 44.8259
25.3943 44.3121
25.5773 40.8098
25.7605 40.3442
25.9436 40.787
26.1268 41.5146
26.31 40.0925
26.4933 40.7205
26.6767 42.1566
26.8601 40.2537
27.0437 38.8885
27.2272 38.5182
27.4109 38.399
27.5946 38.2856
27.7784 37.9383
27.9623 38.4397
28.1462 38.6345
28.3304 36.9277
28.5145 35.8413
28.6987 35.5573
28.8829 35.3887
29.0673 34.5194
29.2517 34.2746
29.4361 34.0349
29.6207 32.9992
29.8053 32.8246
29.99 32.5183
30.1748 32.2486
30.3597 32.1605
30.5447 32.1952
30.7297 32.2925
30.915 31.4861
31.1002 31.0817
31.2855 30.869
31.4708 30.8005
31.6563 30.2282
31.8418 30.0827
32.0275 29.8649
32.2132 29.3622
32.399 28.8893
32.5848 28.5025
32.7708 28.0754
32.9569 27.9234
33.143 27.6862
33.3293 27.3759
33.5158 27.0075
33.7022 26.5149
33.8887 26.1858
34.0753 25.9477
34.262 25.6023
34.4488 25.2843
34.6357 24.8942
34.8227 24.6174
35.0098 24.4337
35.1969 24.2332
35.3842 23.9383
35.5716 23.7545
35.759 23.4296
35.9468 23.0569
36.1345 22.8077
36.3222 22.7039
36.5101 22.3204
36.6981 22.0453
36.8861 21.7334
37.0743 21.4815
37.2626 21.1889
37.451 20.9242
37.6395 20.7518
37.8281 20.4821
38.0168 20.1117
38.2056 19.8835
38.3945 19.6305
38.5837 19.4256
38.7728 19.1698
38.9621 18.9263
39.1514 18.6505
39.3409 18.4009
39.5304 18.228
39.7201 18.0202
39.9099 17.7931
40.0999 17.4777
40.2899 17.2935
40.48 17.1008
40.6703 16.8982
40.8607 16.6729
41.0512 16.4376
41.242 16.1908
41.4327 16.0149
41.6236 15.7688
41.8146 15.6205
42.0057 15.3645
42.1969 15.1666
42.3882 14.9767
42.5797 14.7738
42.7713 14.5727
42.963 14.3522
43.1549 14.2094
43.3468 13.9567
43.5389 13.7873
43.7312 13.6073
43.9237 13.4074
44.1162 13.2568
44.3088 13.0591
44.5016 12.8255
44.6945 12.663
44.8875 12.5
45.0806 12.3263
45.2739 12.1262
45.4673 12.0219
45.6609 11.8175
45.8546 11.6569
46.0484 11.4751
46.2424 11.3263
46.4365 11.1592
46.631 10.956
46.8254 10.8114
47.0199 10.6841
47.2146 10.5152
47.4095 10.3412
47.6044 10.21
47.7996 10.0863
47.9948 9.90386
48.1902 9.74136
48.3858 9.64981
48.5815 9.47719
48.7774 9.34985
48.9734 9.23332
49.1696 9.04508
49.3661 8.92125
49.5626 8.80279
49.7592 8.64919
49.956 8.5217
50.153 8.40031
50.3501 8.29398
50.5474 8.15716
50.7448 8.01927
50.9424 7.92724
51.1402 7.81081
51.3381 7.63475
51.5362 7.53944
51.7344 7.40901
51.9328 7.25355
52.1316 7.14006
52.3304 7.04798
52.5293 6.89624
52.7284 6.79614
52.9276 6.72587
53.1271 6.61001
53.3267 6.45894
53.5265 6.3461
53.7264 6.25596
53.9266 6.16469
54.1269 6.03971
54.3274 5.91363
54.528 5.75453
54.7289 5.6313
54.9301 5.42737
55.1314 5.37649
55.3328 5.07326
55.5344 4.90779
55.7361 4.84024

File: Ni3Fe_FD0715.xy
TT I
1.27165 7.42234
1.45013 5.84156
1.62863 5.10754
1.80712 5.20834
1.98562 4.22168
2.16411 4.67042
2.34263 4.95194
2.52115 7.36557
2.69965 7.91245
2.87818 8.7644
3.05672 10.5361
3.23527 15.1126
3.4138 18.6839
3.59237 23.0907
3.77094 25.983
3.9495 29.3663
4.12809 34.2545
4.30669 98.6567
4.4853 53.2969
4.6639 55.4267
4.84253 68.6843
5.02118 87.3139
5.19981 431.048
5.37848 199.371
5.55716 102.852
5.73586 93.2307
5.91455 96.1954
6.09328 4609.78
6.27201 80.5184
6.45075 69.8078
6.62952 62.8028
6.8083 59.344
6.98711 55.3584
7.16591 55.8939
7.34475 66.0663
7.5236 54.4874
7.70247 56.77
7.88135 57.4956
8.06026 62.5841
8.23919 69.3191
8.41812 83.881
8.59709 1253.97
8.77609 98.3128
8.9551 89.3868
9.13412 82.7923
9.31318 85.076
9.49226 84.9595
9.67134 95.4407
9.85047 101.821
10.0296 365.622
10.2088 359.546
10.388 105.915
10.5672 515.522
10.7465 86.3411
10.9257 77.8063
11.105 71.2722
11.2844 68.3783
11.4637 64.6347
11.6431 63.2829
11.8225 62.6319
12.002 64.4609
12.1814 156.418
12.3609 66.628
12.5405 64.7086
12.72 68.072
12.8996 71.6568
13.0792 80.8133
13.2589 250.54
13.4386 120.995
13.6183 260.066
13.7981 94.1206
13.9779 75.6874
14.1577 71.7623
14.3376 69.9833
14.5175 68.7793
14.6974 70.5762
14.8774 114.495
15.0574 139.579
15.2374 69.4098
15.4175 66.2048
15.5976 66.1278
15.7778 97.3238
15.958 148.348
16.1382 61.2683
16.3185 57.5984
16.4988 55.2287
16.6792 54.2384
16.8596 54.6916
17.04 55.849
17.2205 67.3872
17.401 69.7279
17.5815 59.17
17.7622 61.3665
17.9428 74.6802
18.1237 141.778
18.3044 91.59
18.4852 74.5856
18.666 60.0802
18.8469 58.0752
19.0278 56.6818
19.2088 59.4426
19.3898 75.9714
19.5709 53.9576
19.752 53.0631
19.9332 56.2171
20.1144 69.5513
20.2957 64.2248
20.477 52.7539
20.6586 49.4584
20.84 48.7055
21.0215 48.4491
21.203 50.7911
21.3846 48.7112
21.5662 48.8983
21.7479 52.9442
21.9297 64.958
22.1115 55.9965
22.2933 49.5722
22.4753 48.6265
22.6572 48.8836
22.8393 52.2423
23.0214 56.9889
23.2037 48.7562
23.3859 49.7581
23.5682 57.2489
23.7505 47.8004
23.9329 45.0829
24.1154 43.9582
24.2979 43.2406
24.4805 42.8635
24.6631 42.6217
24.8458 42.1684
25.0286 42.8764
25.2114 44.6122
25.3943 44.4026
25.5773 40.7331
25.7605 40.3504
25.9436 40.8598
26.1268 41.6602
26.31 39.9599
26.4933 40.6751
26.6767 42.11
26.8601 40.3225
27.0437 38.7543
27.2272 38.4923
27.4109 38.2567
27.5946 38.2952
27.7784 37.7756
27.9623 38.3661
28.1462 38.5633
28.3304 37.0346
28.5145 35.9217
28.6987 35.5584
28.8829 35.3538
29.0673 34.4939
29.2517 34.297
29.4361 34.1135
29.6207 33.1248
29.8053 32.8822
29.99 32.5584
30.1748 32.3423
30.3597 32.1594
30.5447 32.0809
30.7297 32.0825
30.915 31.5335
31.1002 31.0833
31.2855 30.8405
31.4708 30.6947
31.6563 30.2819
31.8418 30.065
32.0275 29.7756
32.2132 29.2382
32.399 28.8985
32.5848 28.3205
32.7708 28.0306
32.9569 27.954
33.143 27.7769
33.3293 27.3153
33.5158 26.97
33.7022 26.4872
33.8887 26.1934
34.0753 25.9353
34.262 25.4919
34.4488 25.2302
34.6357 25.0071
34.8227 24.6235
35.0098 24.4761
35.1969 24.0617
35.3842 23.8859
35.5716 23.6309
35.759 23.422
35.9468 23.041
36.1345 22.8186
36.3222 22.5772
36.5101 22.4007
36.6981 22.0214
36.8861 21.7848
37.0743 21.3252
37.2626 21.1822
37.451 20.8664
37.6395 20.7728
37.8281 20.3922
38.0168 20.1257
38.2056 19.8986
38.3945 19.6598
38.5837 19.4154
38.7728 19.1077
38.9621 18.9075
39.1514 18.6411
39.3409 18.3806
39.5304 18.1863
39.7201 18.0008
39.9099 17.7612
40.0999 17.5284
40.2899 17.2899
40.48 17.0426
40.6703 16.8545
40.8607 16.6993
41.0512 16.4322
41.242 16.2245
41.4327 15.9819
41.6236 15.7309
41.8146 15.605
42.0057 15.3741
42.1969 15.1951
42.3882 14.9971
42.5797 14.722
42.7713 14.5664
42.963 14.386
43.1549 14.1269
43.3468 13.989
43.5389 13.7582
43.7312 13.5924
43.9237 13.408
44.1162 13.2337
44.3088 13.0193
44.5016 12.8459
44.6945 12.715
44.8875 12.5177
45.0806 12.3142
45.2739 12.1385
45.4673 12.0032
45.6609 11.8087
45.8546 11.6461
46.0484 11.5046
46.2424 11.2761
46.4365 11.1723
46.631 10.9739
46.8254 10.8217
47.0199 10.6612
47.2146 10.5151
47.4095 10.3514
47.6044 10.2052
47.7996 10.0515
47.9948 9.89236
48.1902 9.76186
48.3858 9.64714
48.5815 9.47587
48.7774 9.33504
48.9734 9.205
49.1696 9.04922
49.3661 8.90788
49.5626 8.74669
49.7592 8.66763
49.956 8.5211
50.153 8.40066
50.3501 8.24054
50.5474 8.17534
50.7448 8.04785
50.9424 7.8919
51.1402 7.77175
51.3381 7.63852
51.5362 7.5134
51.7344 7.37752
51.9328 7.26699
52.1316 7.11076
52.3304 7.029
52.5293 6.96073
52.7284 6.85388
52.9276 6.67498
53.1271 6.60427
53.3267 6.52331
53.5265 6.37567
53.7264 6.25167
53.9266 6.11499
54.1269 6.02494
54.3274 5.94072
54.528 5.73124
54.7289 5.62027
54.9301 5.45804
55.1314 5.31291
55.3328 5.13763
55.5344 4.92131
55.7361 4.80655

File: Ni3Fe_FD0716.xy
TT I
1.27165 7.15452
1.45013 5.5609
1.62863 5.0455
1.80712 4.6983
1.98562 4.49413
2.16411 5.03409
2.34263 5.4785
2.52115 6.69147
2.69965 8.24146
2.87818 8.85024
3.05672 10.9381
3.23527 15.5313
3.4138 18.7325
3.59237 23.2756
3.77094 25.815
3.9495 29.2337
4.12809 34.3939
4.30669 101.516
4.4853 53.9567
4.6639 55.8298
4.84253 68.8328
5.02118 88.5518
5.19981 399.557
5.37848 200.586
5.55716 103.091
5.73586 93.4312
5.91455 96.1408
6.09328 4519.23
6.27201 80.9724
6.45075 69.6446
6.62952 62.6676
6.8083 58.9735
6.98711 55.8494
7.16591 56.2301
7.34475 66.7952
7.5236 54.1821
7.70247 56.815
7.88135 57.5358
8.06026 62.604
8.23919 69.9132
8.41812 84.2461
8.59709 1219.94
8.77609 98.5888
8.9551 89.3134
9.13412 82.8641
9.31318 84.7808
9.49226 85.2244
9.67134 95.3272
9.85047 101.836
10.0296 365.213
10.2088 389.898
10.388 105.572
10.5672 504.872
10.7465 86.4315
10.9257 78.1301
11.105 71.4642
11.2844 68.4848
11.4637 64.8243
11.6431 63.3839
11.8225 62.6504
12.002 64.6227
12.1814 154.292
12.3609 67.3452
12.5405 65.0491
12.72 67.871
12.8996 71.7459
13.0792 80.3133
13.2589 250.689
13.4386 124.077
13.6183 255.818
13.7981 96.4543
13.9779 76.0858
14.1577 72.066
14.3376 70.3847
14.5175 69.1071
14.6974 70.6102
14.8774 114.837
15.0574 144.715
15.2374 69.3286
15.4175 66.4901
15.5976 65.7743
15.7778 97.8586
15.958 152.156
16.1382 61.5343
16.3185 57.9743
16.4988 55.3367
16.6792 54.3469
16.8596 54.8687
17.04 55.9526
17.2205 67.4081
17.401 70.5349
17.5815 59.2812
17.7622 61.3256
17.9428 74.4179
18.1237 138.765
18.3044 91.6256
18.4852 75.9361
18.666 60.2815
18.8469 58.0126
19.0278 56.5831
19.2088 59.4554
19.3898 74.9927
19.5709 54.0967
19.752 53.3007
19.9332 56.369
20.1144 69.4227
20.2957 63.7445
20.477 53.1925
20.6586 49.5636
20.84 48.8196
21.0215 48.5668
21.203 50.8254
21.3846 48.9614
21.5662 48.9175
21.7479 52.9382
21.9297 64.5683
22.1115 55.933
22.2933 49.7378
22.4753 48.7344
22.6572 48.9601
22.8393 52.1988
23.0214 57.1144
23.2037 48.7222
23.3859 49.853
23.5682 56.912
23.7505 48.0579
23.9329 45.2313
24.1154 44.0158
24.2979 43.2633
24.4805 42.7728
24.6631 42.8511
24.8458 42.2014
25.0286 42.8528
25.2114 44.6336
25.3943 44.3796
25.5773 40.7203
25.7605 40.3185
25.9436 40.8136
26.1268 41.6393
26.31 40.1646
26.4933 40.6262
26.6767 42.1493
26.8601 40.3171
27.0437 38.8273
27.2272 38.5325
27.4109 38.5102
27.5946 38.4123
27.7784 37.9373
27.9623 38.3919
28.1462 38.7594
28.3304 37.1062
28.5145 35.91
28.6987 35.4674
28.8829 35.3434
29.0673 34.5408
29.2517 34.3849
29.4361 34.094
29.6207 33.1286
29.8053 32.8157
29.99 32.5295
30.1748 32.3699
30.3597 32.1888
30.5447 32.1825
30.7297 32.1728
30.915 31.5115
31.1002 31.0834
31.2855 30.8143
31.4708 30.7974
31.6563 30.3203
31.8418 30.158
32.0275 29.8877
32.2132 29.2851
32.399 28.9507
32.5848 28.505
32.7708 28.1119
32.9569 27.8913
33.143 27.749
33.3293 27.3597
33.5158 26.9379
33.7022 26.4669
33.8887 26.2689
34.0753 25.8473
34.262 25.5741
34.4488 25.2251
34.6357 24.9671
34.8227 24.6483
35.0098 24.4362
35.1969 24.1481
35.3842 23.8721
35.5716 23.6742
35.759 23.4343
35.9468 23.0596
36.1345 22.8773
36.3222 22.5915
36.5101 22.3518
36.6981 22.0037
36.8861 21.7566
37.0743 21.4843
37.2626 21.1802
37.451 20.9079
37.6395 20.8209
37.8281 20.4022
38.0168 20.1823
38.2056 19.9522
38.3945 19.6173
38.5837 19.4037
38.7728 19.1202
38.9621 18.9145
39.1514 18.6646
39.3409 18.3624
39.5304 18.1671
39.7201 17.9908
39.9099 17.7741
40.0999 17.5377
40.2899 17.2765
40.48 17.0719
40.6703 16.8867
40.8607 16.6924
41.0512 16.4292
41.242 16.1896
41.4327 16.0222
41.6236 15.8194
41.8146 15.6386
42.0057 15.4053
42.1969 15.1926
42.3882 15.0091
42.5797 14.8238
42.7713 14.6065
42.963 14.408
43.1549 14.1786
43.3468 13.9471
43.5389 13.8238
43.7312 13.5749
43.9237 13.4825
44.1162 13.2327
44.3088 12.9782
44.5016 12.8854
44.6945 12.7487
44.8875 12.5149
45.0806 12.3369
45.2739 12.1388
45.4673 12.0275
45.6609 11.8198
45.8546 11.6837
46.0484 11.4691
46.2424 11.3062
46.4365 11.1483
46.631 10.9873
46.8254 10.8569
47.0199 10.6837
47.2146 10.5455
47.4095 10.3653
47.6044 10.1876
47.7996 10.0781
47.9948 9.93634
48.1902 9.73197
48.3858 9.67658
48.5815 9.53938
48.7774 9.38153
48.9734 9.24054
49.1696 9.07081
49.3661 8.92045
49.5626 8.78447
49.7592 8.65911
49.956 8.5811
50.153 8.39672
50.3501 8.23968
50.5474 8.15108
50.7448 8.0144
50.9424 7.90968
51.1402 7.7917
51.3381 7.6432
51.5362 7.51768
51.7344 7.37137
51.9328 7.2818
52.1316 7.17447
52.3304 7.05706
52.5293 6.94426
52.7284 6.81453
52.9276 6.71439
53.1271 6.60754
53.3267 6.51304
53.5265 6.35373
53.7264 6.2436
53.9266 6.14789
54.1269 6.05708
54.3274 5.95259
54.528 5.80175
54.7289 5.65947
54.9301 5.44136
55.1314 5.35166
55.3328 5.1208
55.5344 4.96222
55.7361 4.85543