Folder: NiFe_MOF_catalyst_paper/XRD (part 188)

File: Ni3Fe_FD1016.xy
TT I
1.27165 6.81451
1.45013 5.58134
1.62863 4.81696
1.80712 4.16193
1.98562 4.49373
2.16411 4.22968
2.34263 5.7149
2.52115 7.36937
2.69965 8.98011
2.87818 8.6084
3.05672 10.9414
3.23527 15.0488
3.4138 17.993
3.59237 21.6101
3.77094 24.5489
3.9495 28.0012
4.12809 32.0707
4.30669 59.0582
4.4853 45.8862
4.6639 52.2044
4.84253 63.1778
5.02118 82.1139
5.19981 224.556
5.37848 241.355
5.55716 97.0
5.73586 86.8395
5.91455 87.233
6.09328 4340.03
6.27201 75.3979
6.45075 63.0251
6.62952 57.4843
6.8083 53.8107
6.98711 51.8195
7.16591 51.39
7.34475 56.6523
7.5236 63.153
7.70247 52.5872
7.88135 54.4222
8.06026 58.2044
8.23919 64.9161
8.41812 76.5665
8.59709 1042.56
8.77609 94.6531
8.9551 81.596
9.13412 78.5144
9.31318 95.632
9.49226 80.1255
9.67134 85.7697
9.85047 92.8379
10.0296 310.518
10.2088 458.764
10.388 96.394
10.5672 489.89
10.7465 87.912
10.9257 72.6864
11.105 67.4228
11.2844 64.0458
11.4637 61.0324
11.6431 59.8421
11.8225 59.1042
12.002 69.7764
12.1814 141.566
12.3609 63.8479
12.5405 60.6678
12.72 63.1151
12.8996 66.6639
13.0792 75.9006
13.2589 216.801
13.4386 127.471
13.6183 227.793
13.7981 99.6154
13.9779 72.63
14.1577 78.5602
14.3376 66.465
14.5175 65.6985
14.6974 66.5226
14.8774 104.208
15.0574 158.28
15.2374 65.8017
15.4175 63.2075
15.5976 62.5856
15.7778 89.2848
15.958 169.791
16.1382 59.7217
16.3185 55.0575
16.4988 52.6776
16.6792 51.8791
16.8596 52.0089
17.04 52.9968
17.2205 63.1121
17.401 71.1539
17.5815 56.3488
17.7622 59.3765
17.9428 70.3674
18.1237 140.096
18.3044 86.8118
18.4852 78.3883
18.666 58.1844
18.8469 55.74
19.0278 54.4633
19.2088 56.5294
19.3898 75.8204
19.5709 52.3515
19.752 51.251
19.9332 53.818
20.1144 69.4505
20.2957 62.582
20.477 52.2318
20.6586 47.7085
20.84 47.4289
21.0215 46.739
21.203 48.7504
21.3846 47.3049
21.5662 46.8483
21.7479 50.579
21.9297 64.3089
22.1115 55.2921
22.2933 48.4663
22.4753 46.9126
22.6572 46.9752
22.8393 50.3235
23.0214 56.7552
23.2037 47.1842
23.3859 48.5369
23.5682 56.5785
23.7505 47.6118
23.9329 43.6887
24.1154 42.6198
24.2979 41.8903
24.4805 41.4223
24.6631 41.48
24.8458 40.7407
25.0286 41.4168
25.2114 43.6573
25.3943 43.9306
25.5773 39.6988
25.7605 38.9937
25.9436 39.4005
26.1268 40.7953
26.31 38.907
26.4933 39.4173
26.6767 41.3226
26.8601 39.5336
27.0437 37.8268
27.2272 37.4916
27.4109 37.3178
27.5946 37.4028
27.7784 36.7887
27.9623 37.4101
28.1462 38.0748
28.3304 36.3903
28.5145 34.9412
28.6987 34.7047
28.8829 34.3043
29.0673 33.6841
29.2517 33.3433
29.4361 33.1773
29.6207 32.1736
29.8053 31.8448
29.99 31.5593
30.1748 31.4112
30.3597 31.3509
30.5447 31.1406
30.7297 31.478
30.915 30.9056
31.1002 30.2412
31.2855 29.9821
31.4708 29.9855
31.6563 29.6491
31.8418 29.3604
32.0275 29.1724
32.2132 28.5722
32.399 28.1107
32.5848 27.782
32.7708 27.3226
32.9569 27.2284
33.143 27.0809
33.3293 26.6558
33.5158 26.2399
33.7022 25.7963
33.8887 25.5566
34.0753 25.2579
34.262 24.9734
34.4488 24.555
34.6357 24.2086
34.8227 24.0314
35.0098 23.7893
35.1969 23.4622
35.3842 23.3886
35.5716 23.1785
35.759 22.8878
35.9468 22.5429
36.1345 22.2567
36.3222 21.9797
36.5101 21.8084
36.6981 21.5265
36.8861 21.2157
37.0743 20.8763
37.2626 20.6414
37.451 20.3715
37.6395 20.2518
37.8281 19.9991
38.0168 19.585
38.2056 19.4183
38.3945 19.1084
38.5837 18.8584
38.7728 18.6637
38.9621 18.3864
39.1514 18.1369
39.3409 17.9509
39.5304 17.7558
39.7201 17.599
39.9099 17.2801
40.0999 17.1019
40.2899 16.8936
40.48 16.6586
40.6703 16.4189
40.8607 16.2273
41.0512 16.0891
41.242 15.8549
41.4327 15.5955
41.6236 15.4152
41.8146 15.2002
42.0057 14.9657
42.1969 14.785
42.3882 14.5886
42.5797 14.4034
42.7713 14.2003
42.963 14.0226
43.1549 13.8194
43.3468 13.5739
43.5389 13.4644
43.7312 13.2447
43.9237 13.0299
44.1162 12.8985
44.3088 12.719
44.5016 12.5301
44.6945 12.3581
44.8875 12.2332
45.0806 11.9885
45.2739 11.8856
45.4673 11.7091
45.6609 11.5163
45.8546 11.3533
46.0484 11.1909
46.2424 11.018
46.4365 10.9169
46.631 10.7337
46.8254 10.5671
47.0199 10.4439
47.2146 10.2556
47.4095 10.0602
47.6044 9.9274
47.7996 9.78516
47.9948 9.67239
48.1902 9.54316
48.3858 9.42202
48.5815 9.23359
48.7774 9.12622
48.9734 9.01431
49.1696 8.83118
49.3661 8.70718
49.5626 8.55147
49.7592 8.45465
49.956 8.32869
50.153 8.22362
50.3501 8.09181
50.5474 7.94919
50.7448 7.81743
50.9424 7.71474
51.1402 7.56417
51.3381 7.48002
51.5362 7.33691
51.7344 7.25326
51.9328 7.07455
52.1316 6.98219
52.3304 6.87251
52.5293 6.74085
52.7284 6.67923
52.9276 6.51106
53.1271 6.48858
53.3267 6.31636
53.5265 6.22293
53.7264 6.09417
53.9266 6.04627
54.1269 5.85896
54.3274 5.82416
54.528 5.65192
54.7289 5.54376
54.9301 5.28359
55.1314 5.18473
55.3328 5.00172
55.5344 4.86354
55.7361 4.66798

File: Ni3Fe_FD1017.xy
TT I
1.27165 7.25779
1.45013 5.63395
1.62863 4.27008
1.80712 4.39228
1.98562 4.59404
2.16411 4.02178
2.34263 5.6028
2.52115 7.01093
2.69965 8.24718
2.87818 9.45804
3.05672 11.1253
3.23527 15.0906
3.4138 18.4229
3.59237 21.4446
3.77094 24.4002
3.9495 28.3228
4.12809 32.3192
4.30669 58.4492
4.4853 45.9889
4.6639 51.8506
4.84253 63.4504
5.02118 81.9048
5.19981 223.749
5.37848 240.611
5.55716 96.5195
5.73586 86.6646
5.91455 87.3969
6.09328 4329.12
6.27201 75.6321
6.45075 62.7727
6.62952 57.3385
6.8083 53.737
6.98711 51.7453
7.16591 51.2499
7.34475 56.2449
7.5236 62.619
7.70247 52.4724
7.88135 54.0668
8.06026 58.2437
8.23919 64.9256
8.41812 76.5622
8.59709 1041.93
8.77609 94.58
8.9551 81.7073
9.13412 78.1861
9.31318 95.3877
9.49226 80.0476
9.67134 85.0989
9.85047 92.7949
10.0296 312.501
10.2088 461.438
10.388 96.1372
10.5672 487.743
10.7465 87.7207
10.9257 72.8087
11.105 67.2031
11.2844 63.9936
11.4637 61.1767
11.6431 59.8087
11.8225 59.1275
12.002 69.4369
12.1814 142.444
12.3609 63.9393
12.5405 60.446
12.72 62.8961
12.8996 66.973
13.0792 75.8497
13.2589 216.938
13.4386 127.908
13.6183 227.411
13.7981 100.349
13.9779 72.7633
14.1577 78.0811
14.3376 66.6591
14.5175 65.4499
14.6974 66.2485
14.8774 104.272
15.0574 159.373
15.2374 65.6975
15.4175 63.0809
15.5976 62.3314
15.7778 89.7621
15.958 169.666
16.1382 60.0329
16.3185 55.0006
16.4988 52.4973
16.6792 51.7485
16.8596 52.2391
17.04 53.3617
17.2205 63.1776
17.401 71.0535
17.5815 56.4163
17.7622 59.3924
17.9428 70.5857
18.1237 140.525
18.3044 87.0467
18.4852 78.7857
18.666 58.1992
18.8469 55.8632
19.0278 54.2761
19.2088 56.7955
19.3898 75.8722
19.5709 52.3586
19.752 51.1378
19.9332 54.0241
20.1144 69.5104
20.2957 62.475
20.477 52.4058
20.6586 47.6459
20.84 47.4576
21.0215 46.7937
21.203 48.871
21.3846 47.356
21.5662 46.8659
21.7479 50.5934
21.9297 64.7077
22.1115 55.4096
22.2933 48.5672
22.4753 46.9237
22.6572 46.9067
22.8393 50.1691
23.0214 57.0525
23.2037 47.1498
23.3859 48.4916
23.5682 56.5752
23.7505 47.6916
23.9329 43.7456
24.1154 42.6182
24.2979 41.76
24.4805 41.5631
24.6631 41.4854
24.8458 40.6892
25.0286 41.3992
25.2114 43.6821
25.3943 43.9475
25.5773 39.6586
25.7605 39.1011
25.9436 39.5037
26.1268 40.6376
26.31 38.8123
26.4933 39.4641
26.6767 41.3642
26.8601 39.6021
27.0437 37.788
27.2272 37.2123
27.4109 37.3274
27.5946 37.3756
27.7784 36.8748
27.9623 37.5543
28.1462 38.0989
28.3304 36.4284
28.5145 34.9757
28.6987 34.5471
28.8829 34.2812
29.0673 33.7103
29.2517 33.1732
29.4361 33.196
29.6207 32.2089
29.8053 31.9504
29.99 31.5464
30.1748 31.4788
30.3597 31.3718
30.5447 31.2649
30.7297 31.4616
30.915 30.8134
31.1002 30.2996
31.2855 30.0575
31.4708 30.0288
31.6563 29.5311
31.8418 29.3054
32.0275 29.1762
32.2132 28.5728
32.399 28.1687
32.5848 27.7427
32.7708 27.3792
32.9569 27.2847
33.143 27.0593
33.3293 26.7423
33.5158 26.2285
33.7022 25.9024
33.8887 25.6199
34.0753 25.2172
34.262 24.9155
34.4488 24.605
34.6357 24.2335
34.8227 24.0321
35.0098 23.7928
35.1969 23.5073
35.3842 23.3965
35.5716 23.1644
35.759 22.861
35.9468 22.4792
36.1345 22.3126
36.3222 22.0443
36.5101 21.9275
36.6981 21.614
36.8861 21.1972
37.0743 20.8956
37.2626 20.6579
37.451 20.4758
37.6395 20.33
37.8281 19.926
38.0168 19.6242
38.2056 19.4384
38.3945 19.1372
38.5837 18.9255
38.7728 18.6264
38.9621 18.369
39.1514 18.1594
39.3409 17.9604
39.5304 17.7533
39.7201 17.5689
39.9099 17.335
40.0999 17.1117
40.2899 16.9243
40.48 16.691
40.6703 16.4582
40.8607 16.3203
41.0512 16.0669
41.242 15.7611
41.4327 15.6593
41.6236 15.4545
41.8146 15.2346
42.0057 15.0235
42.1969 14.7256
42.3882 14.6598
42.5797 14.4098
42.7713 14.2136
42.963 13.9936
43.1549 13.7867
43.3468 13.6187
43.5389 13.4216
43.7312 13.278
43.9237 13.0808
44.1162 12.9326
44.3088 12.7324
44.5016 12.5127
44.6945 12.4102
44.8875 12.2064
45.0806 12.0632
45.2739 11.8451
45.4673 11.7279
45.6609 11.5208
45.8546 11.394
46.0484 11.257
46.2424 11.019
46.4365 10.8987
46.631 10.7238
46.8254 10.5817
47.0199 10.3958
47.2146 10.2673
47.4095 10.1092
47.6044 9.97062
47.7996 9.83124
47.9948 9.66739
48.1902 9.5416
48.3858 9.36035
48.5815 9.26224
48.7774 9.15737
48.9734 8.9992
49.1696 8.86329
49.3661 8.69172
49.5626 8.57853
49.7592 8.41486
49.956 8.32754
50.153 8.18781
50.3501 8.08268
50.5474 7.98374
50.7448 7.83509
50.9424 7.7137
51.1402 7.57133
51.3381 7.47066
51.5362 7.33455
51.7344 7.23628
51.9328 7.12878
52.1316 7.00249
52.3304 6.86291
52.5293 6.76831
52.7284 6.67056
52.9276 6.5604
53.1271 6.47468
53.3267 6.32699
53.5265 6.16372
53.7264 6.12331
53.9266 6.01259
54.1269 5.87563
54.3274 5.78186
54.528 5.67031
54.7289 5.51919
54.9301 5.32154
55.1314 5.22407
55.3328 5.02386
55.5344 4.84906
55.7361 4.68305

File: Ni3Fe_FD1018.xy
TT I
1.27165 7.32023
1.45013 6.06476
1.62863 5.09634
1.80712 4.21839
1.98562 3.65633
2.16411 4.02058
2.34263 5.10166
2.52115 7.17179
2.69965 8.75493
2.87818 8.96707
3.05672 10.8749
3.23527 14.733
3.4138 18.3409
3.59237 21.5242
3.77094 24.6219
3.9495 28.2497
4.12809 32.1386
4.30669 58.3914
4.4853 45.5026
4.6639 52.3361
4.84253 63.4733
5.02118 82.4724
5.19981 225.058
5.37848 238.192
5.55716 96.5549
5.73586 86.5191
5.91455 88.0297
6.09328 4333.15
6.27201 75.5356
6.45075 62.8238
6.62952 57.6083
6.8083 53.832
6.98711 52.1267
7.16591 51.2916
7.34475 56.1871
7.5236 62.1459
7.70247 52.6861
7.88135 54.1472
8.06026 58.5451
8.23919 64.6806
8.41812 76.4322
8.59709 1048.48
8.77609 94.6923
8.9551 81.588
9.13412 78.2273
9.31318 94.6127
9.49226 79.9144
9.67134 85.7089
9.85047 92.6871
10.0296 316.734
10.2088 455.132
10.388 96.4719
10.5672 489.5
10.7465 87.46
10.9257 72.5104
11.105 67.6797
11.2844 64.0638
11.4637 61.1291
11.6431 60.0177
11.8225 58.9977
12.002 69.0586
12.1814 142.89
12.3609 63.7853
12.5405 60.7023
12.72 63.2083
12.8996 66.8167
13.0792 76.1339
13.2589 217.929
13.4386 127.7
13.6183 228.266
13.7981 99.7089
13.9779 72.6395
14.1577 78.05
14.3376 66.3537
14.5175 65.5354
14.6974 66.2978
14.8774 104.587
15.0574 158.55
15.2374 65.6993
15.4175 63.4346
15.5976 62.6051
15.7778 90.1444
15.958 168.663
16.1382 59.7491
16.3185 54.919
16.4988 52.8326
16.6792 52.0477
16.8596 52.2764
17.04 53.3114
17.2205 63.3104
17.401 71.2276
17.5815 56.4422
17.7622 59.4486
17.9428 70.689
18.1237 140.627
18.3044 87.3087
18.4852 78.5737
18.666 58.1509
18.8469 55.7078
19.0278 54.4172
19.2088 57.0236
19.3898 75.9552
19.5709 52.5282
19.752 51.0716
19.9332 54.053
20.1144 69.4636
20.2957 62.6608
20.477 52.4523
20.6586 47.7931
20.84 47.392
21.0215 46.6453
21.203 48.8023
21.3846 47.3871
21.5662 46.8323
21.7479 50.7561
21.9297 64.3623
22.1115 55.4067
22.2933 48.6549
22.4753 46.9199
22.6572 46.9687
22.8393 50.195
23.0214 56.9622
23.2037 47.2009
23.3859 48.4862
23.5682 56.4346
23.7505 47.7808
23.9329 43.8632
24.1154 42.7478
24.2979 41.9515
24.4805 41.4339
24.6631 41.56
24.8458 40.8483
25.0286 41.2838
25.2114 43.6177
25.3943 43.9775
25.5773 39.7564
25.7605 39.2246
25.9436 39.4256
26.1268 40.8578
26.31 39.018
26.4933 39.5417
26.6767 41.3504
26.8601 39.5923
27.0437 37.7966
27.2272 37.3626
27.4109 37.31
27.5946 37.4716
27.7784 36.8228
27.9623 37.5751
28.1462 38.2146
28.3304 36.3662
28.5145 34.8744
28.6987 34.5719
28.8829 34.4685
29.0673 33.7125
29.2517 33.3052
29.4361 33.3704
29.6207 32.185
29.8053 31.8854
29.99 31.6905
30.1748 31.5071
30.3597 31.3508
30.5447 31.228
30.7297 31.358
30.915 30.8822
31.1002 30.3274
31.2855 30.0047
31.4708 29.9768
31.6563 29.6229
31.8418 29.373
32.0275 29.1554
32.2132 28.6068
32.399 28.1293
32.5848 27.6574
32.7708 27.4056
32.9569 27.3823
33.143 27.1772
33.3293 26.7148
33.5158 26.3136
33.7022 25.8507
33.8887 25.6362
34.0753 25.2359
34.262 25.015
34.4488 24.5719
34.6357 24.3016
34.8227 24.0091
35.0098 23.7324
35.1969 23.5326
35.3842 23.3145
35.5716 23.2233
35.759 22.8352
35.9468 22.5125
36.1345 22.3214
36.3222 22.0982
36.5101 21.8279
36.6981 21.5846
36.8861 21.2471
37.0743 20.9956
37.2626 20.6786
37.451 20.3579
37.6395 20.25
37.8281 19.9106
38.0168 19.6641
38.2056 19.4539
38.3945 19.1684
38.5837 18.946
38.7728 18.7441
38.9621 18.4669
39.1514 18.2045
39.3409 17.9651
39.5304 17.7385
39.7201 17.5881
39.9099 17.3557
40.0999 17.133
40.2899 16.8943
40.48 16.6979
40.6703 16.4755
40.8607 16.2885
41.0512 16.1
41.242 15.771
41.4327 15.6505
41.6236 15.4082
41.8146 15.2153
42.0057 15.0263
42.1969 14.8447
42.3882 14.6514
42.5797 14.4211
42.7713 14.2069
42.963 14.0664
43.1549 13.8654
43.3468 13.65
43.5389 13.4306
43.7312 13.2606
43.9237 13.1081
44.1162 12.8928
44.3088 12.7345
44.5016 12.5691
44.6945 12.371
44.8875 12.2047
45.0806 12.039
45.2739 11.8904
45.4673 11.7355
45.6609 11.5403
45.8546 11.3951
46.0484 11.2013
46.2424 11.0413
46.4365 10.9059
46.631 10.703
46.8254 10.5623
47.0199 10.4479
47.2146 10.2776
47.4095 10.1358
47.6044 9.96883
47.7996 9.80801
47.9948 9.68502
48.1902 9.54124
48.3858 9.40281
48.5815 9.27339
48.7774 9.13241
48.9734 8.95311
49.1696 8.88924
49.3661 8.72023
49.5626 8.54982
49.7592 8.45223
49.956 8.34609
50.153 8.24161
50.3501 8.05541
50.5474 7.95241
50.7448 7.84524
50.9424 7.72215
51.1402 7.58332
51.3381 7.46604
51.5362 7.35757
51.7344 7.19664
51.9328 7.10869
52.1316 6.97136
52.3304 6.87939
52.5293 6.73987
52.7284 6.63397
52.9276 6.56174
53.1271 6.44142
53.3267 6.32537
53.5265 6.20697
53.7264 6.0993
53.9266 5.97919
54.1269 5.93896
54.3274 5.76777
54.528 5.68912
54.7289 5.51797
54.9301 5.32061
55.1314 5.21673
55.3328 5.00414
55.5344 4.84567
55.7361 4.68512

File: Ni3Fe_FD1019.xy
TT I
1.27165 6.57696
1.45013 5.53632
1.62863 5.22142
1.80712 4.15656
1.98562 4.40276
2.16411 3.95024
2.34263 5.08767
2.52115 6.82246
2.69965 8.56089
2.87818 8.76176
3.05672 10.7561
3.23527 14.7874
3.4138 18.1526
3.59237 21.3595
3.77094 24.8631
3.9495 28.0482
4.12809 32.2092
4.30669 58.101
4.4853 46.3006
4.6639 51.9969
4.84253 62.9022
5.02118 82.0808
5.19981 224.13
5.37848 236.046
5.55716 96.6833
5.73586 86.5663
5.91455 87.6879
6.09328 4315.49
6.27201 75.4465
6.45075 62.7367
6.62952 57.2097
6.8083 53.781
6.98711 51.9975
7.16591 51.2465
7.34475 56.1207
7.5236 62.1357
7.70247 52.8437
7.88135 54.2203
8.06026 58.237
8.23919 64.9799
8.41812 76.4541
8.59709 1045.79
8.77609 94.763
8.9551 81.4977
9.13412 78.4728
9.31318 94.5519
9.49226 79.9774
9.67134 85.664
9.85047 92.5493
10.0296 318.754
10.2088 456.526
10.388 96.263
10.5672 490.125
10.7465 87.3496
10.9257 72.6918
11.105 67.2987
11.2844 64.137
11.4637 61.1473
11.6431 59.947
11.8225 58.7951
12.002 69.1792
12.1814 143.102
12.3609 63.9072
12.5405 60.6928
12.72 63.2485
12.8996 66.9003
13.0792 75.9579
13.2589 217.888
13.4386 127.67
13.6183 228.424
13.7981 99.787
13.9779 72.938
14.1577 77.5449
14.3376 66.5043
14.5175 65.4926
14.6974 66.592
14.8774 104.941
15.0574 159.204
15.2374 65.8384
15.4175 63.3364
15.5976 62.5116
15.7778 90.1136
15.958 168.473
16.1382 59.7178
16.3185 54.8678
16.4988 52.7121
16.6792 51.9854
16.8596 52.3274
17.04 53.1811
17.2205 63.3309
17.401 71.2745
17.5815 56.501
17.7622 59.4467
17.9428 71.2145
18.1237 140.416
18.3044 87.2794
18.4852 78.6927
18.666 58.3339
18.8469 55.6668
19.0278 54.4312
19.2088 56.9665
19.3898 75.4913
19.5709 52.369
19.752 51.135
19.9332 54.1324
20.1144 69.5304
20.2957 62.5896
20.477 52.4787
20.6586 47.7546
20.84 47.4666
21.0215 46.8601
21.203 48.8667
21.3846 47.5168
21.5662 47.0036
21.7479 50.7429
21.9297 64.6083
22.1115 55.4487
22.2933 48.4472
22.4753 46.8487
22.6572 46.9304
22.8393 50.4092
23.0214 57.0789
23.2037 47.2791
23.3859 48.5799
23.5682 56.4956
23.7505 47.7096
23.9329 43.7354
24.1154 42.5325
24.2979 41.9807
24.4805 41.4566
24.6631 41.6909
24.8458 40.8603
25.0286 41.4758
25.2114 43.6679
25.3943 43.9744
25.5773 39.8321
25.7605 39.059
25.9436 39.5484
26.1268 40.9531
26.31 38.8395
26.4933 39.4672
26.6767 41.6175
26.8601 39.5999
27.0437 37.9796
27.2272 37.4716
27.4109 37.3007
27.5946 37.4798
27.7784 36.9297
27.9623 37.5349
28.1462 38.3565
28.3304 36.4294
28.5145 34.9425
28.6987 34.5925
28.8829 34.4492
29.0673 33.7223
29.2517 33.3224
29.4361 33.288
29.6207 32.1524
29.8053 31.9438
29.99 31.6478
30.1748 31.5391
30.3597 31.4018
30.5447 31.2965
30.7297 31.5154
30.915 30.8641
31.1002 30.3369
31.2855 30.0815
31.4708 30.0322
31.6563 29.6743
31.8418 29.4427
32.0275 29.1553
32.2132 28.6492
32.399 28.2125
32.5848 27.6758
32.7708 27.4101
32.9569 27.2461
33.143 27.13
33.3293 26.6457
33.5158 26.3524
33.7022 25.9336
33.8887 25.6136
34.0753 25.2489
34.262 24.9503
34.4488 24.6142
34.6357 24.2284
34.8227 23.9814
35.0098 23.8063
35.1969 23.5608
35.3842 23.3386
35.5716 23.196
35.759 22.8757
35.9468 22.4793
36.1345 22.2976
36.3222 22.0015
36.5101 21.8525
36.6981 21.5193
36.8861 21.222
37.0743 20.9302
37.2626 20.7673
37.451 20.3079
37.6395 20.2818
37.8281 19.8732
38.0168 19.6353
38.2056 19.4241
38.3945 19.1259
38.5837 19.0104
38.7728 18.745
38.9621 18.4815
39.1514 18.1573
39.3409 17.9621
39.5304 17.7517
39.7201 17.6232
39.9099 17.3532
40.0999 17.0544
40.2899 16.8575
40.48 16.6573
40.6703 16.4902
40.8607 16.2822
41.0512 16.0847
41.242 15.8262
41.4327 15.6439
41.6236 15.4338
41.8146 15.1933
42.0057 14.9992
42.1969 14.831
42.3882 14.6796
42.5797 14.4465
42.7713 14.2293
42.963 14.0717
43.1549 13.8761
43.3468 13.6381
43.5389 13.4446
43.7312 13.2969
43.9237 13.0694
44.1162 12.8829
44.3088 12.8034
44.5016 12.5308
44.6945 12.3806
44.8875 12.2471
45.0806 12.0651
45.2739 11.8907
45.4673 11.7158
45.6609 11.5038
45.8546 11.422
46.0484 11.1802
46.2424 11.0773
46.4365 10.8952
46.631 10.727
46.8254 10.6038
47.0199 10.4166
47.2146 10.2725
47.4095 10.1123
47.6044 9.97978
47.7996 9.84753
47.9948 9.66818
48.1902 9.54851
48.3858 9.45959
48.5815 9.26854
48.7774 9.14648
48.9734 9.02286
49.1696 8.85882
49.3661 8.74272
49.5626 8.60915
49.7592 8.45277
49.956 8.34711
50.153 8.22241
50.3501 8.05078
50.5474 7.95079
50.7448 7.81509
50.9424 7.73034
51.1402 7.59598
51.3381 7.45875
51.5362 7.36757
51.7344 7.24386
51.9328 7.12954
52.1316 6.96471
52.3304 6.90204
52.5293 6.77826
52.7284 6.66747
52.9276 6.50444
53.1271 6.45472
53.3267 6.31525
53.5265 6.21975
53.7264 6.13
53.9266 6.00441
54.1269 5.88422
54.3274 5.76969
54.528 5.65804
54.7289 5.50258
54.9301 5.34424
55.1314 5.19165
55.3328 5.02501
55.5344 4.87885
55.7361 4.65216

File: Ni3Fe_FD1020.xy
TT I
1.27165 6.89653
1.45013 5.62734
1.62863 4.91641
1.80712 4.35458
1.98562 4.69522
2.16411 4.58039
2.34263 5.59377
2.52115 7.41922
2.69965 8.64398
2.87818 9.01155
3.05672 10.9593
3.23527 14.7217
3.4138 17.8847
3.59237 21.5821
3.77094 24.5723
3.9495 27.8834
4.12809 31.7912
4.30669 58.0941
4.4853 45.8398
4.6639 52.7605
4.84253 63.1863
5.02118 81.9697
5.19981 227.034
5.37848 233.946
5.55716 96.7574
5.73586 87.3725
5.91455 88.0194
6.09328 4334.56
6.27201 75.5602
6.45075 63.1852
6.62952 57.6131
6.8083 54.1224
6.98711 51.8408
7.16591 51.223
7.34475 56.3131
7.5236 61.9332
7.70247 52.5816
7.88135 54.698
8.06026 58.3643
8.23919 65.3557
8.41812 77.1054
8.59709 1054.7
8.77609 94.9746
8.9551 81.8761
9.13412 78.4685
9.31318 94.0267
9.49226 80.2868
9.67134 85.7845
9.85047 92.7288
10.0296 322.021
10.2088 450.936
10.388 96.8437
10.5672 490.62
10.7465 87.4419
10.9257 72.6327
11.105 67.4553
11.2844 64.2564
11.4637 61.1984
11.6431 59.8029
11.8225 59.3446
12.002 68.6917
12.1814 142.955
12.3609 63.8327
12.5405 60.8595
12.72 63.1264
12.8996 66.9466
13.0792 76.1811
13.2589 219.431
13.4386 126.751
13.6183 229.546
13.7981 99.5585
13.9779 72.7039
14.1577 77.4315
14.3376 66.6293
14.5175 65.6228
14.6974 66.7017
14.8774 105.495
15.0574 157.78
15.2374 65.7925
15.4175 63.2808
15.5976 62.7247
15.7778 90.6023
15.958 167.796
16.1382 59.7699
16.3185 55.1661
16.4988 52.9963
16.6792 52.089
16.8596 52.4489
17.04 53.2416
17.2205 63.4658
17.401 70.8411
17.5815 56.5541
17.7622 59.7223
17.9428 71.1683
18.1237 140.545
18.3044 87.3213
18.4852 78.3715
18.666 58.3331
18.8469 55.984
19.0278 54.4212
19.2088 56.9855
19.3898 75.8677
19.5709 52.3606
19.752 51.2344
19.9332 54.163
20.1144 69.6276
20.2957 62.5225
20.477 52.464
20.6586 47.7161
20.84 47.6357
21.0215 46.8197
21.203 48.9055
21.3846 47.4872
21.5662 47.0644
21.7479 50.911
21.9297 64.7479
22.1115 55.4105
22.2933 48.476
22.4753 47.0122
22.6572 47.0812
22.8393 50.3207
23.0214 57.008
23.2037 47.3334
23.3859 48.6736
23.5682 56.5583
23.7505 47.8388
23.9329 43.6538
24.1154 42.7648
24.2979 42.0753
24.4805 41.6098
24.6631 41.6352
24.8458 40.7886
25.0286 41.5247
25.2114 43.7693
25.3943 43.9653
25.5773 39.6184
25.7605 39.2457
25.9436 39.6886
26.1268 40.9299
26.31 38.9605
26.4933 39.5795
26.6767 41.5272
26.8601 39.6307
27.0437 37.8869
27.2272 37.3295
27.4109 37.2515
27.5946 37.5096
27.7784 36.947
27.9623 37.4447
28.1462 38.2813
28.3304 36.4146
28.5145 35.0041
28.6987 34.6384
28.8829 34.4578
29.0673 33.8341
29.2517 33.4101
29.4361 33.4004
29.6207 32.2708
29.8053 31.8401
29.99 31.6693
30.1748 31.5758
30.3597 31.3792
30.5447 31.2777
30.7297 31.4396
30.915 30.8223
31.1002 30.4004
31.2855 29.9955
31.4708 30.1849
31.6563 29.6544
31.8418 29.3909
32.0275 29.3158
32.2132 28.6201
32.399 28.2105
32.5848 27.8232
32.7708 27.5169
32.9569 27.2706
33.143 27.1382
33.3293 26.766
33.5158 26.3244
33.7022 25.9028
33.8887 25.6561
34.0753 25.2633
34.262 25.0159
34.4488 24.7005
34.6357 24.3189
34.8227 24.0576
35.0098 23.8033
35.1969 23.5931
35.3842 23.4884
35.5716 23.2094
35.759 22.8592
35.9468 22.454
36.1345 22.3948
36.3222 22.0368
36.5101 21.8582
36.6981 21.5824
36.8861 21.256
37.0743 20.9607
37.2626 20.7109
37.451 20.4701
37.6395 20.3389
37.8281 20.0081
38.0168 19.7068
38.2056 19.4063
38.3945 19.1477
38.5837 18.9369
38.7728 18.709
38.9621 18.4565
39.1514 18.2454
39.3409 18.0238
39.5304 17.7897
39.7201 17.6044
39.9099 17.412
40.0999 17.0684
40.2899 16.9372
40.48 16.6655
40.6703 16.5083
40.8607 16.2731
41.0512 16.1045
41.242 15.8197
41.4327 15.661
41.6236 15.4348
41.8146 15.2685
42.0057 15.0412
42.1969 14.8122
42.3882 14.6574
42.5797 14.4237
42.7713 14.2612
42.963 14.0038
43.1549 13.8733
43.3468 13.6394
43.5389 13.5314
43.7312 13.2703
43.9237 13.1319
44.1162 12.9154
44.3088 12.7482
44.5016 12.5411
44.6945 12.4358
44.8875 12.2097
45.0806 12.0395
45.2739 11.8962
45.4673 11.6594
45.6609 11.5728
45.8546 11.4338
46.0484 11.255
46.2424 11.0905
46.4365 10.9811
46.631 10.734
46.8254 10.5799
47.0199 10.437
47.2146 10.284
47.4095 10.095
47.6044 9.98775
47.7996 9.86246
47.9948 9.70076
48.1902 9.55405
48.3858 9.4431
48.5815 9.27818
48.7774 9.1835
48.9734 9.01932
49.1696 8.85434
49.3661 8.75492
49.5626 8.59744
49.7592 8.44239
49.956 8.3449
50.153 8.18611
50.3501 8.07636
50.5474 7.97592
50.7448 7.85411
50.9424 7.73964
51.1402 7.61582
51.3381 7.46139
51.5362 7.33862
51.7344 7.23213
51.9328 7.12112
52.1316 6.98982
52.3304 6.87272
52.5293 6.78641
52.7284 6.68949
52.9276 6.57474
53.1271 6.44557
53.3267 6.31185
53.5265 6.24494
53.7264 6.09658
53.9266 5.99641
54.1269 5.91632
54.3274 5.81007
54.528 5.62295
54.7289 5.49832
54.9301 5.33033
55.1314 5.21413
55.3328 5.0042
55.5344 4.8719
55.7361 4.73616