Folder: NiFe_MOF_catalyst_paper/XRD (part 200)

File: Ni3Fe_FD1080.xy
TT I
1.27165 7.37816
1.45013 6.1143
1.62863 4.77847
1.80712 4.29689
1.98562 4.23716
2.16411 4.12074
2.34263 5.02772
2.52115 7.62246
2.69965 8.64807
2.87818 8.81596
3.05672 11.029
3.23527 14.8939
3.4138 18.1476
3.59237 21.1185
3.77094 24.4749
3.9495 28.1142
4.12809 32.2601
4.30669 56.4583
4.4853 46.5565
4.6639 52.5098
4.84253 63.9449
5.02118 83.4009
5.19981 233.354
5.37848 203.504
5.55716 98.08
5.73586 87.8173
5.91455 89.0515
6.09328 4455.93
6.27201 75.9253
6.45075 63.5448
6.62952 58.2566
6.8083 54.7583
6.98711 52.6795
7.16591 51.6727
7.34475 56.0156
7.5236 57.9622
7.70247 53.1983
7.88135 55.2767
8.06026 59.1099
8.23919 65.8224
8.41812 78.1327
8.59709 1119.93
8.77609 95.0415
8.9551 82.591
9.13412 79.1126
9.31318 87.9118
9.49226 81.1192
9.67134 86.9382
9.85047 94.6007
10.0296 355.296
10.2088 438.783
10.388 98.1288
10.5672 515.672
10.7465 86.122
10.9257 73.6202
11.105 68.4447
11.2844 65.0114
11.4637 61.9399
11.6431 60.6186
11.8225 59.9411
12.002 65.9452
12.1814 147.534
12.3609 64.7077
12.5405 61.5169
12.72 64.1689
12.8996 68.1297
13.0792 76.6753
13.2589 231.912
13.4386 125.277
13.6183 238.441
13.7981 99.8707
13.9779 73.5362
14.1577 74.6463
14.3376 67.294
14.5175 66.5824
14.6974 67.4619
14.8774 111.238
15.0574 157.426
15.2374 66.5717
15.4175 64.4027
15.5976 63.5369
15.7778 95.4258
15.958 168.241
16.1382 59.7928
16.3185 55.7601
16.4988 53.6627
16.6792 52.8661
16.8596 52.9611
17.04 53.8504
17.2205 65.1519
17.401 71.8974
17.5815 57.5274
17.7622 59.9751
17.9428 73.7047
18.1237 142.35
18.3044 88.9958
18.4852 78.6406
18.666 59.0722
18.8469 56.5302
19.0278 55.3142
19.2088 58.3572
19.3898 75.957
19.5709 53.1882
19.752 51.694
19.9332 55.3931
20.1144 70.3554
20.2957 63.7575
20.477 52.676
20.6586 48.4682
20.84 47.999
21.0215 47.4925
21.203 49.5822
21.3846 47.9571
21.5662 47.6805
21.7479 51.9775
21.9297 65.3116
22.1115 55.8584
22.2933 49.1603
22.4753 47.7254
22.6572 47.6732
22.8393 51.4013
23.0214 57.3497
23.2037 47.8756
23.3859 49.4698
23.5682 57.1426
23.7505 48.1988
23.9329 44.4547
24.1154 43.3178
24.2979 42.3727
24.4805 42.0707
24.6631 42.1175
24.8458 41.2227
25.0286 42.1474
25.2114 44.2402
25.3943 44.3978
25.5773 40.2112
25.7605 39.7516
25.9436 40.1153
26.1268 41.3147
26.31 39.4063
26.4933 40.0215
26.6767 41.948
26.8601 40.1354
27.0437 38.4309
27.2272 37.9532
27.4109 37.8539
27.5946 38.0125
27.7784 37.2996
27.9623 37.9561
28.1462 38.5942
28.3304 36.8343
28.5145 35.4682
28.6987 35.0676
28.8829 34.8118
29.0673 34.2456
29.2517 33.8658
29.4361 33.6781
29.6207 32.62
29.8053 32.2438
29.99 32.1817
30.1748 31.9351
30.3597 31.8494
30.5447 31.7336
30.7297 31.7943
30.915 31.3797
31.1002 30.7223
31.2855 30.4786
31.4708 30.4267
31.6563 30.0532
31.8418 29.8564
32.0275 29.5887
32.2132 28.9678
32.399 28.6141
32.5848 28.1194
32.7708 27.7517
32.9569 27.6646
33.143 27.4655
33.3293 27.1599
33.5158 26.6017
33.7022 26.1631
33.8887 25.9628
34.0753 25.6939
34.262 25.2525
34.4488 24.9327
34.6357 24.605
34.8227 24.4231
35.0098 24.2112
35.1969 23.8523
35.3842 23.6935
35.5716 23.5802
35.759 23.1031
35.9468 22.7796
36.1345 22.5579
36.3222 22.2435
36.5101 22.1747
36.6981 21.8881
36.8861 21.5018
37.0743 21.2254
37.2626 20.9884
37.451 20.6847
37.6395 20.6222
37.8281 20.2701
38.0168 19.9179
38.2056 19.6614
38.3945 19.4037
38.5837 19.1859
38.7728 18.8855
38.9621 18.7236
39.1514 18.4332
39.3409 18.1458
39.5304 18.0295
39.7201 17.8374
39.9099 17.5905
40.0999 17.3903
40.2899 17.1353
40.48 16.8697
40.6703 16.6927
40.8607 16.5113
41.0512 16.3086
41.242 16.041
41.4327 15.8942
41.6236 15.6114
41.8146 15.4038
42.0057 15.2141
42.1969 14.9963
42.3882 14.7782
42.5797 14.6156
42.7713 14.4504
42.963 14.2405
43.1549 14.018
43.3468 13.8195
43.5389 13.682
43.7312 13.4451
43.9237 13.2537
44.1162 13.1227
44.3088 12.901
44.5016 12.708
44.6945 12.576
44.8875 12.4253
45.0806 12.2058
45.2739 12.0787
45.4673 11.8855
45.6609 11.6825
45.8546 11.5187
46.0484 11.3681
46.2424 11.2044
46.4365 11.089
46.631 10.8894
46.8254 10.7143
47.0199 10.5858
47.2146 10.4137
47.4095 10.2566
47.6044 10.1182
47.7996 10.0126
47.9948 9.78035
48.1902 9.65202
48.3858 9.53298
48.5815 9.39439
48.7774 9.24801
48.9734 9.0842
49.1696 8.99636
49.3661 8.86484
49.5626 8.70815
49.7592 8.5444
49.956 8.44916
50.153 8.29845
50.3501 8.19856
50.5474 8.03898
50.7448 7.96064
50.9424 7.80488
51.1402 7.68243
51.3381 7.56444
51.5362 7.44626
51.7344 7.34459
51.9328 7.21936
52.1316 7.08478
52.3304 6.96989
52.5293 6.84497
52.7284 6.70698
52.9276 6.59218
53.1271 6.53325
53.3267 6.40977
53.5265 6.29368
53.7264 6.19935
53.9266 6.10549
54.1269 5.97079
54.3274 5.85955
54.528 5.74495
54.7289 5.55938
54.9301 5.41996
55.1314 5.26889
55.3328 5.08204
55.5344 4.91746
55.7361 4.74627

File: Ni3Fe_FD1081.xy
TT I
1.27165 6.65262
1.45013 5.82825
1.62863 4.95444
1.80712 4.71282
1.98562 4.82657
2.16411 4.38116
2.34263 4.67823
2.52115 6.60578
2.69965 8.85665
2.87818 8.70181
3.05672 10.9778
3.23527 15.0518
3.4138 17.7794
3.59237 21.5027
3.77094 24.7078
3.9495 28.5021
4.12809 32.4641
4.30669 55.8905
4.4853 46.0514
4.6639 52.8335
4.84253 64.1548
5.02118 82.9591
5.19981 232.623
5.37848 203.798
5.55716 97.4539
5.73586 87.7541
5.91455 88.8252
6.09328 4460.42
6.27201 76.0507
6.45075 63.5892
6.62952 58.402
6.8083 54.6902
6.98711 52.4587
7.16591 51.961
7.34475 55.8085
7.5236 57.6035
7.70247 53.4163
7.88135 54.6079
8.06026 59.3519
8.23919 65.7779
8.41812 78.0134
8.59709 1120.95
8.77609 94.7439
8.9551 82.558
9.13412 78.946
9.31318 87.8662
9.49226 81.5075
9.67134 86.8802
9.85047 94.5265
10.0296 354.082
10.2088 440.665
10.388 97.7296
10.5672 517.015
10.7465 85.8303
10.9257 73.6286
11.105 68.5606
11.2844 64.788
11.4637 61.9921
11.6431 60.4993
11.8225 59.825
12.002 66.0048
12.1814 147.958
12.3609 64.6568
12.5405 61.572
12.72 63.9528
12.8996 67.8443
13.0792 76.6919
13.2589 232.073
13.4386 125.346
13.6183 238.022
13.7981 99.8463
13.9779 73.885
14.1577 74.6868
14.3376 67.2782
14.5175 66.5722
14.6974 67.4198
14.8774 111.289
15.0574 158.038
15.2374 66.4907
15.4175 64.3098
15.5976 63.6872
15.7778 95.4606
15.958 168.618
16.1382 60.0332
16.3185 55.6549
16.4988 53.49
16.6792 52.7454
16.8596 52.9625
17.04 53.6766
17.2205 65.1429
17.401 72.1109
17.5815 57.3078
17.7622 60.0313
17.9428 73.7372
18.1237 142.815
18.3044 89.1635
18.4852 78.8693
18.666 59.0143
18.8469 56.5797
19.0278 55.1388
19.2088 58.1886
19.3898 75.9388
19.5709 52.9365
19.752 51.8638
19.9332 55.4162
20.1144 70.4582
20.2957 63.764
20.477 52.6596
20.6586 48.5351
20.84 47.8246
21.0215 47.5085
21.203 49.6966
21.3846 47.9949
21.5662 47.6373
21.7479 52.0601
21.9297 65.4272
22.1115 55.9429
22.2933 48.992
22.4753 47.6209
22.6572 47.6381
22.8393 51.2078
23.0214 57.203
23.2037 47.7864
23.3859 49.5437
23.5682 57.2179
23.7505 48.3764
23.9329 44.4249
24.1154 43.2013
24.2979 42.4145
24.4805 42.1786
24.6631 42.1511
24.8458 41.4003
25.0286 42.0931
25.2114 44.2936
25.3943 44.4348
25.5773 40.2868
25.7605 39.7062
25.9436 40.2517
26.1268 41.4163
26.31 39.431
26.4933 40.0254
26.6767 41.9996
26.8601 40.1423
27.0437 38.3725
27.2272 37.9049
27.4109 37.8269
27.5946 38.0308
27.7784 37.3019
27.9623 38.0716
28.1462 38.6583
28.3304 36.8451
28.5145 35.3795
28.6987 35.1335
28.8829 34.9771
29.0673 34.3107
29.2517 33.7739
29.4361 33.7862
29.6207 32.6761
29.8053 32.2102
29.99 32.163
30.1748 31.929
30.3597 31.8162
30.5447 31.7601
30.7297 31.9548
30.915 31.2837
31.1002 30.7804
31.2855 30.4349
31.4708 30.5125
31.6563 30.0996
31.8418 29.7814
32.0275 29.6253
32.2132 29.0616
32.399 28.52
32.5848 28.1635
32.7708 27.8077
32.9569 27.5947
33.143 27.4507
33.3293 27.0421
33.5158 26.7098
33.7022 26.202
33.8887 26.0073
34.0753 25.5989
34.262 25.3063
34.4488 24.9985
34.6357 24.6303
34.8227 24.4117
35.0098 24.1891
35.1969 23.917
35.3842 23.6881
35.5716 23.473
35.759 23.139
35.9468 22.7663
36.1345 22.6074
36.3222 22.4074
36.5101 22.0992
36.6981 21.8084
36.8861 21.4741
37.0743 21.2621
37.2626 20.996
37.451 20.777
37.6395 20.5769
37.8281 20.253
38.0168 19.9161
38.2056 19.7528
38.3945 19.4173
38.5837 19.1884
38.7728 18.9648
38.9621 18.6992
39.1514 18.4299
39.3409 18.2257
39.5304 17.9475
39.7201 17.8668
39.9099 17.5647
40.0999 17.3483
40.2899 17.1118
40.48 16.8849
40.6703 16.6719
40.8607 16.5399
41.0512 16.2839
41.242 16.0285
41.4327 15.9029
41.6236 15.6123
41.8146 15.4354
42.0057 15.186
42.1969 15.014
42.3882 14.7681
42.5797 14.6047
42.7713 14.3752
42.963 14.2523
43.1549 14.0218
43.3468 13.7788
43.5389 13.6537
43.7312 13.451
43.9237 13.314
44.1162 13.096
44.3088 12.8591
44.5016 12.6787
44.6945 12.5467
44.8875 12.4306
45.0806 12.2133
45.2739 12.0376
45.4673 11.8958
45.6609 11.7257
45.8546 11.5355
46.0484 11.3471
46.2424 11.1935
46.4365 11.0639
46.631 10.8776
46.8254 10.704
47.0199 10.5725
47.2146 10.4558
47.4095 10.2177
47.6044 10.1369
47.7996 9.98272
47.9948 9.79634
48.1902 9.69687
48.3858 9.55476
48.5815 9.38851
48.7774 9.27968
48.9734 9.10711
49.1696 8.97907
49.3661 8.83394
49.5626 8.70851
49.7592 8.59901
49.956 8.44671
50.153 8.32977
50.3501 8.22101
50.5474 8.07263
50.7448 7.96473
50.9424 7.83021
51.1402 7.71872
51.3381 7.54139
51.5362 7.46752
51.7344 7.32923
51.9328 7.20528
52.1316 7.07466
52.3304 6.97915
52.5293 6.88048
52.7284 6.74098
52.9276 6.61259
53.1271 6.55767
53.3267 6.42271
53.5265 6.25443
53.7264 6.2043
53.9266 6.08947
54.1269 6.01627
54.3274 5.9322
54.528 5.75024
54.7289 5.57966
54.9301 5.46019
55.1314 5.27075
55.3328 5.11521
55.5344 4.94345
55.7361 4.73424

File: Ni3Fe_FD1082.xy
TT I
1.27165 6.71213
1.45013 5.88143
1.62863 4.30193
1.80712 4.18565
1.98562 4.21983
2.16411 4.4983
2.34263 5.00407
2.52115 7.31406
2.69965 8.74924
2.87818 9.36771
3.05672 11.3106
3.23527 14.6377
3.4138 17.9695
3.59237 21.0304
3.77094 24.5895
3.9495 28.0331
4.12809 32.572
4.30669 56.3166
4.4853 46.0801
4.6639 53.233
4.84253 64.2414
5.02118 83.0834
5.19981 233.3
5.37848 203.512
5.55716 97.5735
5.73586 87.8063
5.91455 89.1753
6.09328 4462.31
6.27201 76.0058
6.45075 63.6926
6.62952 58.1889
6.8083 54.6083
6.98711 52.8524
7.16591 51.971
7.34475 55.7766
7.5236 58.2159
7.70247 53.2461
7.88135 55.1563
8.06026 59.1544
8.23919 65.7165
8.41812 78.0088
8.59709 1121.38
8.77609 95.0808
8.9551 82.5419
9.13412 79.3477
9.31318 88.0437
9.49226 81.2721
9.67134 86.7122
9.85047 94.3279
10.0296 354.931
10.2088 438.997
10.388 98.0033
10.5672 515.385
10.7465 86.1933
10.9257 73.7399
11.105 68.1238
11.2844 65.0727
11.4637 62.175
11.6431 60.5578
11.8225 59.468
12.002 65.8586
12.1814 147.261
12.3609 64.734
12.5405 61.4059
12.72 64.2471
12.8996 67.9582
13.0792 76.5745
13.2589 232.024
13.4386 124.783
13.6183 238.045
13.7981 99.7356
13.9779 73.3764
14.1577 74.5522
14.3376 67.4265
14.5175 66.6261
14.6974 67.7816
14.8774 110.927
15.0574 157.869
15.2374 66.5604
15.4175 64.1564
15.5976 63.674
15.7778 95.6787
15.958 168.492
16.1382 59.9864
16.3185 55.7731
16.4988 53.5366
16.6792 52.7476
16.8596 53.0241
17.04 53.8416
17.2205 65.0246
17.401 71.9334
17.5815 57.3644
17.7622 60.1324
17.9428 73.8745
18.1237 142.654
18.3044 89.048
18.4852 78.6181
18.666 58.8436
18.8469 56.4677
19.0278 55.1181
19.2088 58.1452
19.3898 75.746
19.5709 53.0899
19.752 51.819
19.9332 55.4184
20.1144 70.4997
20.2957 63.655
20.477 52.8303
20.6586 48.5403
20.84 47.9105
21.0215 47.3904
21.203 49.5252
21.3846 48.0716
21.5662 47.4924
21.7479 51.9249
21.9297 65.3623
22.1115 56.0594
22.2933 49.0953
22.4753 47.5975
22.6572 47.729
22.8393 51.3745
23.0214 57.4612
23.2037 47.9502
23.3859 49.4173
23.5682 57.1279
23.7505 48.0952
23.9329 44.3998
24.1154 43.1804
24.2979 42.4849
24.4805 41.9429
24.6631 42.0383
24.8458 41.376
25.0286 42.042
25.2114 44.2269
25.3943 44.4199
25.5773 40.2924
25.7605 39.5872
25.9436 40.0688
26.1268 41.4737
26.31 39.3983
26.4933 40.1245
26.6767 42.0259
26.8601 40.1879
27.0437 38.3248
27.2272 38.078
27.4109 37.8916
27.5946 37.8879
27.7784 37.4851
27.9623 38.0867
28.1462 38.697
28.3304 36.8886
28.5145 35.45
28.6987 35.1546
28.8829 34.9137
29.0673 34.165
29.2517 33.9143
29.4361 33.7562
29.6207 32.6351
29.8053 32.3285
29.99 32.204
30.1748 32.0452
30.3597 31.7903
30.5447 31.7193
30.7297 31.8389
30.915 31.3277
31.1002 30.7291
31.2855 30.4904
31.4708 30.4949
31.6563 30.1741
31.8418 29.802
32.0275 29.6389
32.2132 29.0956
32.399 28.588
32.5848 28.031
32.7708 27.7569
32.9569 27.5653
33.143 27.578
33.3293 27.0857
33.5158 26.6117
33.7022 26.2226
33.8887 26.0092
34.0753 25.6062
34.262 25.2242
34.4488 24.9573
34.6357 24.6097
34.8227 24.3056
35.0098 24.0922
35.1969 23.9025
35.3842 23.6735
35.5716 23.488
35.759 23.103
35.9468 22.8214
36.1345 22.5738
36.3222 22.4125
36.5101 22.1533
36.6981 21.8726
36.8861 21.5442
37.0743 21.2581
37.2626 20.9566
37.451 20.6447
37.6395 20.5387
37.8281 20.1889
38.0168 19.9399
38.2056 19.6937
38.3945 19.4021
38.5837 19.1821
38.7728 18.9747
38.9621 18.6602
39.1514 18.4277
39.3409 18.23
39.5304 17.989
39.7201 17.7864
39.9099 17.6267
40.0999 17.3641
40.2899 17.1568
40.48 16.9021
40.6703 16.69
40.8607 16.4973
41.0512 16.3017
41.242 16.0199
41.4327 15.848
41.6236 15.6008
41.8146 15.4688
42.0057 15.2496
42.1969 15.0215
42.3882 14.831
42.5797 14.6297
42.7713 14.428
42.963 14.2023
43.1549 14.0216
43.3468 13.8436
43.5389 13.6612
43.7312 13.4478
43.9237 13.3049
44.1162 13.0555
44.3088 12.9295
44.5016 12.6966
44.6945 12.5427
44.8875 12.3723
45.0806 12.2399
45.2739 12.0552
45.4673 11.8853
45.6609 11.7165
45.8546 11.5231
46.0484 11.3469
46.2424 11.2355
46.4365 11.0086
46.631 10.8747
46.8254 10.6921
47.0199 10.55
47.2146 10.3692
47.4095 10.2361
47.6044 10.0832
47.7996 9.93334
47.9948 9.79913
48.1902 9.69233
48.3858 9.5617
48.5815 9.43824
48.7774 9.27894
48.9734 9.18301
49.1696 8.99147
49.3661 8.81408
49.5626 8.68506
49.7592 8.58472
49.956 8.45218
50.153 8.30917
50.3501 8.18489
50.5474 8.07928
50.7448 7.95297
50.9424 7.82705
51.1402 7.69036
51.3381 7.56681
51.5362 7.4326
51.7344 7.31053
51.9328 7.20033
52.1316 7.09011
52.3304 6.92747
52.5293 6.85627
52.7284 6.79262
52.9276 6.59844
53.1271 6.52985
53.3267 6.4155
53.5265 6.29535
53.7264 6.1985
53.9266 6.06548
54.1269 5.94054
54.3274 5.85411
54.528 5.72816
54.7289 5.5803
54.9301 5.42715
55.1314 5.29221
55.3328 5.07475
55.5344 4.90478
55.7361 4.80457

File: Ni3Fe_FD1083.xy
TT I
1.27165 7.16347
1.45013 6.33514
1.62863 5.2065
1.80712 4.69623
1.98562 4.56247
2.16411 4.04526
2.34263 5.26808
2.52115 7.7864
2.69965 8.27944
2.87818 8.30623
3.05672 11.0908
3.23527 14.7212
3.4138 18.0456
3.59237 21.4248
3.77094 24.6667
3.9495 28.136
4.12809 32.6788
4.30669 56.255
4.4853 46.0356
4.6639 52.7741
4.84253 63.8458
5.02118 83.1396
5.19981 231.132
5.37848 203.11
5.55716 97.5588
5.73586 87.7417
5.91455 88.7139
6.09328 4440.22
6.27201 75.7233
6.45075 63.9442
6.62952 57.68
6.8083 54.3755
6.98711 52.6516
7.16591 52.0098
7.34475 55.8296
7.5236 58.0607
7.70247 53.1937
7.88135 55.0939
8.06026 59.3235
8.23919 65.8538
8.41812 77.8428
8.59709 1116.88
8.77609 94.9974
8.9551 82.1626
9.13412 79.0996
9.31318 87.8195
9.49226 80.9158
9.67134 86.7102
9.85047 93.7963
10.0296 353.118
10.2088 445.444
10.388 98.0475
10.5672 516.19
10.7465 85.9407
10.9257 73.3873
11.105 68.2918
11.2844 64.795
11.4637 61.9649
11.6431 60.8482
11.8225 59.6024
12.002 66.014
12.1814 147.08
12.3609 64.6479
12.5405 61.704
12.72 64.0694
12.8996 67.7888
13.0792 76.5833
13.2589 232.378
13.4386 125.715
13.6183 237.441
13.7981 100.209
13.9779 73.3835
14.1577 74.662
14.3376 67.4692
14.5175 66.4403
14.6974 67.6072
14.8774 110.956
15.0574 158.429
15.2374 66.642
15.4175 64.228
15.5976 63.601
15.7778 95.7311
15.958 169.156
16.1382 59.9352
16.3185 55.6224
16.4988 53.4725
16.6792 52.6111
16.8596 53.0326
17.04 53.8646
17.2205 65.0341
17.401 72.1049
17.5815 57.5545
17.7622 60.1466
17.9428 73.6782
18.1237 142.439
18.3044 89.215
18.4852 78.853
18.666 58.8437
18.8469 56.6422
19.0278 55.0174
19.2088 58.0461
19.3898 75.8857
19.5709 53.0122
19.752 51.884
19.9332 55.3481
20.1144 70.4441
20.2957 63.6253
20.477 52.9277
20.6586 48.4373
20.84 47.8297
21.0215 47.5178
21.203 49.7045
21.3846 47.981
21.5662 47.7226
21.7479 51.8837
21.9297 65.3812
22.1115 56.048
22.2933 49.2447
22.4753 47.4483
22.6572 47.8402
22.8393 51.2629
23.0214 57.3
23.2037 47.8655
23.3859 49.5792
23.5682 57.3397
23.7505 48.4734
23.9329 44.3518
24.1154 43.273
24.2979 42.591
24.4805 41.955
24.6631 42.038
24.8458 41.4161
25.0286 42.1101
25.2114 44.3452
25.3943 44.5289
25.5773 40.277
25.7605 39.5972
25.9436 40.1662
26.1268 41.4195
26.31 39.4334
26.4933 40.2324
26.6767 42.0795
26.8601 40.1172
27.0437 38.2997
27.2272 37.97
27.4109 37.7934
27.5946 38.0341
27.7784 37.2992
27.9623 38.1273
28.1462 38.7164
28.3304 36.9192
28.5145 35.4367
28.6987 35.1099
28.8829 34.8103
29.0673 34.1567
29.2517 33.7965
29.4361 33.7157
29.6207 32.6111
29.8053 32.3168
29.99 31.9646
30.1748 31.9708
30.3597 31.72
30.5447 31.7193
30.7297 31.9429
30.915 31.3257
31.1002 30.7274
31.2855 30.4389
31.4708 30.4816
31.6563 29.9766
31.8418 29.848
32.0275 29.6461
32.2132 29.0757
32.399 28.6026
32.5848 28.1032
32.7708 27.7316
32.9569 27.6353
33.143 27.4115
33.3293 27.1035
33.5158 26.7233
33.7022 26.1661
33.8887 26.0372
34.0753 25.5981
34.262 25.3674
34.4488 24.9488
34.6357 24.6723
34.8227 24.3328
35.0098 24.1888
35.1969 23.9573
35.3842 23.7574
35.5716 23.5002
35.759 23.2172
35.9468 22.8588
36.1345 22.6397
36.3222 22.4208
36.5101 22.1139
36.6981 21.8778
36.8861 21.5541
37.0743 21.1884
37.2626 20.9551
37.451 20.6974
37.6395 20.556
37.8281 20.1719
38.0168 19.9408
38.2056 19.7082
38.3945 19.3931
38.5837 19.2498
38.7728 18.9829
38.9621 18.6863
39.1514 18.4258
39.3409 18.2498
39.5304 18.0538
39.7201 17.7411
39.9099 17.5805
40.0999 17.3365
40.2899 17.086
40.48 16.9135
40.6703 16.7154
40.8607 16.5284
41.0512 16.3147
41.242 16.0659
41.4327 15.9006
41.6236 15.6076
41.8146 15.4372
42.0057 15.2185
42.1969 15.0149
42.3882 14.8143
42.5797 14.624
42.7713 14.4299
42.963 14.2615
43.1549 14.042
43.3468 13.843
43.5389 13.6368
43.7312 13.4395
43.9237 13.2336
44.1162 13.0945
44.3088 12.9299
44.5016 12.714
44.6945 12.5707
44.8875 12.3764
45.0806 12.1909
45.2739 12.0479
45.4673 11.8584
45.6609 11.6703
45.8546 11.5164
46.0484 11.3688
46.2424 11.1715
46.4365 11.0911
46.631 10.8566
46.8254 10.7434
47.0199 10.5603
47.2146 10.4073
47.4095 10.2333
47.6044 10.0953
47.7996 9.93815
47.9948 9.81268
48.1902 9.65563
48.3858 9.54988
48.5815 9.36422
48.7774 9.26705
48.9734 9.11223
49.1696 8.97155
49.3661 8.85533
49.5626 8.67567
49.7592 8.56955
49.956 8.42071
50.153 8.32235
50.3501 8.17265
50.5474 8.04036
50.7448 7.95199
50.9424 7.81865
51.1402 7.68526
51.3381 7.5549
51.5362 7.4505
51.7344 7.32614
51.9328 7.19457
52.1316 7.08281
52.3304 6.97966
52.5293 6.86079
52.7284 6.73702
52.9276 6.63655
53.1271 6.50934
53.3267 6.42379
53.5265 6.30837
53.7264 6.1972
53.9266 6.10661
54.1269 5.9164
54.3274 5.86981
54.528 5.723
54.7289 5.54069
54.9301 5.41712
55.1314 5.28057
55.3328 5.06003
55.5344 4.96552
55.7361 4.77447

File: Ni3Fe_FD1084.xy
TT I
1.27165 7.16778
1.45013 5.48871
1.62863 4.77262
1.80712 4.84762
1.98562 4.14039
2.16411 4.1908
2.34263 5.10364
2.52115 7.18965
2.69965 8.13044
2.87818 8.53693
3.05672 10.7487
3.23527 14.444
3.4138 17.8053
3.59237 21.6523
3.77094 24.5878
3.9495 28.4474
4.12809 32.4097
4.30669 56.2234
4.4853 46.068
4.6639 53.1689
4.84253 64.7195
5.02118 82.7836
5.19981 233.136
5.37848 202.34
5.55716 97.8575
5.73586 88.1918
5.91455 89.5243
6.09328 4467.89
6.27201 75.9977
6.45075 63.6208
6.62952 58.01
6.8083 54.5715
6.98711 52.6304
7.16591 51.6092
7.34475 55.8161
7.5236 58.1533
7.70247 53.1332
7.88135 55.1627
8.06026 59.1048
8.23919 65.5925
8.41812 78.0551
8.59709 1123.26
8.77609 95.0559
8.9551 82.2553
9.13412 79.3349
9.31318 87.7277
9.49226 81.359
9.67134 86.8334
9.85047 94.4694
10.0296 354.814
10.2088 437.969
10.388 98.074
10.5672 518.341
10.7465 85.9203
10.9257 73.461
11.105 68.4551
11.2844 64.9005
11.4637 62.1406
11.6431 60.8665
11.8225 60.161
12.002 65.7951
12.1814 148.127
12.3609 64.8235
12.5405 61.7091
12.72 64.2846
12.8996 68.1999
13.0792 76.8103
13.2589 232.828
13.4386 125.182
13.6183 238.493
13.7981 99.7287
13.9779 73.582
14.1577 74.7103
14.3376 67.2542
14.5175 66.6721
14.6974 67.6443
14.8774 111.231
15.0574 157.214
15.2374 66.8575
15.4175 64.1698
15.5976 63.7819
15.7778 95.56
15.958 167.77
16.1382 59.6808
16.3185 55.7195
16.4988 53.5343
16.6792 52.6754
16.8596 53.0113
17.04 53.9647
17.2205 65.194
17.401 71.8128
17.5815 57.5645
17.7622 60.1312
17.9428 73.7235
18.1237 142.455
18.3044 89.2554
18.4852 78.5456
18.666 58.9582
18.8469 56.5414
19.0278 55.3206
19.2088 58.381
19.3898 75.7873
19.5709 53.0339
19.752 51.9211
19.9332 55.3822
20.1144 70.5611
20.2957 63.4948
20.477 52.8866
20.6586 48.5936
20.84 47.8632
21.0215 47.4533
21.203 49.7365
21.3846 48.0261
21.5662 47.6255
21.7479 52.0651
21.9297 65.1909
22.1115 55.8998
22.2933 49.0662
22.4753 47.7115
22.6572 47.7612
22.8393 51.4066
23.0214 57.2436
23.2037 47.879
23.3859 49.5186
23.5682 57.305
23.7505 48.2572
23.9329 44.4657
24.1154 43.2195
24.2979 42.5036
24.4805 42.0027
24.6631 42.0345
24.8458 41.2982
25.0286 42.197
25.2114 44.3013
25.3943 44.4738
25.5773 40.136
25.7605 39.7251
25.9436 40.2147
26.1268 41.4355
26.31 39.4501
26.4933 40.1566
26.6767 41.9878
26.8601 40.1459
27.0437 38.4599
27.2272 37.884
27.4109 37.8299
27.5946 37.9059
27.7784 37.4395
27.9623 38.1164
28.1462 38.595
28.3304 36.8688
28.5145 35.338
28.6987 35.1396
28.8829 34.985
29.0673 34.2664
29.2517 33.8059
29.4361 33.7071
29.6207 32.5241
29.8053 32.2616
29.99 32.1585
30.1748 31.8813
30.3597 31.8282
30.5447 31.796
30.7297 31.9438
30.915 31.2449
31.1002 30.746
31.2855 30.4862
31.4708 30.5546
31.6563 29.982
31.8418 29.7566
32.0275 29.5394
32.2132 29.0668
32.399 28.6075
32.5848 28.1252
32.7708 27.8135
32.9569 27.6479
33.143 27.4729
33.3293 27.1701
33.5158 26.7229
33.7022 26.267
33.8887 25.8741
34.0753 25.6311
34.262 25.3457
34.4488 24.984
34.6357 24.6166
34.8227 24.2993
35.0098 24.1892
35.1969 23.8765
35.3842 23.7577
35.5716 23.4814
35.759 23.1544
35.9468 22.8336
36.1345 22.6914
36.3222 22.3404
36.5101 22.1552
36.6981 21.8538
36.8861 21.5183
37.0743 21.2235
37.2626 20.9443
37.451 20.7012
37.6395 20.5156
37.8281 20.2029
38.0168 19.9694
38.2056 19.6618
38.3945 19.43
38.5837 19.1808
38.7728 18.993
38.9621 18.722
39.1514 18.5109
39.3409 18.2149
39.5304 18.0645
39.7201 17.9189
39.9099 17.6474
40.0999 17.3593
40.2899 17.1148
40.48 16.863
40.6703 16.6893
40.8607 16.4938
41.0512 16.3258
41.242 16.0918
41.4327 15.8384
41.6236 15.6525
41.8146 15.479
42.0057 15.2259
42.1969 15.0302
42.3882 14.8962
42.5797 14.6571
42.7713 14.4487
42.963 14.233
43.1549 14.0612
43.3468 13.7994
43.5389 13.6346
43.7312 13.4879
43.9237 13.3033
44.1162 13.063
44.3088 12.8849
44.5016 12.775
44.6945 12.5977
44.8875 12.3378
45.0806 12.2031
45.2739 12.0528
45.4673 11.8661
45.6609 11.7244
45.8546 11.59
46.0484 11.3308
46.2424 11.2118
46.4365 11.0684
46.631 10.856
46.8254 10.7157
47.0199 10.5774
47.2146 10.4097
47.4095 10.2643
47.6044 10.1129
47.7996 9.97859
47.9948 9.81051
48.1902 9.69152
48.3858 9.54624
48.5815 9.38344
48.7774 9.28787
48.9734 9.1316
49.1696 8.98822
49.3661 8.80691
49.5626 8.73019
49.7592 8.57029
49.956 8.42414
50.153 8.31881
50.3501 8.19331
50.5474 8.07299
50.7448 7.97753
50.9424 7.80823
51.1402 7.7021
51.3381 7.55704
51.5362 7.42536
51.7344 7.29801
51.9328 7.20294
52.1316 7.05943
52.3304 6.98265
52.5293 6.86001
52.7284 6.74378
52.9276 6.63442
53.1271 6.54533
53.3267 6.39841
53.5265 6.30232
53.7264 6.20524
53.9266 6.09121
54.1269 5.97839
54.3274 5.86508
54.528 5.7278
54.7289 5.60877
54.9301 5.39087
55.1314 5.2905
55.3328 5.08474
55.5344 4.89519
55.7361 4.78472