Folder: NiFe_MOF_catalyst_paper/XRD (part 75)

File: Ni3Fe_FD0400.xy
TT I
1.27165 7.44498
1.45013 5.54775
1.62863 5.7868
1.80712 5.04661
1.98562 4.77301
2.16411 4.6832
2.34263 4.98046
2.52115 6.06777
2.69965 7.02846
2.87818 8.44822
3.05672 10.8307
3.23527 14.7846
3.4138 19.1328
3.59237 24.758
3.77094 26.801
3.9495 30.1391
4.12809 35.4121
4.30669 249.672
4.4853 69.6124
4.6639 56.4808
4.84253 68.4494
5.02118 88.8083
5.19981 435.455
5.37848 224.415
5.55716 105.097
5.73586 94.5269
5.91455 98.201
6.09328 3937.31
6.27201 86.707
6.45075 69.1588
6.62952 64.4556
6.8083 60.6243
6.98711 57.4083
7.16591 57.3111
7.34475 100.467
7.5236 56.028
7.70247 57.3763
7.88135 58.6895
8.06026 63.6595
8.23919 71.1715
8.41812 88.0922
8.59709 1102.88
8.77609 104.845
8.9551 94.4579
9.13412 83.6862
9.31318 84.8853
9.49226 86.267
9.67134 102.086
9.85047 102.122
10.0296 367.808
10.2088 506.822
10.388 108.259
10.5672 479.326
10.7465 89.1838
10.9257 80.7175
11.105 73.571
11.2844 72.6865
11.4637 66.466
11.6431 65.2572
11.8225 63.7902
12.002 65.1088
12.1814 146.728
12.3609 74.1288
12.5405 65.9311
12.72 72.3039
12.8996 72.4801
13.0792 80.7712
13.2589 229.096
13.4386 138.469
13.6183 232.478
13.7981 106.714
13.9779 77.7307
14.1577 74.3648
14.3376 73.5938
14.5175 70.2565
14.6974 71.919
14.8774 111.675
15.0574 165.552
15.2374 73.4452
15.4175 67.89
15.5976 67.415
15.7778 96.3646
15.958 172.187
16.1382 64.6897
16.3185 60.3813
16.4988 56.6755
16.6792 55.822
16.8596 56.5966
17.04 57.0852
17.2205 67.4079
17.401 74.6985
17.5815 60.6804
17.7622 62.7285
17.9428 75.7076
18.1237 137.457
18.3044 90.1268
18.4852 82.6343
18.666 62.1005
18.8469 59.3409
19.0278 58.311
19.2088 61.2502
19.3898 77.5598
19.5709 55.7775
19.752 54.6355
19.9332 57.8563
20.1144 70.5843
20.2957 63.9527
20.477 55.9949
20.6586 51.0568
20.84 50.0338
21.0215 49.9235
21.203 51.8143
21.3846 50.2794
21.5662 50.1246
21.7479 53.6414
21.9297 65.6872
22.1115 57.0981
22.2933 51.3998
22.4753 50.0619
22.6572 50.045
22.8393 52.8476
23.0214 58.8055
23.2037 50.0334
23.3859 50.9534
23.5682 57.2935
23.7505 49.9586
23.9329 46.5034
24.1154 45.189
24.2979 44.6765
24.4805 43.8755
24.6631 43.7836
24.8458 43.4506
25.0286 43.7068
25.2114 45.6599
25.3943 45.7495
25.5773 42.0349
25.7605 41.4419
25.9436 41.8186
26.1268 42.6676
26.31 41.231
26.4933 41.7597
26.6767 43.1499
26.8601 41.4555
27.0437 39.9587
27.2272 39.5088
27.4109 39.292
27.5946 39.291
27.7784 38.7965
27.9623 39.1132
28.1462 39.884
28.3304 38.2686
28.5145 36.8416
28.6987 36.5844
28.8829 36.2765
29.0673 35.5966
29.2517 35.3099
29.4361 35.0048
29.6207 34.0345
29.8053 33.8095
29.99 33.3893
30.1748 33.3075
30.3597 32.9704
30.5447 32.8264
30.7297 32.9211
30.915 32.4493
31.1002 31.9842
31.2855 31.5847
31.4708 31.5094
31.6563 31.1255
31.8418 30.8945
32.0275 30.6488
32.2132 30.1713
32.399 29.6011
32.5848 29.1395
32.7708 28.8324
32.9569 28.6386
33.143 28.4313
33.3293 28.0353
33.5158 27.667
33.7022 27.2678
33.8887 26.9257
34.0753 26.6606
34.262 26.3205
34.4488 25.9015
34.6357 25.5502
34.8227 25.3281
35.0098 25.1537
35.1969 24.8137
35.3842 24.6286
35.5716 24.4144
35.759 24.0143
35.9468 23.6883
36.1345 23.4751
36.3222 23.1981
36.5101 22.9758
36.6981 22.7114
36.8861 22.3661
37.0743 22.0692
37.2626 21.8205
37.451 21.5541
37.6395 21.3666
37.8281 20.9568
38.0168 20.7237
38.2056 20.4517
38.3945 20.158
38.5837 19.8877
38.7728 19.6894
38.9621 19.4098
39.1514 19.1281
39.3409 18.8797
39.5304 18.6507
39.7201 18.5349
39.9099 18.2831
40.0999 18.047
40.2899 17.7432
40.48 17.6021
40.6703 17.3642
40.8607 17.1611
41.0512 16.9667
41.242 16.6297
41.4327 16.473
41.6236 16.241
41.8146 16.0282
42.0057 15.8009
42.1969 15.5644
42.3882 15.429
42.5797 15.2068
42.7713 15.0132
42.963 14.7599
43.1549 14.5359
43.3468 14.3669
43.5389 14.1679
43.7312 13.9647
43.9237 13.7625
44.1162 13.6047
44.3088 13.3618
44.5016 13.22
44.6945 13.027
44.8875 12.8487
45.0806 12.6631
45.2739 12.4847
45.4673 12.3038
45.6609 12.1154
45.8546 11.9777
46.0484 11.8117
46.2424 11.6352
46.4365 11.488
46.631 11.2978
46.8254 11.1007
47.0199 10.9288
47.2146 10.8256
47.4095 10.6493
47.6044 10.4957
47.7996 10.2946
47.9948 10.179
48.1902 10.0715
48.3858 9.93646
48.5815 9.77066
48.7774 9.62012
48.9734 9.47599
49.1696 9.33586
49.3661 9.18278
49.5626 9.03804
49.7592 8.91376
49.956 8.80357
50.153 8.65134
50.3501 8.54662
50.5474 8.36765
50.7448 8.25527
50.9424 8.12509
51.1402 7.99532
51.3381 7.87437
51.5362 7.72764
51.7344 7.56911
51.9328 7.48947
52.1316 7.3169
52.3304 7.22348
52.5293 7.09163
52.7284 7.02494
52.9276 6.8803
53.1271 6.79753
53.3267 6.67532
53.5265 6.5529
53.7264 6.43329
53.9266 6.31011
54.1269 6.2158
54.3274 6.09519
54.528 5.96923
54.7289 5.7869
54.9301 5.58772
55.1314 5.45548
55.3328 5.25384
55.5344 5.11102
55.7361 4.92822

File: Ni3Fe_FD0401.xy
TT I
1.27165 8.00762
1.45013 6.57698
1.62863 5.49057
1.80712 4.88274
1.98562 5.21073
2.16411 4.94584
2.34263 4.96633
2.52115 6.67463
2.69965 7.34798
2.87818 8.13195
3.05672 11.2651
3.23527 14.6809
3.4138 19.161
3.59237 24.5774
3.77094 26.5266
3.9495 30.4689
4.12809 36.0939
4.30669 251.687
4.4853 69.7535
4.6639 56.4504
4.84253 68.6651
5.02118 88.9735
5.19981 435.681
5.37848 224.651
5.55716 105.346
5.73586 94.4674
5.91455 97.7468
6.09328 3920.83
6.27201 87.1955
6.45075 69.1222
6.62952 64.524
6.8083 60.6574
6.98711 57.3344
7.16591 56.7898
7.34475 100.058
7.5236 56.1156
7.70247 57.4612
7.88135 59.1317
8.06026 64.1913
8.23919 70.808
8.41812 87.8745
8.59709 1103.93
8.77609 104.587
8.9551 94.9992
9.13412 83.659
9.31318 84.7745
9.49226 86.4366
9.67134 102.151
9.85047 102.404
10.0296 367.235
10.2088 506.516
10.388 108.184
10.5672 478.533
10.7465 89.3093
10.9257 80.5845
11.105 73.8996
11.2844 72.8831
11.4637 66.5166
11.6431 65.0413
11.8225 64.0539
12.002 65.054
12.1814 146.168
12.3609 74.0152
12.5405 66.339
12.72 72.565
12.8996 72.6897
13.0792 80.6883
13.2589 228.806
13.4386 137.987
13.6183 231.727
13.7981 106.765
13.9779 77.7537
14.1577 74.147
14.3376 73.6548
14.5175 70.3566
14.6974 72.0816
14.8774 111.704
15.0574 165.503
15.2374 73.2708
15.4175 68.0835
15.5976 67.4958
15.7778 96.3673
15.958 172.178
16.1382 64.8764
16.3185 60.3259
16.4988 56.9381
16.6792 55.9026
16.8596 56.6981
17.04 57.3385
17.2205 67.6568
17.401 74.6431
17.5815 60.733
17.7622 62.6583
17.9428 76.0037
18.1237 137.264
18.3044 90.1679
18.4852 82.5231
18.666 61.9823
18.8469 59.489
19.0278 58.2148
19.2088 61.2342
19.3898 77.5344
19.5709 55.9221
19.752 54.6635
19.9332 57.7389
20.1144 70.5533
20.2957 64.0098
20.477 55.7113
20.6586 51.0041
20.84 50.111
21.0215 50.0067
21.203 51.93
21.3846 50.3324
21.5662 49.951
21.7479 53.7773
21.9297 65.7541
22.1115 57.2267
22.2933 51.2732
22.4753 50.3254
22.6572 50.1918
22.8393 52.8068
23.0214 58.8649
23.2037 50.0464
23.3859 51.0601
23.5682 57.3605
23.7505 50.1221
23.9329 46.4078
24.1154 45.3133
24.2979 44.4948
24.4805 43.9043
24.6631 43.9705
24.8458 43.2367
25.0286 43.9016
25.2114 45.6748
25.3943 45.855
25.5773 41.9735
25.7605 41.4774
25.9436 41.8035
26.1268 42.7841
26.31 41.1178
26.4933 41.7644
26.6767 43.0594
26.8601 41.4272
27.0437 39.9915
27.2272 39.5436
27.4109 39.3963
27.5946 39.3108
27.7784 38.8311
27.9623 39.3557
28.1462 39.6399
28.3304 38.1745
28.5145 36.8716
28.6987 36.4936
28.8829 36.2628
29.0673 35.5892
29.2517 35.0737
29.4361 34.9861
29.6207 34.1203
29.8053 33.7717
29.99 33.4306
30.1748 33.232
30.3597 33.0893
30.5447 32.8789
30.7297 32.9513
30.915 32.2759
31.1002 31.7748
31.2855 31.6072
31.4708 31.5223
31.6563 31.1014
31.8418 30.8654
32.0275 30.635
32.2132 30.1984
32.399 29.6782
32.5848 29.2596
32.7708 28.7827
32.9569 28.6616
33.143 28.426
33.3293 28.0963
33.5158 27.676
33.7022 27.2465
33.8887 26.9322
34.0753 26.6645
34.262 26.2818
34.4488 25.8606
34.6357 25.6488
34.8227 25.3279
35.0098 25.1093
35.1969 24.8146
35.3842 24.6244
35.5716 24.4118
35.759 24.0231
35.9468 23.601
36.1345 23.4468
36.3222 23.1823
36.5101 22.9162
36.6981 22.7359
36.8861 22.371
37.0743 22.0467
37.2626 21.853
37.451 21.54
37.6395 21.3736
37.8281 20.9425
38.0168 20.7173
38.2056 20.5111
38.3945 20.1991
38.5837 19.9506
38.7728 19.6626
38.9621 19.3675
39.1514 19.219
39.3409 18.9389
39.5304 18.6958
39.7201 18.5189
39.9099 18.2742
40.0999 17.9492
40.2899 17.718
40.48 17.5866
40.6703 17.3314
40.8607 17.1826
41.0512 16.924
41.242 16.6531
41.4327 16.4567
41.6236 16.2239
41.8146 16.0577
42.0057 15.8206
42.1969 15.5921
42.3882 15.37
42.5797 15.1691
42.7713 14.9584
42.963 14.7561
43.1549 14.5959
43.3468 14.3239
43.5389 14.1799
43.7312 14.0023
43.9237 13.7629
44.1162 13.6062
44.3088 13.4122
44.5016 13.2069
44.6945 13.0516
44.8875 12.8899
45.0806 12.6845
45.2739 12.4899
45.4673 12.3275
45.6609 12.1453
45.8546 11.9806
46.0484 11.819
46.2424 11.6292
46.4365 11.4974
46.631 11.2792
46.8254 11.0688
47.0199 10.9852
47.2146 10.8287
47.4095 10.6264
47.6044 10.4801
47.7996 10.3292
47.9948 10.1993
48.1902 10.0288
48.3858 9.91646
48.5815 9.78547
48.7774 9.59427
48.9734 9.47835
49.1696 9.35829
49.3661 9.1969
49.5626 9.03701
49.7592 8.92532
49.956 8.80648
50.153 8.64861
50.3501 8.47698
50.5474 8.37997
50.7448 8.26914
50.9424 8.13827
51.1402 8.01324
51.3381 7.87033
51.5362 7.74091
51.7344 7.58354
51.9328 7.51055
52.1316 7.33803
52.3304 7.2465
52.5293 7.13397
52.7284 7.00052
52.9276 6.85535
53.1271 6.79395
53.3267 6.66046
53.5265 6.54588
53.7264 6.43738
53.9266 6.2962
54.1269 6.17524
54.3274 6.0733
54.528 5.91939
54.7289 5.78745
54.9301 5.58981
55.1314 5.51629
55.3328 5.29615
55.5344 5.04089
55.7361 4.92593

File: Ni3Fe_FD0402.xy
TT I
1.27165 7.28549
1.45013 6.59438
1.62863 5.72682
1.80712 5.21287
1.98562 5.251
2.16411 5.31966
2.34263 5.54295
2.52115 6.00533
2.69965 7.55811
2.87818 8.35697
3.05672 10.9644
3.23527 14.9277
3.4138 19.0128
3.59237 24.6691
3.77094 26.8453
3.9495 29.9081
4.12809 35.748
4.30669 255.353
4.4853 70.1653
4.6639 56.7517
4.84253 68.4224
5.02118 89.0006
5.19981 433.841
5.37848 224.912
5.55716 104.83
5.73586 94.8661
5.91455 97.2101
6.09328 3922.21
6.27201 86.8209
6.45075 69.0341
6.62952 64.5699
6.8083 60.638
6.98711 57.3276
7.16591 56.8939
7.34475 101.04
7.5236 56.0167
7.70247 57.3918
7.88135 58.8855
8.06026 63.5752
8.23919 71.0134
8.41812 87.8532
8.59709 1092.7
8.77609 104.517
8.9551 95.2355
9.13412 83.6763
9.31318 84.1328
9.49226 86.1594
9.67134 102.128
9.85047 102.223
10.0296 366.264
10.2088 510.811
10.388 108.282
10.5672 480.812
10.7465 89.3914
10.9257 80.7311
11.105 73.4905
11.2844 72.7439
11.4637 66.4567
11.6431 65.1871
11.8225 64.0262
12.002 65.2513
12.1814 146.098
12.3609 73.9322
12.5405 66.4538
12.72 72.2057
12.8996 72.5921
13.0792 80.7637
13.2589 227.917
13.4386 138.511
13.6183 231.554
13.7981 106.962
13.9779 77.927
14.1577 74.391
14.3376 73.6906
14.5175 70.3485
14.6974 72.1224
14.8774 111.155
15.0574 166.071
15.2374 73.3994
15.4175 67.9648
15.5976 67.0428
15.7778 96.402
15.958 171.679
16.1382 65.0624
16.3185 60.3692
16.4988 56.9805
16.6792 55.8119
16.8596 56.4691
17.04 57.3027
17.2205 67.225
17.401 74.9446
17.5815 60.6799
17.7622 62.6727
17.9428 75.8128
18.1237 137.284
18.3044 90.0302
18.4852 82.3171
18.666 62.0972
18.8469 59.5202
19.0278 58.3716
19.2088 61.1623
19.3898 77.3798
19.5709 55.7301
19.752 54.4017
19.9332 57.5997
20.1144 70.7462
20.2957 64.0911
20.477 56.0313
20.6586 50.7967
20.84 49.9877
21.0215 49.7312
21.203 51.6347
21.3846 50.4231
21.5662 49.8533
21.7479 53.6069
21.9297 65.5699
22.1115 56.9997
22.2933 51.3809
22.4753 50.0255
22.6572 49.9846
22.8393 52.7804
23.0214 59.0867
23.2037 50.2174
23.3859 50.9417
23.5682 57.3488
23.7505 50.2137
23.9329 46.3169
24.1154 45.2824
24.2979 44.4107
24.4805 44.04
24.6631 43.9192
24.8458 43.1805
25.0286 43.8055
25.2114 45.7065
25.3943 45.7781
25.5773 41.9096
25.7605 41.4382
25.9436 41.7973
26.1268 42.7632
26.31 41.031
26.4933 41.6895
26.6767 43.0545
26.8601 41.4749
27.0437 39.8333
27.2272 39.3987
27.4109 39.2817
27.5946 39.2767
27.7784 38.8259
27.9623 39.1875
28.1462 39.9081
28.3304 38.0833
28.5145 36.7958
28.6987 36.4665
28.8829 36.2786
29.0673 35.5679
29.2517 35.1687
29.4361 34.887
29.6207 34.0448
29.8053 33.7458
29.99 33.3735
30.1748 33.2307
30.3597 33.0465
30.5447 32.9123
30.7297 32.9092
30.915 32.3686
31.1002 31.8018
31.2855 31.5729
31.4708 31.5273
31.6563 31.0814
31.8418 30.8289
32.0275 30.5932
32.2132 30.1427
32.399 29.6157
32.5848 29.1811
32.7708 28.8884
32.9569 28.6526
33.143 28.4021
33.3293 28.0359
33.5158 27.6681
33.7022 27.1717
33.8887 26.9542
34.0753 26.6353
34.262 26.2686
34.4488 25.9097
34.6357 25.5852
34.8227 25.2698
35.0098 25.0922
35.1969 24.8088
35.3842 24.5588
35.5716 24.3324
35.759 23.9527
35.9468 23.6892
36.1345 23.3858
36.3222 23.1818
36.5101 22.9517
36.6981 22.6096
36.8861 22.3631
37.0743 22.0322
37.2626 21.7521
37.451 21.438
37.6395 21.3292
37.8281 20.9276
38.0168 20.7383
38.2056 20.4546
38.3945 20.1706
38.5837 19.8417
38.7728 19.6907
38.9621 19.4187
39.1514 19.1695
39.3409 18.821
39.5304 18.7382
39.7201 18.4565
39.9099 18.264
40.0999 18.0176
40.2899 17.7846
40.48 17.5446
40.6703 17.3294
40.8607 17.1199
41.0512 16.9009
41.242 16.6847
41.4327 16.4507
41.6236 16.2024
41.8146 16.0637
42.0057 15.7909
42.1969 15.5363
42.3882 15.395
42.5797 15.172
42.7713 15.0364
42.963 14.7442
43.1549 14.57
43.3468 14.3122
43.5389 14.1444
43.7312 13.9149
43.9237 13.7591
44.1162 13.5545
44.3088 13.3793
44.5016 13.2434
44.6945 13.0013
44.8875 12.848
45.0806 12.6611
45.2739 12.4742
45.4673 12.281
45.6609 12.0912
45.8546 11.9983
46.0484 11.8155
46.2424 11.6254
46.4365 11.4729
46.631 11.3021
46.8254 11.1086
47.0199 10.9439
47.2146 10.7833
47.4095 10.5967
47.6044 10.4863
47.7996 10.3337
47.9948 10.2117
48.1902 10.0417
48.3858 9.90202
48.5815 9.75876
48.7774 9.61391
48.9734 9.47271
49.1696 9.29426
49.3661 9.16079
49.5626 9.0117
49.7592 8.88527
49.956 8.76337
50.153 8.63021
50.3501 8.49022
50.5474 8.37693
50.7448 8.24944
50.9424 8.10031
51.1402 8.00073
51.3381 7.84505
51.5362 7.72211
51.7344 7.61781
51.9328 7.48988
52.1316 7.31353
52.3304 7.22288
52.5293 7.12874
52.7284 7.01822
52.9276 6.90625
53.1271 6.78031
53.3267 6.6311
53.5265 6.52654
53.7264 6.41487
53.9266 6.33145
54.1269 6.1868
54.3274 6.10199
54.528 5.94396
54.7289 5.74671
54.9301 5.57308
55.1314 5.50348
55.3328 5.24675
55.5344 5.07535
55.7361 4.90734

File: Ni3Fe_FD0403.xy
TT I
1.27165 7.92643
1.45013 6.24269
1.62863 5.31285
1.80712 4.82399
1.98562 4.64556
2.16411 5.10393
2.34263 5.28734
2.52115 6.68229
2.69965 7.46762
2.87818 8.2849
3.05672 10.8847
3.23527 15.0234
3.4138 19.2604
3.59237 24.9148
3.77094 26.8987
3.9495 30.1973
4.12809 35.4885
4.30669 257.879
4.4853 70.0068
4.6639 56.4322
4.84253 68.4041
5.02118 88.9192
5.19981 433.149
5.37848 225.055
5.55716 105.121
5.73586 94.7166
5.91455 97.9867
6.09328 3936.31
6.27201 87.3134
6.45075 69.096
6.62952 64.9055
6.8083 60.4148
6.98711 57.2348
7.16591 57.491
7.34475 101.075
7.5236 56.1762
7.70247 57.5518
7.88135 58.8634
8.06026 63.7651
8.23919 71.023
8.41812 88.0457
8.59709 1093.55
8.77609 104.778
8.9551 94.7644
9.13412 83.7643
9.31318 84.5368
9.49226 86.0859
9.67134 102.254
9.85047 102.171
10.0296 366.026
10.2088 511.4
10.388 107.88
10.5672 480.317
10.7465 89.1982
10.9257 80.4958
11.105 73.5158
11.2844 72.9404
11.4637 66.5095
11.6431 65.0939
11.8225 63.8974
12.002 64.9175
12.1814 145.678
12.3609 74.2462
12.5405 66.1133
12.72 72.5191
12.8996 72.5653
13.0792 80.7131
13.2589 226.663
13.4386 138.413
13.6183 231.692
13.7981 106.904
13.9779 77.3992
14.1577 74.5918
14.3376 73.7267
14.5175 70.3552
14.6974 72.3404
14.8774 111.096
15.0574 165.133
15.2374 73.2936
15.4175 68.0175
15.5976 67.3968
15.7778 95.9809
15.958 170.463
16.1382 64.7979
16.3185 60.3979
16.4988 56.9562
16.6792 55.7153
16.8596 56.4593
17.04 57.1592
17.2205 67.0189
17.401 74.4388
17.5815 60.5535
17.7622 62.7032
17.9428 75.7202
18.1237 137.377
18.3044 89.7459
18.4852 82.61
18.666 61.8519
18.8469 59.5932
19.0278 58.4724
19.2088 61.0554
19.3898 77.2858
19.5709 55.6982
19.752 54.6033
19.9332 57.5014
20.1144 70.9575
20.2957 64.0181
20.477 55.8184
20.6586 51.0671
20.84 50.0559
21.0215 50.0108
21.203 51.7757
21.3846 50.4282
21.5662 49.9768
21.7479 53.6247
21.9297 65.6333
22.1115 57.0923
22.2933 51.4445
22.4753 50.0751
22.6572 50.1745
22.8393 52.9046
23.0214 59.0722
23.2037 49.9695
23.3859 51.0333
23.5682 57.3132
23.7505 50.1176
23.9329 46.395
24.1154 45.2909
24.2979 44.4974
24.4805 43.9982
24.6631 43.971
24.8458 43.232
25.0286 43.9583
25.2114 45.6288
25.3943 45.9634
25.5773 42.028
25.7605 41.5358
25.9436 41.8671
26.1268 42.8895
26.31 41.1675
26.4933 41.6999
26.6767 43.1204
26.8601 41.4904
27.0437 40.0035
27.2272 39.3648
27.4109 39.2445
27.5946 39.3422
27.7784 38.761
27.9623 39.1814
28.1462 39.6916
28.3304 38.288
28.5145 36.8162
28.6987 36.5481
28.8829 36.1935
29.0673 35.6368
29.2517 35.0995
29.4361 34.9935
29.6207 33.971
29.8053 33.6634
29.99 33.4141
30.1748 33.2664
30.3597 33.0131
30.5447 32.8572
30.7297 32.961
30.915 32.4759
31.1002 31.9537
31.2855 31.5953
31.4708 31.5193
31.6563 31.0752
31.8418 30.8158
32.0275 30.6463
32.2132 30.2353
32.399 29.6944
32.5848 29.0644
32.7708 28.8256
32.9569 28.6511
33.143 28.5608
33.3293 28.1147
33.5158 27.7296
33.7022 27.2624
33.8887 26.9209
34.0753 26.6606
34.262 26.2568
34.4488 25.9015
34.6357 25.5985
34.8227 25.1865
35.0098 25.06
35.1969 24.7928
35.3842 24.5531
35.5716 24.3849
35.759 23.9807
35.9468 23.6733
36.1345 23.4337
36.3222 23.2089
36.5101 22.9924
36.6981 22.5772
36.8861 22.3358
37.0743 22.0722
37.2626 21.7838
37.451 21.5029
37.6395 21.3196
37.8281 21.0584
38.0168 20.7149
38.2056 20.4867
38.3945 20.1623
38.5837 19.9373
38.7728 19.6941
38.9621 19.4616
39.1514 19.1842
39.3409 18.9116
39.5304 18.7231
39.7201 18.4644
39.9099 18.2755
40.0999 18.0316
40.2899 17.787
40.48 17.5286
40.6703 17.3717
40.8607 17.126
41.0512 16.9013
41.242 16.6392
41.4327 16.4455
41.6236 16.1957
41.8146 16.1207
42.0057 15.8103
42.1969 15.6041
42.3882 15.4065
42.5797 15.1719
42.7713 14.9801
42.963 14.762
43.1549 14.5009
43.3468 14.3424
43.5389 14.1811
43.7312 13.9965
43.9237 13.8075
44.1162 13.5573
44.3088 13.3945
44.5016 13.2518
44.6945 12.9953
44.8875 12.824
45.0806 12.6253
45.2739 12.4716
45.4673 12.3504
45.6609 12.1164
45.8546 12.0041
46.0484 11.8033
46.2424 11.6315
46.4365 11.4763
46.631 11.2392
46.8254 11.0967
47.0199 10.9843
47.2146 10.8402
47.4095 10.633
47.6044 10.5001
47.7996 10.3146
47.9948 10.1753
48.1902 10.0142
48.3858 9.91777
48.5815 9.76983
48.7774 9.609
48.9734 9.47357
49.1696 9.32046
49.3661 9.15841
49.5626 9.01887
49.7592 8.89084
49.956 8.79757
50.153 8.61387
50.3501 8.4546
50.5474 8.36122
50.7448 8.28514
50.9424 8.12523
51.1402 7.96592
51.3381 7.8696
51.5362 7.74979
51.7344 7.59572
51.9328 7.4634
52.1316 7.35074
52.3304 7.24145
52.5293 7.11851
52.7284 6.94957
52.9276 6.92525
53.1271 6.81524
53.3267 6.65193
53.5265 6.50178
53.7264 6.45261
53.9266 6.3353
54.1269 6.20774
54.3274 6.05797
54.528 5.93091
54.7289 5.82112
54.9301 5.62806
55.1314 5.51651
55.3328 5.27964
55.5344 5.10749
55.7361 4.98211

File: Ni3Fe_FD0404.xy
TT I
1.27165 7.63902
1.45013 6.0123
1.62863 5.64726
1.80712 5.28008
1.98562 4.39542
2.16411 5.71295
2.34263 5.00246
2.52115 5.6627
2.69965 7.44176
2.87818 8.71467
3.05672 11.0524
3.23527 14.8549
3.4138 19.0159
3.59237 24.7801
3.77094 26.7101
3.9495 30.8098
4.12809 35.6614
4.30669 256.346
4.4853 70.7034
4.6639 56.6743
4.84253 68.7052
5.02118 88.9636
5.19981 436.336
5.37848 223.398
5.55716 105.447
5.73586 95.1395
5.91455 97.7466
6.09328 3956.33
6.27201 87.489
6.45075 69.4656
6.62952 64.6452
6.8083 60.6772
6.98711 57.4345
7.16591 57.3427
7.34475 100.425
7.5236 56.3811
7.70247 57.6859
7.88135 59.2874
8.06026 63.6651
8.23919 71.4031
8.41812 88.4504
8.59709 1099.23
8.77609 104.744
8.9551 94.9057
9.13412 84.2374
9.31318 84.8795
9.49226 86.331
9.67134 102.615
9.85047 103.0
10.0296 366.317
10.2088 497.597
10.388 108.213
10.5672 481.333
10.7465 89.2423
10.9257 80.8566
11.105 73.913
11.2844 72.898
11.4637 66.8292
11.6431 65.2871
11.8225 64.2394
12.002 65.0188
12.1814 145.755
12.3609 74.0164
12.5405 66.1852
12.72 72.365
12.8996 72.5228
13.0792 80.729
13.2589 227.802
13.4386 137.61
13.6183 231.765
13.7981 106.177
13.9779 77.5849
14.1577 74.6353
14.3376 74.0038
14.5175 70.4929
14.6974 72.1677
14.8774 111.476
15.0574 164.111
15.2374 73.4815
15.4175 68.0688
15.5976 67.4596
15.7778 96.3616
15.958 169.945
16.1382 64.9988
16.3185 60.5493
16.4988 57.1707
16.6792 55.958
16.8596 56.779
17.04 57.1086
17.2205 67.2331
17.401 74.2172
17.5815 60.8087
17.7622 62.7776
17.9428 75.6235
18.1237 137.304
18.3044 89.816
18.4852 82.1045
18.666 62.0824
18.8469 59.4831
19.0278 58.5321
19.2088 61.1052
19.3898 77.4383
19.5709 55.7997
19.752 54.5931
19.9332 57.6173
20.1144 70.8273
20.2957 64.1017
20.477 55.7654
20.6586 50.8129
20.84 50.0817
21.0215 49.9339
21.203 51.8388
21.3846 50.4736
21.5662 50.0512
21.7479 53.6903
21.9297 65.5518
22.1115 56.8412
22.2933 51.4138
22.4753 50.3277
22.6572 50.0365
22.8393 52.9373
23.0214 58.984
23.2037 50.13
23.3859 50.9908
23.5682 57.1966
23.7505 49.9379
23.9329 46.3084
24.1154 45.2777
24.2979 44.3791
24.4805 43.9666
24.6631 43.9597
24.8458 43.1492
25.0286 43.7944
25.2114 45.467
25.3943 45.8424
25.5773 41.9793
25.7605 41.6127
25.9436 41.6602
26.1268 42.5714
26.31 41.1859
26.4933 41.6861
26.6767 43.1001
26.8601 41.569
27.0437 39.9627
27.2272 39.4938
27.4109 39.3802
27.5946 39.3078
27.7784 38.6802
27.9623 39.1995
28.1462 39.7069
28.3304 38.1581
28.5145 36.8414
28.6987 36.5564
28.8829 36.249
29.0673 35.5531
29.2517 35.1219
29.4361 34.8747
29.6207 34.0602
29.8053 33.7317
29.99 33.3511
30.1748 33.1475
30.3597 33.0723
30.5447 32.9076
30.7297 32.8992
30.915 32.3825
31.1002 31.8719
31.2855 31.4939
31.4708 31.5238
31.6563 31.1017
31.8418 30.8642
32.0275 30.6439
32.2132 30.1187
32.399 29.6056
32.5848 29.1267
32.7708 28.8255
32.9569 28.6173
33.143 28.429
33.3293 28.1275
33.5158 27.731
33.7022 27.2233
33.8887 26.945
34.0753 26.5672
34.262 26.2222
34.4488 25.9571
34.6357 25.5772
34.8227 25.2698
35.0098 25.0678
35.1969 24.7444
35.3842 24.4916
35.5716 24.3099
35.759 24.081
35.9468 23.6622
36.1345 23.455
36.3222 23.1765
36.5101 22.9766
36.6981 22.6749
36.8861 22.2754
37.0743 22.029
37.2626 21.7125
37.451 21.453
37.6395 21.3762
37.8281 21.0057
38.0168 20.7418
38.2056 20.4176
38.3945 20.1896
38.5837 19.8743
38.7728 19.6565
38.9621 19.4509
39.1514 19.2
39.3409 18.8485
39.5304 18.676
39.7201 18.4943
39.9099 18.2305
40.0999 18.0114
40.2899 17.8094
40.48 17.5984
40.6703 17.3436
40.8607 17.1719
41.0512 16.8882
41.242 16.6801
41.4327 16.4795
41.6236 16.1694
41.8146 16.01
42.0057 15.7986
42.1969 15.5787
42.3882 15.4062
42.5797 15.1894
42.7713 14.985
42.963 14.7172
43.1549 14.5843
43.3468 14.3439
43.5389 14.1809
43.7312 13.9436
43.9237 13.8
44.1162 13.5786
44.3088 13.3646
44.5016 13.1774
44.6945 13.0414
44.8875 12.8426
45.0806 12.6816
45.2739 12.453
45.4673 12.3274
45.6609 12.1322
45.8546 11.9709
46.0484 11.8812
46.2424 11.6169
46.4365 11.4819
46.631 11.2941
46.8254 11.0816
47.0199 10.9855
47.2146 10.8068
47.4095 10.6421
47.6044 10.4713
47.7996 10.2969
47.9948 10.174
48.1902 9.99711
48.3858 9.87499
48.5815 9.7061
48.7774 9.61706
48.9734 9.47862
49.1696 9.32757
49.3661 9.17707
49.5626 9.0278
49.7592 8.86775
49.956 8.77536
50.153 8.62959
50.3501 8.46479
50.5474 8.3901
50.7448 8.26715
50.9424 8.1206
51.1402 8.0085
51.3381 7.86162
51.5362 7.73348
51.7344 7.61588
51.9328 7.4909
52.1316 7.3326
52.3304 7.24657
52.5293 7.09227
52.7284 6.98371
52.9276 6.86899
53.1271 6.79018
53.3267 6.61977
53.5265 6.52915
53.7264 6.40187
53.9266 6.33355
54.1269 6.16881
54.3274 6.08227
54.528 5.94869
54.7289 5.75755
54.9301 5.53637
55.1314 5.4695
55.3328 5.27136
55.5344 5.08804
55.7361 4.94972