Folder: NiFe_MOF_catalyst_paper/XRD (part 7)

File: Ni3Fe_FD0031.xy
TT I
1.27165 33.1965
1.45013 28.4414
1.62863 25.3039
1.80712 22.8481
1.98562 22.0853
2.16411 24.2121
2.34263 24.9262
2.52115 24.11
2.69965 27.4031
2.87818 37.677
3.05672 64.6656
3.23527 73.2735
3.4138 39.4017
3.59237 37.5236
3.77094 37.0387
3.9495 34.2547
4.12809 46.3482
4.30669 89.7258
4.4853 58.0833
4.6639 45.3274
4.84253 52.684
5.02118 89.0874
5.19981 294.248
5.37848 3548.27
5.55716 154.626
5.73586 100.662
5.91455 113.528
6.09328 490.797
6.27201 286.513
6.45075 70.8192
6.62952 55.7241
6.8083 54.7129
6.98711 43.5826
7.16591 46.9678
7.34475 75.8815
7.5236 54.2047
7.70247 44.2069
7.88135 37.5149
8.06026 39.7233
8.23919 45.5058
8.41812 58.2809
8.59709 171.501
8.77609 581.673
8.9551 77.3187
9.13412 60.0647
9.31318 252.791
9.49226 54.3187
9.67134 54.7184
9.85047 62.3528
10.0296 106.515
10.2088 552.097
10.388 122.721
10.5672 93.7184
10.7465 243.63
10.9257 49.5807
11.105 43.9936
11.2844 43.1371
11.4637 38.8489
11.6431 38.4087
11.8225 37.6668
12.002 77.267
12.1814 47.9987
12.3609 95.8051
12.5405 44.5178
12.72 42.4947
12.8996 40.2197
13.0792 43.6367
13.2589 65.8029
13.4386 164.12
13.6183 88.778
13.7981 172.829
13.9779 58.9311
14.1577 49.8882
14.3376 46.5435
14.5175 39.2372
14.6974 39.2445
14.8774 44.7696
15.0574 64.0776
15.2374 80.3801
15.4175 41.6291
15.5976 39.1939
15.7778 42.5033
15.958 56.4297
16.1382 103.531
16.3185 39.5199
16.4988 34.3705
16.6792 32.3933
16.8596 32.5619
17.04 40.2341
17.2205 34.274
17.401 37.593
17.5815 44.9466
17.7622 35.9343
17.9428 40.161
18.1237 44.0299
18.3044 93.0219
18.4852 55.3377
18.666 58.348
18.8469 36.3654
19.0278 34.1409
19.2088 34.5139
19.3898 41.0105
19.5709 47.1466
19.752 34.994
19.9332 32.3639
20.1144 33.0087
20.2957 43.7631
20.477 38.9643
20.6586 36.55
20.84 32.3646
21.0215 29.7489
21.203 29.209
21.3846 29.6922
21.5662 32.0238
21.7479 30.0437
21.9297 31.6491
22.1115 41.9121
22.2933 40.3641
22.4753 34.1153
22.6572 30.411
22.8393 31.0211
23.0214 31.3892
23.2037 39.6716
23.3859 32.7969
23.5682 34.0369
23.7505 34.8303
23.9329 37.8215
24.1154 29.3106
24.2979 27.682
24.4805 26.8341
24.6631 26.8302
24.8458 27.7465
25.0286 26.5312
25.2114 26.5674
25.3943 28.9935
25.5773 30.1666
25.7605 27.8416
25.9436 26.82
26.1268 25.7101
26.31 26.8768
26.4933 27.1584
26.6767 26.0505
26.8601 27.6055
27.0437 29.1528
27.2272 26.3618
27.4109 24.9047
27.5946 24.7294
27.7784 25.1435
27.9623 25.0
28.1462 25.4729
28.3304 26.9481
28.5145 26.4053
28.6987 24.4851
28.8829 23.0974
29.0673 22.8149
29.2517 23.2698
29.4361 22.1202
29.6207 22.1476
29.8053 22.3297
29.99 21.4254
30.1748 21.4597
30.3597 21.1799
30.5447 21.3983
30.7297 21.056
30.915 21.2446
31.1002 22.2406
31.2855 21.2291
31.4708 20.4865
31.6563 20.623
31.8418 21.1353
32.0275 20.2334
32.2132 20.4644
32.399 20.4258
32.5848 19.5048
32.7708 19.0044
32.9569 18.8933
33.143 18.739
33.3293 18.471
33.5158 18.7853
33.7022 18.6846
33.8887 17.9365
34.0753 17.7071
34.262 17.6121
34.4488 17.1807
34.6357 17.0899
34.8227 16.8308
35.0098 16.5576
35.1969 16.3932
35.3842 16.4118
35.5716 16.253
35.759 16.3607
35.9468 16.3722
36.1345 15.9451
36.3222 15.6034
36.5101 15.5072
36.6981 15.3862
36.8861 15.2015
37.0743 15.0043
37.2626 14.694
37.451 14.5109
37.6395 14.4038
37.8281 14.0763
38.0168 14.0388
38.2056 13.8855
38.3945 13.5488
38.5837 13.4853
38.7728 13.3179
38.9621 13.1742
39.1514 13.064
39.3409 12.8298
39.5304 12.6545
39.7201 12.529
39.9099 12.4069
40.0999 12.2966
40.2899 12.2025
40.48 11.9421
40.6703 11.8328
40.8607 11.7588
41.0512 11.6355
41.242 11.4767
41.4327 11.315
41.6236 11.1392
41.8146 11.0003
42.0057 10.9284
42.1969 10.7344
42.3882 10.5733
42.5797 10.484
42.7713 10.3545
42.963 10.1726
43.1549 10.0039
43.3468 9.90567
43.5389 9.7446
43.7312 9.61314
43.9237 9.50089
44.1162 9.39557
44.3088 9.25333
44.5016 9.08694
44.6945 9.04258
44.8875 8.89094
45.0806 8.82682
45.2739 8.66731
45.4673 8.53354
45.6609 8.45164
45.8546 8.40636
46.0484 8.22481
46.2424 8.11999
46.4365 7.99129
46.631 7.89437
46.8254 7.74736
47.0199 7.66756
47.2146 7.57286
47.4095 7.45343
47.6044 7.35859
47.7996 7.22269
47.9948 7.11978
48.1902 7.02691
48.3858 6.93562
48.5815 6.81284
48.7774 6.73852
48.9734 6.62917
49.1696 6.54594
49.3661 6.46963
49.5626 6.35252
49.7592 6.30188
49.956 6.20911
50.153 6.09024
50.3501 6.01054
50.5474 5.94144
50.7448 5.83794
50.9424 5.77815
51.1402 5.66599
51.3381 5.61936
51.5362 5.49619
51.7344 5.41823
51.9328 5.32787
52.1316 5.25396
52.3304 5.19551
52.5293 5.07031
52.7284 5.00014
52.9276 4.89186
53.1271 4.86432
53.3267 4.77148
53.5265 4.67476
53.7264 4.58916
53.9266 4.55282
54.1269 4.43094
54.3274 4.33529
54.528 4.16842
54.7289 4.09557
54.9301 3.93913
55.1314 3.86159
55.3328 3.70916
55.5344 3.55274
55.7361 3.45559

File: Ni3Fe_FD0032.xy
TT I
1.27165 32.4773
1.45013 27.8185
1.62863 24.8892
1.80712 23.0043
1.98562 22.6067
2.16411 24.3557
2.34263 24.4385
2.52115 23.8881
2.69965 27.3246
2.87818 37.2496
3.05672 64.1549
3.23527 72.9719
3.4138 38.3872
3.59237 37.271
3.77094 36.3062
3.9495 33.9577
4.12809 44.7196
4.30669 86.9203
4.4853 56.2438
4.6639 45.1092
4.84253 53.0167
5.02118 89.268
5.19981 296.573
5.37848 3515.61
5.55716 154.424
5.73586 100.898
5.91455 113.754
6.09328 496.777
6.27201 282.291
6.45075 70.3728
6.62952 55.4202
6.8083 53.7121
6.98711 42.9604
7.16591 46.409
7.34475 74.2507
7.5236 53.743
7.70247 44.1234
7.88135 37.3238
8.06026 39.5145
8.23919 45.3049
8.41812 58.3388
8.59709 173.823
8.77609 568.673
8.9551 77.4732
9.13412 60.457
9.31318 256.369
9.49226 54.6901
9.67134 55.1767
9.85047 62.3788
10.0296 107.652
10.2088 561.48
10.388 121.315
10.5672 94.3153
10.7465 240.098
10.9257 49.44
11.105 44.1048
11.2844 42.9472
11.4637 38.9579
11.6431 38.7177
11.8225 37.4726
12.002 78.5885
12.1814 48.2634
12.3609 95.5728
12.5405 44.1065
12.72 42.1604
12.8996 40.0851
13.0792 43.8132
13.2589 66.4495
13.4386 166.807
13.6183 88.6559
13.7981 175.055
13.9779 58.3566
14.1577 50.2563
14.3376 46.4116
14.5175 39.4131
14.6974 39.4947
14.8774 45.3181
15.0574 64.4875
15.2374 78.9148
15.4175 41.7487
15.5976 39.3364
15.7778 42.9457
15.958 56.934
16.1382 101.721
16.3185 39.1728
16.4988 34.5713
16.6792 32.5251
16.8596 32.8436
17.04 40.4146
17.2205 34.4971
17.401 37.7606
17.5815 44.4188
17.7622 36.1133
17.9428 40.2554
18.1237 44.0207
18.3044 92.973
18.4852 55.3546
18.666 57.4361
18.8469 36.5623
19.0278 34.4066
19.2088 34.6014
19.3898 41.3702
19.5709 47.1233
19.752 34.9616
19.9332 32.5927
20.1144 33.1816
20.2957 43.7161
20.477 38.9605
20.6586 36.3357
20.84 32.4065
21.0215 29.9536
21.203 29.3352
21.3846 29.9242
21.5662 31.8109
21.7479 30.2353
21.9297 31.7972
22.1115 42.0003
22.2933 40.2462
22.4753 33.9178
22.6572 30.3425
22.8393 31.0825
23.0214 31.5346
23.2037 39.6978
23.3859 32.8143
23.5682 34.022
23.7505 34.8483
23.9329 37.2253
24.1154 29.3024
24.2979 27.6618
24.4805 26.9542
24.6631 27.0242
24.8458 27.7158
25.0286 26.4902
25.2114 26.7453
25.3943 28.9496
25.5773 30.2765
25.7605 27.7232
25.9436 26.874
26.1268 25.786
26.31 26.9436
26.4933 27.068
26.6767 26.1307
26.8601 27.658
27.0437 29.1446
27.2272 26.1333
27.4109 24.8137
27.5946 24.8861
27.7784 25.2067
27.9623 24.9198
28.1462 25.5627
28.3304 27.0013
28.5145 26.205
28.6987 24.5212
28.8829 23.122
29.0673 22.8323
29.2517 23.225
29.4361 22.2018
29.6207 22.1475
29.8053 22.3857
29.99 21.4139
30.1748 21.4576
30.3597 21.2099
30.5447 21.5081
30.7297 21.1481
30.915 21.3507
31.1002 22.1449
31.2855 21.2201
31.4708 20.5204
31.6563 20.5639
31.8418 21.1087
32.0275 20.2394
32.2132 20.3443
32.399 20.3266
32.5848 19.5297
32.7708 18.8742
32.9569 18.8278
33.143 18.7656
33.3293 18.3685
33.5158 18.7819
33.7022 18.6018
33.8887 17.9286
34.0753 17.7208
34.262 17.4996
34.4488 17.1483
34.6357 17.0166
34.8227 16.8949
35.0098 16.574
35.1969 16.3155
35.3842 16.2879
35.5716 16.1928
35.759 16.3569
35.9468 16.2892
36.1345 15.8827
36.3222 15.634
36.5101 15.4734
36.6981 15.2724
36.8861 15.1321
37.0743 15.0289
37.2626 14.7028
37.451 14.5002
37.6395 14.394
37.8281 14.164
38.0168 13.9554
38.2056 13.8359
38.3945 13.5559
38.5837 13.485
38.7728 13.3668
38.9621 13.1511
39.1514 13.0643
39.3409 12.7784
39.5304 12.6548
39.7201 12.4904
39.9099 12.4365
40.0999 12.2352
40.2899 12.2027
40.48 11.9746
40.6703 11.7825
40.8607 11.707
41.0512 11.5893
41.242 11.4478
41.4327 11.3124
41.6236 11.1654
41.8146 10.9933
42.0057 10.8375
42.1969 10.7551
42.3882 10.5649
42.5797 10.4547
42.7713 10.2765
42.963 10.1423
43.1549 10.0531
43.3468 9.91256
43.5389 9.78003
43.7312 9.61687
43.9237 9.47722
44.1162 9.41438
44.3088 9.30831
44.5016 9.10836
44.6945 9.07055
44.8875 8.91496
45.0806 8.81941
45.2739 8.69236
45.4673 8.57352
45.6609 8.44127
45.8546 8.31943
46.0484 8.21969
46.2424 8.12243
46.4365 7.97427
46.631 7.88825
46.8254 7.74805
47.0199 7.69024
47.2146 7.55894
47.4095 7.40338
47.6044 7.32309
47.7996 7.24614
47.9948 7.11549
48.1902 7.00288
48.3858 6.92332
48.5815 6.80361
48.7774 6.73087
48.9734 6.63788
49.1696 6.5296
49.3661 6.43217
49.5626 6.34879
49.7592 6.25662
49.956 6.19504
50.153 6.09918
50.3501 5.99715
50.5474 5.93846
50.7448 5.82319
50.9424 5.76628
51.1402 5.66607
51.3381 5.55648
51.5362 5.48678
51.7344 5.3932
51.9328 5.32692
52.1316 5.24133
52.3304 5.18744
52.5293 5.06673
52.7284 5.00229
52.9276 4.95357
53.1271 4.84048
53.3267 4.76342
53.5265 4.65965
53.7264 4.59866
53.9266 4.54296
54.1269 4.43064
54.3274 4.33491
54.528 4.23018
54.7289 4.07064
54.9301 3.96167
55.1314 3.84292
55.3328 3.67284
55.5344 3.53918
55.7361 3.47622

File: Ni3Fe_FD0033.xy
TT I
1.27165 32.923
1.45013 27.9209
1.62863 24.0673
1.80712 22.087
1.98562 21.8709
2.16411 24.3273
2.34263 24.6885
2.52115 23.3265
2.69965 27.2435
2.87818 37.4571
3.05672 64.4554
3.23527 72.3362
3.4138 38.666
3.59237 36.608
3.77094 35.4632
3.9495 32.9494
4.12809 42.9543
4.30669 82.9114
4.4853 55.1513
4.6639 44.481
4.84253 52.5386
5.02118 89.0386
5.19981 298.297
5.37848 3503.15
5.55716 154.314
5.73586 101.221
5.91455 114.001
6.09328 501.385
6.27201 279.05
6.45075 69.7326
6.62952 54.6666
6.8083 52.9767
6.98711 42.0851
7.16591 45.5827
7.34475 72.0811
7.5236 53.6765
7.70247 43.8677
7.88135 37.9919
8.06026 39.6907
8.23919 45.2954
8.41812 58.2279
8.59709 175.398
8.77609 558.399
8.9551 77.3854
9.13412 60.5573
9.31318 261.015
9.49226 54.702
9.67134 54.8454
9.85047 62.4058
10.0296 108.473
10.2088 568.468
10.388 119.904
10.5672 95.1632
10.7465 237.728
10.9257 49.5178
11.105 43.8417
11.2844 42.7277
11.4637 38.7843
11.6431 38.4165
11.8225 37.5541
12.002 80.366
12.1814 48.6789
12.3609 95.6369
12.5405 43.9157
12.72 42.3574
12.8996 40.3464
13.0792 44.038
13.2589 67.0904
13.4386 168.106
13.6183 88.5921
13.7981 176.233
13.9779 58.3071
14.1577 50.8453
14.3376 46.4674
14.5175 39.3554
14.6974 39.6826
14.8774 45.3789
15.0574 65.2221
15.2374 77.4159
15.4175 41.646
15.5976 39.3747
15.7778 43.0679
15.958 57.0226
16.1382 100.09
16.3185 39.2153
16.4988 34.2614
16.6792 32.5167
16.8596 32.6502
17.04 40.4893
17.2205 34.5332
17.401 38.0032
17.5815 44.131
17.7622 36.1948
17.9428 40.372
18.1237 44.1461
18.3044 92.9733
18.4852 55.2051
18.666 56.9713
18.8469 36.5541
19.0278 34.3783
19.2088 34.6487
19.3898 41.5111
19.5709 46.9928
19.752 35.0351
19.9332 32.501
20.1144 33.2306
20.2957 43.9454
20.477 38.9239
20.6586 35.9475
20.84 32.6616
21.0215 29.9544
21.203 29.3305
21.3846 29.9834
21.5662 31.8812
21.7479 30.2209
21.9297 31.7241
22.1115 42.097
22.2933 40.0622
22.4753 33.708
22.6572 30.4101
22.8393 31.1646
23.0214 31.5926
23.2037 39.643
23.3859 32.7092
23.5682 33.8852
23.7505 34.886
23.9329 36.783
24.1154 29.3409
24.2979 27.7198
24.4805 26.9332
24.6631 26.992
24.8458 27.8102
25.0286 26.5159
25.2114 26.7949
25.3943 28.9995
25.5773 30.1947
25.7605 27.551
25.9436 26.8475
26.1268 25.771
26.31 26.964
26.4933 27.0268
26.6767 26.0312
26.8601 27.6195
27.0437 28.9556
27.2272 26.1027
27.4109 24.9431
27.5946 24.8811
27.7784 25.2718
27.9623 24.9655
28.1462 25.5535
28.3304 27.0279
28.5145 26.2043
28.6987 24.343
28.8829 23.1821
29.0673 22.8403
29.2517 23.2631
29.4361 22.1668
29.6207 22.118
29.8053 22.3158
29.99 21.3395
30.1748 21.4519
30.3597 21.1568
30.5447 21.3357
30.7297 20.9839
30.915 21.2723
31.1002 22.1614
31.2855 21.1539
31.4708 20.4467
31.6563 20.5368
31.8418 21.1048
32.0275 20.1839
32.2132 20.3017
32.399 20.251
32.5848 19.4925
32.7708 18.9759
32.9569 18.8273
33.143 18.7731
33.3293 18.4071
33.5158 18.7467
33.7022 18.5362
33.8887 17.8757
34.0753 17.654
34.262 17.5182
34.4488 17.2
34.6357 16.9928
34.8227 16.7995
35.0098 16.4958
35.1969 16.3975
35.3842 16.3569
35.5716 16.163
35.759 16.3507
35.9468 16.1847
36.1345 15.7844
36.3222 15.586
36.5101 15.5005
36.6981 15.3335
36.8861 15.1246
37.0743 14.9515
37.2626 14.6968
37.451 14.4672
37.6395 14.379
37.8281 14.1921
38.0168 13.9892
38.2056 13.8611
38.3945 13.6192
38.5837 13.4526
38.7728 13.298
38.9621 13.1749
39.1514 13.0576
39.3409 12.8431
39.5304 12.6983
39.7201 12.4878
39.9099 12.4021
40.0999 12.2498
40.2899 12.1463
40.48 11.9084
40.6703 11.8039
40.8607 11.7321
41.0512 11.6111
41.242 11.4816
41.4327 11.2923
41.6236 11.1084
41.8146 10.9924
42.0057 10.8451
42.1969 10.7758
42.3882 10.6077
42.5797 10.3906
42.7713 10.2895
42.963 10.1721
43.1549 10.0722
43.3468 9.83327
43.5389 9.72923
43.7312 9.66769
43.9237 9.50161
44.1162 9.39003
44.3088 9.24139
44.5016 9.13645
44.6945 9.01796
44.8875 8.91712
45.0806 8.78238
45.2739 8.64456
45.4673 8.53863
45.6609 8.44756
45.8546 8.32215
46.0484 8.22185
46.2424 8.10188
46.4365 8.01797
46.631 7.874
46.8254 7.72447
47.0199 7.66521
47.2146 7.53514
47.4095 7.40828
47.6044 7.2985
47.7996 7.19286
47.9948 7.11346
48.1902 7.05386
48.3858 6.91253
48.5815 6.83381
48.7774 6.73671
48.9734 6.63332
49.1696 6.56705
49.3661 6.4277
49.5626 6.34765
49.7592 6.27366
49.956 6.16525
50.153 6.09378
50.3501 6.00254
50.5474 5.92763
50.7448 5.83934
50.9424 5.75971
51.1402 5.67316
51.3381 5.57903
51.5362 5.4945
51.7344 5.4066
51.9328 5.32139
52.1316 5.18936
52.3304 5.15428
52.5293 5.05919
52.7284 4.98037
52.9276 4.90613
53.1271 4.8435
53.3267 4.75999
53.5265 4.67331
53.7264 4.58071
53.9266 4.50742
54.1269 4.436
54.3274 4.33845
54.528 4.15122
54.7289 4.03155
54.9301 3.97084
55.1314 3.87838
55.3328 3.69414
55.5344 3.52188
55.7361 3.42709

File: Ni3Fe_FD0034.xy
TT I
1.27165 32.6375
1.45013 27.673
1.62863 24.4018
1.80712 21.6401
1.98562 22.1484
2.16411 23.7315
2.34263 24.5587
2.52115 23.7779
2.69965 27.3768
2.87818 36.7311
3.05672 64.0869
3.23527 71.9489
3.4138 38.2395
3.59237 35.4906
3.77094 34.3843
3.9495 32.2124
4.12809 41.6114
4.30669 78.4704
4.4853 53.2491
4.6639 44.4297
4.84253 52.5465
5.02118 89.2774
5.19981 299.158
5.37848 3494.07
5.55716 154.386
5.73586 101.289
5.91455 114.765
6.09328 506.107
6.27201 275.567
6.45075 69.571
6.62952 53.6065
6.8083 51.5748
6.98711 41.6962
7.16591 44.8116
7.34475 69.1008
7.5236 53.8837
7.70247 43.6874
7.88135 37.5005
8.06026 39.5025
8.23919 44.9896
8.41812 57.6834
8.59709 176.776
8.77609 546.392
8.9551 77.0693
9.13412 60.8599
9.31318 267.947
9.49226 54.9376
9.67134 55.2082
9.85047 62.4099
10.0296 108.648
10.2088 577.889
10.388 118.12
10.5672 95.4006
10.7465 236.82
10.9257 49.8248
11.105 43.8695
11.2844 42.7006
11.4637 38.811
11.6431 38.3869
11.8225 37.7711
12.002 82.2788
12.1814 48.6765
12.3609 95.1822
12.5405 43.6814
12.72 41.9734
12.8996 40.2641
13.0792 44.1054
13.2589 67.521
13.4386 170.284
13.6183 87.7924
13.7981 177.797
13.9779 58.0206
14.1577 51.343
14.3376 46.5302
14.5175 39.6988
14.6974 39.6873
14.8774 45.4981
15.0574 65.8482
15.2374 76.0472
15.4175 41.6039
15.5976 39.3935
15.7778 43.1167
15.958 57.7438
16.1382 98.8709
16.3185 39.1294
16.4988 34.2211
16.6792 32.7319
16.8596 32.7031
17.04 40.8737
17.2205 34.6005
17.401 38.0331
17.5815 43.6829
17.7622 36.2215
17.9428 40.3995
18.1237 44.3898
18.3044 93.1526
18.4852 55.0596
18.666 56.1783
18.8469 36.5198
19.0278 34.3429
19.2088 34.7015
19.3898 42.0394
19.5709 47.009
19.752 34.7612
19.9332 32.5307
20.1144 33.3515
20.2957 44.1828
20.477 38.8902
20.6586 35.8105
20.84 32.7205
21.0215 29.9214
21.203 29.3926
21.3846 30.1841
21.5662 31.6596
21.7479 30.3588
21.9297 31.7305
22.1115 42.0865
22.2933 39.8044
22.4753 33.5793
22.6572 30.3747
22.8393 31.2065
23.0214 31.6074
23.2037 39.7204
23.3859 32.6991
23.5682 34.0957
23.7505 34.9853
23.9329 36.3314
24.1154 29.2054
24.2979 27.693
24.4805 26.9377
24.6631 26.8655
24.8458 27.7596
25.0286 26.5541
25.2114 26.7464
25.3943 29.1092
25.5773 30.0525
25.7605 27.3918
25.9436 26.7907
26.1268 25.7267
26.31 26.9441
26.4933 26.9565
26.6767 26.0338
26.8601 27.7386
27.0437 28.9089
27.2272 26.1612
27.4109 24.9738
27.5946 24.8851
27.7784 25.0629
27.9623 24.8508
28.1462 25.582
28.3304 26.7795
28.5145 26.0771
28.6987 24.3563
28.8829 23.1458
29.0673 22.7176
29.2517 23.2805
29.4361 22.198
29.6207 22.1934
29.8053 22.3105
29.99 21.3448
30.1748 21.4631
30.3597 21.1625
30.5447 21.5119
30.7297 21.014
30.915 21.2736
31.1002 22.0751
31.2855 21.1966
31.4708 20.5101
31.6563 20.675
31.8418 20.9785
32.0275 20.2596
32.2132 20.3181
32.399 20.1424
32.5848 19.4027
32.7708 18.92
32.9569 18.8709
33.143 18.7663
33.3293 18.4292
33.5158 18.6968
33.7022 18.5585
33.8887 17.8792
34.0753 17.6324
34.262 17.5317
34.4488 17.1569
34.6357 17.0631
34.8227 16.7821
35.0098 16.5286
35.1969 16.341
35.3842 16.2539
35.5716 16.1863
35.759 16.3696
35.9468 16.1449
36.1345 15.806
36.3222 15.599
36.5101 15.5053
36.6981 15.2237
36.8861 15.0838
37.0743 14.9132
37.2626 14.6827
37.451 14.4479
37.6395 14.3922
37.8281 14.1175
38.0168 13.9971
38.2056 13.8804
38.3945 13.5404
38.5837 13.4783
38.7728 13.3339
38.9621 13.1366
39.1514 13.0333
39.3409 12.7791
39.5304 12.6662
39.7201 12.5003
39.9099 12.3051
40.0999 12.2446
40.2899 12.1798
40.48 11.917
40.6703 11.795
40.8607 11.6962
41.0512 11.5704
41.242 11.434
41.4327 11.2547
41.6236 11.0737
41.8146 10.9641
42.0057 10.8387
42.1969 10.7319
42.3882 10.5662
42.5797 10.4481
42.7713 10.2448
42.963 10.1107
43.1549 10.024
43.3468 9.80869
43.5389 9.7383
43.7312 9.59134
43.9237 9.51904
44.1162 9.35409
44.3088 9.2239
44.5016 9.07445
44.6945 9.01269
44.8875 8.90985
45.0806 8.71493
45.2739 8.64836
45.4673 8.54194
45.6609 8.43778
45.8546 8.29714
46.0484 8.2071
46.2424 8.06634
46.4365 7.97575
46.631 7.84155
46.8254 7.75349
47.0199 7.6427
47.2146 7.53475
47.4095 7.38108
47.6044 7.28833
47.7996 7.18334
47.9948 7.08443
48.1902 6.99484
48.3858 6.91674
48.5815 6.81003
48.7774 6.71089
48.9734 6.66011
49.1696 6.53144
49.3661 6.40964
49.5626 6.33746
49.7592 6.2371
49.956 6.17164
50.153 6.09363
50.3501 6.01076
50.5474 5.9252
50.7448 5.81299
50.9424 5.7646
51.1402 5.65131
51.3381 5.58011
51.5362 5.50867
51.7344 5.39361
51.9328 5.34052
52.1316 5.20651
52.3304 5.12426
52.5293 5.07835
52.7284 4.97846
52.9276 4.89828
53.1271 4.83909
53.3267 4.76575
53.5265 4.70782
53.7264 4.57316
53.9266 4.4954
54.1269 4.40386
54.3274 4.33532
54.528 4.14342
54.7289 4.07173
54.9301 3.9101
55.1314 3.85119
55.3328 3.64145
55.5344 3.55789
55.7361 3.46823

File: Ni3Fe_FD0035.xy
TT I
1.27165 32.3678
1.45013 27.7727
1.62863 24.3761
1.80712 22.75
1.98562 22.3412
2.16411 23.5636
2.34263 23.8601
2.52115 23.4482
2.69965 26.8132
2.87818 37.602
3.05672 64.6022
3.23527 72.1272
3.4138 37.7612
3.59237 34.7095
3.77094 33.4594
3.9495 31.4124
4.12809 39.6066
4.30669 73.8938
4.4853 50.3022
4.6639 43.7277
4.84253 52.4957
5.02118 88.9987
5.19981 299.143
5.37848 3503.01
5.55716 154.599
5.73586 100.844
5.91455 114.827
6.09328 510.211
6.27201 271.504
6.45075 68.3303
6.62952 52.5234
6.8083 49.8654
6.98711 41.6187
7.16591 43.879
7.34475 65.4913
7.5236 53.4446
7.70247 44.0474
7.88135 37.5118
8.06026 39.4554
8.23919 44.9828
8.41812 57.5728
8.59709 177.514
8.77609 536.412
8.9551 77.2199
9.13412 61.2081
9.31318 278.895
9.49226 55.2255
9.67134 55.061
9.85047 61.9372
10.0296 108.829
10.2088 584.129
10.388 116.933
10.5672 95.5965
10.7465 235.851
10.9257 49.6865
11.105 43.6216
11.2844 42.132
11.4637 38.7909
11.6431 38.1878
11.8225 37.7507
12.002 85.5123
12.1814 48.8226
12.3609 94.6421
12.5405 43.5747
12.72 41.608
12.8996 40.0144
13.0792 44.1831
13.2589 67.3248
13.4386 171.461
13.6183 87.8867
13.7981 178.794
13.9779 57.8196
14.1577 51.8939
14.3376 46.4996
14.5175 39.8266
14.6974 39.7169
14.8774 45.7823
15.0574 66.1431
15.2374 75.3661
15.4175 41.5859
15.5976 39.4637
15.7778 43.5169
15.958 57.895
16.1382 98.18
16.3185 38.9133
16.4988 34.3718
16.6792 32.6927
16.8596 32.9255
17.04 41.1456
17.2205 34.6696
17.401 38.2533
17.5815 43.3772
17.7622 36.3867
17.9428 40.4416
18.1237 44.3368
18.3044 92.9737
18.4852 55.1829
18.666 55.8376
18.8469 36.5549
19.0278 34.4763
19.2088 34.6511
19.3898 42.3538
19.5709 47.0064
19.752 34.7142
19.9332 32.7354
20.1144 33.3511
20.2957 44.1736
20.477 38.9074
20.6586 35.4901
20.84 32.7774
21.0215 29.9329
21.203 29.4159
21.3846 30.0442
21.5662 31.7153
21.7479 30.4986
21.9297 31.7907
22.1115 42.0218
22.2933 39.8412
22.4753 33.4172
22.6572 30.3315
22.8393 31.2704
23.0214 31.4116
23.2037 39.4866
23.3859 32.4817
23.5682 34.1352
23.7505 35.1016
23.9329 36.0914
24.1154 29.232
24.2979 27.71
24.4805 27.0299
24.6631 27.0465
24.8458 27.6998
25.0286 26.5711
25.2114 26.7195
25.3943 29.0885
25.5773 30.1079
25.7605 27.4014
25.9436 26.9528
26.1268 25.7929
26.31 26.9578
26.4933 27.02
26.6767 25.9231
26.8601 27.6768
27.0437 28.8444
27.2272 26.0095
27.4109 24.7733
27.5946 24.8902
27.7784 25.2236
27.9623 24.8161
28.1462 25.6084
28.3304 26.9014
28.5145 25.9213
28.6987 24.2499
28.8829 23.0156
29.0673 22.7125
29.2517 23.2034
29.4361 22.2084
29.6207 22.1446
29.8053 22.1791
29.99 21.3831
30.1748 21.5503
30.3597 21.1019
30.5447 21.4216
30.7297 21.0524
30.915 21.2328
31.1002 22.0677
31.2855 21.1434
31.4708 20.4943
31.6563 20.5241
31.8418 20.9095
32.0275 20.086
32.2132 20.328
32.399 20.1453
32.5848 19.4314
32.7708 18.9648
32.9569 18.8216
33.143 18.7226
33.3293 18.452
33.5158 18.6504
33.7022 18.4488
33.8887 17.9003
34.0753 17.6696
34.262 17.5137
34.4488 17.1807
34.6357 17.0203
34.8227 16.8404
35.0098 16.5411
35.1969 16.3876
35.3842 16.2218
35.5716 16.1538
35.759 16.2808
35.9468 16.193
36.1345 15.776
36.3222 15.5843
36.5101 15.4978
36.6981 15.1997
36.8861 15.0891
37.0743 14.9398
37.2626 14.6105
37.451 14.4727
37.6395 14.3305
37.8281 14.0822
38.0168 13.9349
38.2056 13.7694
38.3945 13.5344
38.5837 13.389
38.7728 13.2627
38.9621 13.1355
39.1514 12.9654
39.3409 12.7409
39.5304 12.5938
39.7201 12.476
39.9099 12.3447
40.0999 12.2073
40.2899 12.107
40.48 11.8824
40.6703 11.8037
40.8607 11.6766
41.0512 11.5836
41.242 11.3885
41.4327 11.1889
41.6236 11.0862
41.8146 10.9662
42.0057 10.814
42.1969 10.7035
42.3882 10.5336
42.5797 10.4028
42.7713 10.2768
42.963 10.0933
43.1549 10.0033
43.3468 9.81429
43.5389 9.68859
43.7312 9.55284
43.9237 9.45796
44.1162 9.35144
44.3088 9.2157
44.5016 9.08953
44.6945 8.95955
44.8875 8.89656
45.0806 8.77689
45.2739 8.62383
45.4673 8.49786
45.6609 8.40655
45.8546 8.32074
46.0484 8.24559
46.2424 8.09181
46.4365 7.95122
46.631 7.83837
46.8254 7.71037
47.0199 7.61942
47.2146 7.5153
47.4095 7.41789
47.6044 7.28377
47.7996 7.19711
47.9948 7.06124
48.1902 6.99708
48.3858 6.88305
48.5815 6.81666
48.7774 6.72361
48.9734 6.62194
49.1696 6.52046
49.3661 6.40245
49.5626 6.33422
49.7592 6.2521
49.956 6.15342
50.153 6.06951
50.3501 5.9877
50.5474 5.88546
50.7448 5.82024
50.9424 5.73628
51.1402 5.62714
51.3381 5.54949
51.5362 5.48858
51.7344 5.37589
51.9328 5.3099
52.1316 5.19937
52.3304 5.13818
52.5293 5.04617
52.7284 4.99264
52.9276 4.93611
53.1271 4.83728
53.3267 4.76481
53.5265 4.6559
53.7264 4.62229
53.9266 4.53831
54.1269 4.42103
54.3274 4.31224
54.528 4.19533
54.7289 4.01529
54.9301 3.92364
55.1314 3.84307
55.3328 3.64613
55.5344 3.53503
55.7361 3.43678