Folder: NiFe_MOF_catalyst_paper/XRD (part 88)

File: Ni3Fe_FD0474.xy
TT I
1.27165 7.83885
1.45013 6.65972
1.62863 5.59759
1.80712 5.17307
1.98562 4.63569
2.16411 4.41496
2.34263 5.79076
2.52115 6.4264
2.69965 6.94249
2.87818 8.44894
3.05672 10.9119
3.23527 15.0564
3.4138 18.6978
3.59237 23.3156
3.77094 26.0774
3.9495 29.7805
4.12809 34.5801
4.30669 117.412
4.4853 55.5863
4.6639 56.2245
4.84253 69.7656
5.02118 89.5913
5.19981 536.927
5.37848 206.843
5.55716 105.038
5.73586 95.328
5.91455 98.9847
6.09328 4281.07
6.27201 83.3791
6.45075 69.1048
6.62952 62.9719
6.8083 59.0804
6.98711 56.5838
7.16591 55.9308
7.34475 71.1432
7.5236 54.9275
7.70247 57.0362
7.88135 58.3161
8.06026 63.6698
8.23919 70.9
8.41812 86.3732
8.59709 1243.19
8.77609 101.509
8.9551 90.181
9.13412 84.0156
9.31318 85.489
9.49226 86.1055
9.67134 96.2159
9.85047 102.703
10.0296 412.139
10.2088 402.205
10.388 108.236
10.5672 500.004
10.7465 87.8508
10.9257 78.4202
11.105 72.7654
11.2844 69.8982
11.4637 65.8267
11.6431 64.485
11.8225 63.5867
12.002 65.8188
12.1814 155.798
12.3609 68.7777
12.5405 65.5328
12.72 69.3989
12.8996 72.1673
13.0792 82.1738
13.2589 252.774
13.4386 125.013
13.6183 254.994
13.7981 97.7076
13.9779 77.0944
14.1577 73.2866
14.3376 71.6875
14.5175 70.1598
14.6974 71.9301
14.8774 118.486
15.0574 147.638
15.2374 70.889
15.4175 67.52
15.5976 67.3975
15.7778 101.278
15.958 154.823
16.1382 62.6567
16.3185 58.8959
16.4988 56.5219
16.6792 55.3059
16.8596 55.9036
17.04 57.2913
17.2205 68.6119
17.401 71.7234
17.5815 60.4473
17.7622 62.6107
17.9428 77.4421
18.1237 140.589
18.3044 92.1695
18.4852 78.0097
18.666 61.374
18.8469 58.9733
19.0278 57.8795
19.2088 60.6404
19.3898 76.7713
19.5709 55.1169
19.752 54.2971
19.9332 57.5188
20.1144 70.4528
20.2957 64.23
20.477 53.9718
20.6586 50.4587
20.84 49.6197
21.0215 49.4804
21.203 51.6551
21.3846 49.6737
21.5662 49.8806
21.7479 54.1171
21.9297 65.4992
22.1115 56.6135
22.2933 50.6095
22.4753 49.5129
22.6572 49.9414
22.8393 53.1535
23.0214 57.8952
23.2037 49.738
23.3859 50.9051
23.5682 57.3638
23.7505 48.9948
23.9329 45.9634
24.1154 44.8842
24.2979 44.2108
24.4805 43.5314
24.6631 43.4233
24.8458 42.9018
25.0286 43.6634
25.2114 45.4836
25.3943 45.3516
25.5773 41.4879
25.7605 41.1299
25.9436 41.5474
26.1268 42.2403
26.31 40.8295
26.4933 41.4539
26.6767 42.839
26.8601 41.034
27.0437 39.3695
27.2272 39.1756
27.4109 39.1417
27.5946 39.1108
27.7784 38.4656
27.9623 38.9956
28.1462 39.2371
28.3304 37.6617
28.5145 36.5627
28.6987 36.1708
28.8829 35.8701
29.0673 35.1093
29.2517 34.8033
29.4361 34.6417
29.6207 33.5829
29.8053 33.4468
29.99 33.1333
30.1748 32.9657
30.3597 32.7864
30.5447 32.7016
30.7297 32.7694
30.915 32.0959
31.1002 31.644
31.2855 31.3394
31.4708 31.304
31.6563 30.8326
31.8418 30.6236
32.0275 30.3653
32.2132 29.7859
32.399 29.3004
32.5848 28.9727
32.7708 28.6362
32.9569 28.4424
33.143 28.2293
33.3293 27.7927
33.5158 27.4298
33.7022 26.9842
33.8887 26.7916
34.0753 26.3563
34.262 26.0238
34.4488 25.7041
34.6357 25.3679
34.8227 25.1015
35.0098 24.8446
35.1969 24.606
35.3842 24.3112
35.5716 24.1019
35.759 23.8833
35.9468 23.4921
36.1345 23.3426
36.3222 23.0054
36.5101 22.7797
36.6981 22.4132
36.8861 22.1781
37.0743 21.8523
37.2626 21.608
37.451 21.3702
37.6395 21.1592
37.8281 20.8215
38.0168 20.4985
38.2056 20.2854
38.3945 20.002
38.5837 19.7531
38.7728 19.5383
38.9621 19.255
39.1514 18.95
39.3409 18.7481
39.5304 18.5348
39.7201 18.3193
39.9099 18.1448
40.0999 17.8448
40.2899 17.6312
40.48 17.4222
40.6703 17.2518
40.8607 17.0401
41.0512 16.7708
41.242 16.4984
41.4327 16.2685
41.6236 16.0443
41.8146 15.8867
42.0057 15.6783
42.1969 15.4562
42.3882 15.2682
42.5797 15.0707
42.7713 14.8051
42.963 14.6646
43.1549 14.4203
43.3468 14.2232
43.5389 14.0591
43.7312 13.8168
43.9237 13.6563
44.1162 13.4769
44.3088 13.2994
44.5016 13.0572
44.6945 12.933
44.8875 12.7309
45.0806 12.5486
45.2739 12.3481
45.4673 12.1828
45.6609 12.0217
45.8546 11.8329
46.0484 11.7242
46.2424 11.513
46.4365 11.4035
46.631 11.1931
46.8254 11.0234
47.0199 10.8511
47.2146 10.6869
47.4095 10.5444
47.6044 10.3823
47.7996 10.2133
47.9948 10.0425
48.1902 9.92185
48.3858 9.82121
48.5815 9.66318
48.7774 9.52322
48.9734 9.37539
49.1696 9.24551
49.3661 9.07927
49.5626 8.93721
49.7592 8.80519
49.956 8.71187
50.153 8.55311
50.3501 8.42145
50.5474 8.28631
50.7448 8.16191
50.9424 8.04877
51.1402 7.89154
51.3381 7.78114
51.5362 7.67267
51.7344 7.56164
51.9328 7.42229
52.1316 7.284
52.3304 7.17053
52.5293 7.05598
52.7284 6.92202
52.9276 6.78289
53.1271 6.6941
53.3267 6.56781
53.5265 6.45477
53.7264 6.33639
53.9266 6.29024
54.1269 6.123
54.3274 6.03897
54.528 5.87295
54.7289 5.70346
54.9301 5.54703
55.1314 5.44508
55.3328 5.27255
55.5344 5.01814
55.7361 4.83698

File: Ni3Fe_FD0475.xy
TT I
1.27165 7.33152
1.45013 6.35416
1.62863 5.30679
1.80712 4.9294
1.98562 4.75073
2.16411 4.45244
2.34263 4.97875
2.52115 6.33034
2.69965 7.99011
2.87818 8.56244
3.05672 11.0172
3.23527 14.9369
3.4138 18.8194
3.59237 23.6131
3.77094 25.8489
3.9495 29.8578
4.12809 34.3334
4.30669 115.014
4.4853 55.5917
4.6639 56.6077
4.84253 69.2855
5.02118 90.3439
5.19981 541.963
5.37848 204.973
5.55716 105.065
5.73586 95.5281
5.91455 99.2623
6.09328 4271.51
6.27201 83.5763
6.45075 69.5986
6.62952 62.9887
6.8083 59.5894
6.98711 56.2501
7.16591 56.0732
7.34475 70.451
7.5236 55.0899
7.70247 56.9768
7.88135 58.6189
8.06026 63.2226
8.23919 70.7004
8.41812 86.9777
8.59709 1246.32
8.77609 101.269
8.9551 90.6345
9.13412 83.5512
9.31318 85.6965
9.49226 86.3626
9.67134 96.3346
9.85047 102.737
10.0296 413.782
10.2088 394.293
10.388 109.015
10.5672 502.826
10.7465 88.165
10.9257 79.0114
11.105 72.6701
11.2844 69.7732
11.4637 65.8801
11.6431 64.6725
11.8225 63.5769
12.002 65.8006
12.1814 156.858
12.3609 68.5758
12.5405 65.5246
12.72 69.4154
12.8996 72.5841
13.0792 82.423
13.2589 252.834
13.4386 124.772
13.6183 255.219
13.7981 97.5246
13.9779 77.417
14.1577 73.5533
14.3376 71.6795
14.5175 70.4147
14.6974 72.1234
14.8774 119.014
15.0574 146.476
15.2374 71.1195
15.4175 67.5597
15.5976 67.378
15.7778 101.632
15.958 153.46
16.1382 62.6341
16.3185 58.8345
16.4988 56.4383
16.6792 55.4412
16.8596 55.9038
17.04 57.225
17.2205 68.8031
17.401 71.493
17.5815 60.3387
17.7622 62.3715
17.9428 77.1113
18.1237 139.997
18.3044 92.3804
18.4852 78.1301
18.666 61.4531
18.8469 58.9741
19.0278 57.8683
19.2088 61.1237
19.3898 76.5978
19.5709 54.8491
19.752 54.347
19.9332 57.6836
20.1144 70.5662
20.2957 64.3682
20.477 53.9422
20.6586 50.555
20.84 49.565
21.0215 49.4184
21.203 51.6262
21.3846 49.7491
21.5662 50.1014
21.7479 54.0855
21.9297 65.3229
22.1115 56.4903
22.2933 50.5796
22.4753 49.5789
22.6572 49.8863
22.8393 53.0102
23.0214 57.9418
23.2037 49.6532
23.3859 50.7972
23.5682 57.2576
23.7505 48.8901
23.9329 45.7962
24.1154 44.7253
24.2979 43.854
24.4805 43.6576
24.6631 43.4133
24.8458 42.9842
25.0286 43.6008
25.2114 45.3927
25.3943 45.1119
25.5773 41.4504
25.7605 41.1333
25.9436 41.4939
26.1268 42.3316
26.31 40.8673
26.4933 41.399
26.6767 42.6881
26.8601 41.0435
27.0437 39.5165
27.2272 39.2
27.4109 39.0118
27.5946 39.1007
27.7784 38.6474
27.9623 39.0522
28.1462 39.3512
28.3304 37.7405
28.5145 36.3869
28.6987 36.2027
28.8829 35.9078
29.0673 35.1566
29.2517 34.8865
29.4361 34.6657
29.6207 33.6659
29.8053 33.3698
29.99 33.0226
30.1748 32.9126
30.3597 32.7377
30.5447 32.6695
30.7297 32.7772
30.915 32.0331
31.1002 31.6045
31.2855 31.3401
31.4708 31.2525
31.6563 30.7881
31.8418 30.5538
32.0275 30.2609
32.2132 29.8789
32.399 29.3695
32.5848 28.9484
32.7708 28.5944
32.9569 28.4117
33.143 28.2096
33.3293 27.8445
33.5158 27.4057
33.7022 26.9999
33.8887 26.7173
34.0753 26.2598
34.262 26.0187
34.4488 25.7402
34.6357 25.3785
34.8227 25.1034
35.0098 24.8322
35.1969 24.5391
35.3842 24.3318
35.5716 24.0886
35.759 23.8267
35.9468 23.4836
36.1345 23.2729
36.3222 22.9815
36.5101 22.7236
36.6981 22.4465
36.8861 22.0895
37.0743 21.8264
37.2626 21.5495
37.451 21.2872
37.6395 21.1437
37.8281 20.8176
38.0168 20.5285
38.2056 20.198
38.3945 19.9554
38.5837 19.6743
38.7728 19.4913
38.9621 19.2399
39.1514 18.9545
39.3409 18.6905
39.5304 18.4898
39.7201 18.2809
39.9099 18.0854
40.0999 17.8331
40.2899 17.6106
40.48 17.3965
40.6703 17.1478
40.8607 16.9364
41.0512 16.7164
41.242 16.4527
41.4327 16.3047
41.6236 16.0565
41.8146 15.8611
42.0057 15.6337
42.1969 15.4134
42.3882 15.2415
42.5797 15.0456
42.7713 14.8806
42.963 14.6631
43.1549 14.4071
43.3468 14.1632
43.5389 13.9796
43.7312 13.8259
43.9237 13.6618
44.1162 13.4449
44.3088 13.2201
44.5016 13.0746
44.6945 12.9256
44.8875 12.7062
45.0806 12.5449
45.2739 12.3816
45.4673 12.2039
45.6609 11.9673
45.8546 11.839
46.0484 11.7024
46.2424 11.5108
46.4365 11.3414
46.631 11.14
46.8254 10.9779
47.0199 10.846
47.2146 10.6975
47.4095 10.5137
47.6044 10.379
47.7996 10.2259
47.9948 10.0673
48.1902 9.93657
48.3858 9.76894
48.5815 9.67081
48.7774 9.53228
48.9734 9.35307
49.1696 9.2129
49.3661 9.08439
49.5626 8.91266
49.7592 8.80518
49.956 8.66893
50.153 8.55156
50.3501 8.41879
50.5474 8.34808
50.7448 8.1203
50.9424 8.0648
51.1402 7.91189
51.3381 7.76349
51.5362 7.62684
51.7344 7.50069
51.9328 7.38991
52.1316 7.27828
52.3304 7.11853
52.5293 7.07022
52.7284 6.9283
52.9276 6.81136
53.1271 6.70831
53.3267 6.59744
53.5265 6.47141
53.7264 6.33553
53.9266 6.22661
54.1269 6.12834
54.3274 6.05872
54.528 5.87626
54.7289 5.68287
54.9301 5.58574
55.1314 5.40015
55.3328 5.19577
55.5344 5.04978
55.7361 4.91382

File: Ni3Fe_FD0476.xy
TT I
1.27165 6.92118
1.45013 6.40026
1.62863 5.58117
1.80712 5.079
1.98562 4.69881
2.16411 4.81579
2.34263 5.07049
2.52115 6.94024
2.69965 7.19146
2.87818 8.17143
3.05672 11.3938
3.23527 15.073
3.4138 18.832
3.59237 23.4521
3.77094 26.2491
3.9495 29.667
4.12809 34.4267
4.30669 114.423
4.4853 55.5733
4.6639 56.053
4.84253 69.4095
5.02118 90.0778
5.19981 539.284
5.37848 206.051
5.55716 104.887
5.73586 95.1978
5.91455 99.3111
6.09328 4247.95
6.27201 83.2889
6.45075 68.8684
6.62952 63.4016
6.8083 59.4073
6.98711 56.4364
7.16591 56.1773
7.34475 70.698
7.5236 55.282
7.70247 56.9188
7.88135 58.5688
8.06026 63.583
8.23919 70.6459
8.41812 86.2364
8.59709 1245.05
8.77609 101.232
8.9551 90.5172
9.13412 84.2522
9.31318 85.4244
9.49226 86.1045
9.67134 96.8397
9.85047 102.82
10.0296 412.325
10.2088 401.243
10.388 108.577
10.5672 500.812
10.7465 87.9013
10.9257 78.7114
11.105 72.6006
11.2844 69.9816
11.4637 66.0302
11.6431 64.4364
11.8225 63.5555
12.002 65.6816
12.1814 156.131
12.3609 68.8081
12.5405 65.6629
12.72 69.4664
12.8996 72.5946
13.0792 82.4264
13.2589 252.405
13.4386 125.09
13.6183 254.142
13.7981 97.6209
13.9779 77.1426
14.1577 73.1276
14.3376 71.7288
14.5175 70.3086
14.6974 71.9762
14.8774 118.852
15.0574 147.743
15.2374 70.8917
15.4175 67.5782
15.5976 67.3446
15.7778 101.496
15.958 154.412
16.1382 62.5057
16.3185 58.8613
16.4988 56.3189
16.6792 55.5429
16.8596 55.8835
17.04 57.2079
17.2205 68.9869
17.401 71.5805
17.5815 60.2412
17.7622 62.4096
17.9428 77.4002
18.1237 140.142
18.3044 92.142
18.4852 78.1663
18.666 61.208
18.8469 58.9493
19.0278 57.9027
19.2088 60.8828
19.3898 76.2541
19.5709 55.0012
19.752 54.1696
19.9332 57.6549
20.1144 70.618
20.2957 64.2046
20.477 54.0521
20.6586 50.5733
20.84 49.7183
21.0215 49.5201
21.203 51.5618
21.3846 49.742
21.5662 49.9994
21.7479 53.8353
21.9297 65.4818
22.1115 56.6467
22.2933 50.5231
22.4753 49.4046
22.6572 49.7252
22.8393 52.8431
23.0214 57.8347
23.2037 49.6212
23.3859 50.9197
23.5682 57.4202
23.7505 48.9689
23.9329 45.8754
24.1154 44.6787
24.2979 44.0651
24.4805 43.6601
24.6631 43.471
24.8458 42.993
25.0286 43.6123
25.2114 45.354
25.3943 45.1734
25.5773 41.4723
25.7605 41.0783
25.9436 41.5173
26.1268 42.3365
26.31 40.7879
26.4933 41.4466
26.6767 42.7689
26.8601 41.0548
27.0437 39.4619
27.2272 39.1128
27.4109 39.0885
27.5946 38.9078
27.7784 38.5701
27.9623 39.0217
28.1462 39.4186
28.3304 37.5138
28.5145 36.5423
28.6987 36.1814
28.8829 36.0031
29.0673 35.1464
29.2517 34.9167
29.4361 34.6553
29.6207 33.6642
29.8053 33.3937
29.99 33.0417
30.1748 32.9658
30.3597 32.6968
30.5447 32.7163
30.7297 32.8217
30.915 32.0655
31.1002 31.6343
31.2855 31.33
31.4708 31.3167
31.6563 30.7617
31.8418 30.5596
32.0275 30.3556
32.2132 29.826
32.399 29.4364
32.5848 28.8364
32.7708 28.6085
32.9569 28.434
33.143 28.0961
33.3293 27.783
33.5158 27.4347
33.7022 27.007
33.8887 26.7051
34.0753 26.365
34.262 26.0765
34.4488 25.6136
34.6357 25.3229
34.8227 24.942
35.0098 24.9262
35.1969 24.5502
35.3842 24.3232
35.5716 24.1404
35.759 23.808
35.9468 23.4066
36.1345 23.1931
36.3222 23.0277
36.5101 22.6826
36.6981 22.459
36.8861 22.1572
37.0743 21.8107
37.2626 21.5733
37.451 21.2769
37.6395 21.0816
37.8281 20.8355
38.0168 20.5386
38.2056 20.2176
38.3945 19.9748
38.5837 19.7769
38.7728 19.5159
38.9621 19.1938
39.1514 18.994
39.3409 18.7
39.5304 18.5283
39.7201 18.3096
39.9099 18.0878
40.0999 17.7891
40.2899 17.57
40.48 17.4028
40.6703 17.0951
40.8607 17.0435
41.0512 16.7754
41.242 16.4657
41.4327 16.3111
41.6236 16.0972
41.8146 15.8812
42.0057 15.6263
42.1969 15.4233
42.3882 15.2389
42.5797 14.9562
42.7713 14.7927
42.963 14.6278
43.1549 14.3982
43.3468 14.1858
43.5389 13.9905
43.7312 13.7926
43.9237 13.617
44.1162 13.4382
44.3088 13.2333
44.5016 13.0959
44.6945 12.8686
44.8875 12.7216
45.0806 12.5283
45.2739 12.3883
45.4673 12.1939
45.6609 12.0099
45.8546 11.8619
46.0484 11.6933
46.2424 11.5062
46.4365 11.3593
46.631 11.1511
46.8254 11.0214
47.0199 10.8609
47.2146 10.7147
47.4095 10.4973
47.6044 10.3569
47.7996 10.1954
47.9948 10.0952
48.1902 9.91225
48.3858 9.74342
48.5815 9.68975
48.7774 9.52183
48.9734 9.37076
49.1696 9.23591
49.3661 9.07898
49.5626 8.89773
49.7592 8.81334
49.956 8.70675
50.153 8.55194
50.3501 8.42318
50.5474 8.28575
50.7448 8.156
50.9424 7.98684
51.1402 7.87962
51.3381 7.75988
51.5362 7.61953
51.7344 7.51233
51.9328 7.40164
52.1316 7.25131
52.3304 7.14522
52.5293 7.02234
52.7284 6.96598
52.9276 6.77168
53.1271 6.6863
53.3267 6.59398
53.5265 6.49112
53.7264 6.38177
53.9266 6.26158
54.1269 6.12748
54.3274 6.0282
54.528 5.89951
54.7289 5.72726
54.9301 5.52731
55.1314 5.46016
55.3328 5.21153
55.5344 5.04427
55.7361 4.86083

File: Ni3Fe_FD0477.xy
TT I
1.27165 7.299
1.45013 6.2282
1.62863 5.53523
1.80712 5.02742
1.98562 4.98147
2.16411 4.84752
2.34263 5.19805
2.52115 5.67812
2.69965 7.80764
2.87818 8.72747
3.05672 11.2572
3.23527 14.9837
3.4138 18.9573
3.59237 23.1885
3.77094 26.3393
3.9495 29.8436
4.12809 34.4407
4.30669 113.319
4.4853 55.5566
4.6639 56.7257
4.84253 69.4897
5.02118 90.0987
5.19981 541.727
5.37848 205.718
5.55716 105.211
5.73586 95.2618
5.91455 99.2618
6.09328 4270.49
6.27201 83.6595
6.45075 69.4268
6.62952 63.2679
6.8083 59.6716
6.98711 56.2084
7.16591 56.4736
7.34475 70.0733
7.5236 54.8763
7.70247 57.3612
7.88135 58.4908
8.06026 63.4842
8.23919 70.8223
8.41812 86.6887
8.59709 1251.12
8.77609 101.413
8.9551 90.3347
9.13412 84.0625
9.31318 85.5111
9.49226 86.0998
9.67134 96.1739
9.85047 102.845
10.0296 414.098
10.2088 398.07
10.388 108.679
10.5672 500.846
10.7465 88.2415
10.9257 79.1696
11.105 72.7627
11.2844 69.6882
11.4637 65.8393
11.6431 64.6084
11.8225 63.8063
12.002 65.8325
12.1814 156.466
12.3609 68.4469
12.5405 65.666
12.72 69.4038
12.8996 72.5072
13.0792 82.3049
13.2589 252.755
13.4386 124.805
13.6183 255.182
13.7981 97.3397
13.9779 76.9754
14.1577 73.281
14.3376 71.5772
14.5175 70.2504
14.6974 71.9471
14.8774 118.833
15.0574 147.343
15.2374 70.8671
15.4175 67.6694
15.5976 67.2191
15.7778 101.558
15.958 153.797
16.1382 62.5272
16.3185 58.8469
16.4988 56.4972
16.6792 55.3303
16.8596 55.8378
17.04 57.2035
17.2205 68.8757
17.401 71.4508
17.5815 60.2185
17.7622 62.6034
17.9428 77.4532
18.1237 139.921
18.3044 92.2192
18.4852 77.9762
18.666 61.3185
18.8469 59.0458
19.0278 57.7544
19.2088 60.7479
19.3898 76.4306
19.5709 55.0907
19.752 54.3617
19.9332 57.7679
20.1144 70.3887
20.2957 64.2637
20.477 54.0374
20.6586 50.5566
20.84 49.6055
21.0215 49.6453
21.203 51.5581
21.3846 49.6786
21.5662 49.9243
21.7479 54.1359
21.9297 65.3327
22.1115 56.5483
22.2933 50.572
22.4753 49.2743
22.6572 49.8626
22.8393 53.0563
23.0214 57.9127
23.2037 49.5784
23.3859 51.0751
23.5682 57.4903
23.7505 48.7689
23.9329 45.9765
24.1154 44.9648
24.2979 44.0826
24.4805 43.5009
24.6631 43.4376
24.8458 42.9198
25.0286 43.7047
25.2114 45.309
25.3943 45.3278
25.5773 41.5889
25.7605 41.1169
25.9436 41.5367
26.1268 42.2896
26.31 40.697
26.4933 41.4782
26.6767 42.7868
26.8601 40.9324
27.0437 39.5478
27.2272 39.0978
27.4109 39.0314
27.5946 38.98
27.7784 38.5433
27.9623 38.882
28.1462 39.3201
28.3304 37.6864
28.5145 36.5542
28.6987 36.1483
28.8829 35.9569
29.0673 35.167
29.2517 34.9493
29.4361 34.7146
29.6207 33.7408
29.8053 33.3679
29.99 33.0644
30.1748 32.847
30.3597 32.8459
30.5447 32.5783
30.7297 32.6662
30.915 32.1156
31.1002 31.5883
31.2855 31.3614
31.4708 31.2701
31.6563 30.801
31.8418 30.6137
32.0275 30.3987
32.2132 29.7805
32.399 29.3789
32.5848 28.9224
32.7708 28.5654
32.9569 28.5084
33.143 28.2132
33.3293 27.7838
33.5158 27.3612
33.7022 27.0721
33.8887 26.7427
34.0753 26.4159
34.262 26.055
34.4488 25.6486
34.6357 25.3354
34.8227 25.0631
35.0098 24.8764
35.1969 24.5357
35.3842 24.3518
35.5716 24.0322
35.759 23.8171
35.9468 23.4236
36.1345 23.1738
36.3222 23.0138
36.5101 22.8357
36.6981 22.4167
36.8861 22.1062
37.0743 21.8387
37.2626 21.6117
37.451 21.2726
37.6395 21.0949
37.8281 20.8025
38.0168 20.5489
38.2056 20.2548
38.3945 19.9579
38.5837 19.6442
38.7728 19.4411
38.9621 19.2406
39.1514 18.9356
39.3409 18.7406
39.5304 18.5094
39.7201 18.3176
39.9099 18.1272
40.0999 17.8285
40.2899 17.5654
40.48 17.3323
40.6703 17.1421
40.8607 16.9925
41.0512 16.7481
41.242 16.4886
41.4327 16.2976
41.6236 16.0388
41.8146 15.8718
42.0057 15.6408
42.1969 15.4067
42.3882 15.2683
42.5797 14.9719
42.7713 14.8319
42.963 14.6392
43.1549 14.4495
43.3468 14.2006
43.5389 14.0096
43.7312 13.8666
43.9237 13.6731
44.1162 13.4434
44.3088 13.2445
44.5016 13.061
44.6945 12.8888
44.8875 12.7271
45.0806 12.5709
45.2739 12.3734
45.4673 12.2161
45.6609 11.9984
45.8546 11.8665
46.0484 11.6689
46.2424 11.5409
46.4365 11.3442
46.631 11.1773
46.8254 11.001
47.0199 10.8751
47.2146 10.697
47.4095 10.5356
47.6044 10.3857
47.7996 10.2093
47.9948 10.0569
48.1902 9.93272
48.3858 9.77105
48.5815 9.6639
48.7774 9.4971
48.9734 9.41916
49.1696 9.2188
49.3661 9.09369
49.5626 8.93959
49.7592 8.81656
49.956 8.69188
50.153 8.55222
50.3501 8.40354
50.5474 8.29501
50.7448 8.16233
50.9424 8.0541
51.1402 7.93414
51.3381 7.81871
51.5362 7.65233
51.7344 7.51899
51.9328 7.37014
52.1316 7.27306
52.3304 7.18755
52.5293 7.02478
52.7284 6.93536
52.9276 6.80135
53.1271 6.72376
53.3267 6.57722
53.5265 6.46672
53.7264 6.35616
53.9266 6.27286
54.1269 6.12749
54.3274 5.99632
54.528 5.91429
54.7289 5.74769
54.9301 5.53701
55.1314 5.42414
55.3328 5.19205
55.5344 5.02996
55.7361 4.88427

File: Ni3Fe_FD0478.xy
TT I
1.27165 7.7898
1.45013 5.72349
1.62863 5.44351
1.80712 4.89515
1.98562 4.67581
2.16411 4.67212
2.34263 4.88436
2.52115 6.2177
2.69965 7.55174
2.87818 8.232
3.05672 10.872
3.23527 14.6336
3.4138 18.9733
3.59237 23.2519
3.77094 25.7832
3.9495 30.0817
4.12809 35.0189
4.30669 112.604
4.4853 55.4281
4.6639 56.2682
4.84253 69.2466
5.02118 90.2488
5.19981 537.554
5.37848 207.269
5.55716 104.668
5.73586 95.2849
5.91455 98.6712
6.09328 4239.06
6.27201 83.3558
6.45075 69.5206
6.62952 63.1562
6.8083 59.658
6.98711 56.2936
7.16591 55.9593
7.34475 70.2028
7.5236 54.9731
7.70247 57.19
7.88135 58.5749
8.06026 63.7058
8.23919 70.5736
8.41812 86.3426
8.59709 1243.2
8.77609 101.067
8.9551 90.4173
9.13412 83.5985
9.31318 85.5344
9.49226 86.2069
9.67134 96.138
9.85047 102.939
10.0296 412.856
10.2088 401.283
10.388 108.903
10.5672 500.276
10.7465 88.1228
10.9257 78.6811
11.105 72.383
11.2844 69.8772
11.4637 65.6767
11.6431 64.2182
11.8225 63.3627
12.002 65.7306
12.1814 155.915
12.3609 68.8201
12.5405 65.5408
12.72 69.1875
12.8996 72.5336
13.0792 82.373
13.2589 252.553
13.4386 125.202
13.6183 255.612
13.7981 97.6031
13.9779 76.7786
14.1577 73.1285
14.3376 71.4625
14.5175 69.8472
14.6974 71.9695
14.8774 118.66
15.0574 148.612
15.2374 70.7861
15.4175 67.4747
15.5976 67.1492
15.7778 101.588
15.958 154.638
16.1382 62.5297
16.3185 58.927
16.4988 56.1718
16.6792 55.2592
16.8596 55.8859
17.04 57.2296
17.2205 68.7816
17.401 71.7489
17.5815 60.3105
17.7622 62.6556
17.9428 77.2682
18.1237 140.244
18.3044 92.2982
18.4852 78.1837
18.666 61.2622
18.8469 58.9077
19.0278 57.8201
19.2088 60.7233
19.3898 76.6433
19.5709 55.0449
19.752 54.1485
19.9332 57.7436
20.1144 70.6129
20.2957 64.494
20.477 53.984
20.6586 50.3676
20.84 49.6436
21.0215 49.4053
21.203 51.6117
21.3846 49.773
21.5662 50.0472
21.7479 54.0616
21.9297 65.4824
22.1115 56.4911
22.2933 50.582
22.4753 49.4506
22.6572 49.975
22.8393 53.1443
23.0214 58.0939
23.2037 49.6435
23.3859 50.9118
23.5682 57.3522
23.7505 48.9054
23.9329 45.8318
24.1154 44.7544
24.2979 44.0853
24.4805 43.6787
24.6631 43.5219
24.8458 42.8834
25.0286 43.6389
25.2114 45.4842
25.3943 45.2524
25.5773 41.5602
25.7605 41.1317
25.9436 41.5189
26.1268 42.3394
26.31 40.708
26.4933 41.5367
26.6767 42.7133
26.8601 41.0493
27.0437 39.5183
27.2272 39.1946
27.4109 38.9696
27.5946 39.0246
27.7784 38.5556
27.9623 39.0246
28.1462 39.4384
28.3304 37.6078
28.5145 36.4307
28.6987 36.0901
28.8829 35.9788
29.0673 35.1784
29.2517 34.9044
29.4361 34.6133
29.6207 33.6492
29.8053 33.2213
29.99 33.0615
30.1748 32.949
30.3597 32.7826
30.5447 32.628
30.7297 32.671
30.915 32.0175
31.1002 31.6212
31.2855 31.3237
31.4708 31.2436
31.6563 30.8564
31.8418 30.6447
32.0275 30.3564
32.2132 29.7987
32.399 29.293
32.5848 28.7888
32.7708 28.5968
32.9569 28.4485
33.143 28.2236
33.3293 27.8511
33.5158 27.4781
33.7022 26.9656
33.8887 26.7651
34.0753 26.3784
34.262 26.0387
34.4488 25.6593
34.6357 25.3161
34.8227 25.0492
35.0098 24.8564
35.1969 24.5811
35.3842 24.3618
35.5716 24.1078
35.759 23.9192
35.9468 23.3858
36.1345 23.2172
36.3222 23.0092
36.5101 22.7768
36.6981 22.4142
36.8861 22.1313
37.0743 21.7572
37.2626 21.5614
37.451 21.286
37.6395 21.1255
37.8281 20.7659
38.0168 20.4281
38.2056 20.2084
38.3945 19.9716
38.5837 19.7749
38.7728 19.4974
38.9621 19.2071
39.1514 19.0147
39.3409 18.6814
39.5304 18.498
39.7201 18.4099
39.9099 18.0717
40.0999 17.8376
40.2899 17.5571
40.48 17.3942
40.6703 17.1441
40.8607 16.9502
41.0512 16.783
41.242 16.4998
41.4327 16.2979
41.6236 16.081
41.8146 15.8551
42.0057 15.5918
42.1969 15.4625
42.3882 15.2099
42.5797 15.0279
42.7713 14.8305
42.963 14.6102
43.1549 14.4557
43.3468 14.1613
43.5389 14.0336
43.7312 13.8341
43.9237 13.6509
44.1162 13.5049
44.3088 13.2677
44.5016 13.0635
44.6945 12.888
44.8875 12.7023
45.0806 12.5273
45.2739 12.3351
45.4673 12.1853
45.6609 12.0218
45.8546 11.8416
46.0484 11.7188
46.2424 11.5336
46.4365 11.344
46.631 11.1986
46.8254 11.0101
47.0199 10.8402
47.2146 10.7031
47.4095 10.5298
47.6044 10.325
47.7996 10.2703
47.9948 10.0665
48.1902 9.94392
48.3858 9.79585
48.5815 9.65433
48.7774 9.54596
48.9734 9.3478
49.1696 9.2456
49.3661 9.09113
49.5626 8.93281
49.7592 8.79822
49.956 8.70204
50.153 8.52694
50.3501 8.4027
50.5474 8.28606
50.7448 8.17617
50.9424 8.05078
51.1402 7.90508
51.3381 7.77647
51.5362 7.64155
51.7344 7.51304
51.9328 7.4349
52.1316 7.25985
52.3304 7.21048
52.5293 7.03303
52.7284 6.96933
52.9276 6.79421
53.1271 6.67808
53.3267 6.60091
53.5265 6.45486
53.7264 6.36545
53.9266 6.23052
54.1269 6.10725
54.3274 6.01943
54.528 5.8623
54.7289 5.69776
54.9301 5.57197
55.1314 5.41985
55.3328 5.22411
55.5344 5.02491
55.7361 4.8752