Folder: NiFe_MOF_catalyst_paper/XRD (part 140)

File: Ni3Fe_FD0758.xy
TT I
1.27165 6.72362
1.45013 6.49984
1.62863 4.87207
1.80712 4.75137
1.98562 4.70625
2.16411 5.44966
2.34263 5.64669
2.52115 7.04103
2.69965 8.77467
2.87818 9.01191
3.05672 10.9084
3.23527 15.071
3.4138 19.0732
3.59237 24.2771
3.77094 26.2607
3.9495 29.2903
4.12809 34.7634
4.30669 258.309
4.4853 69.3534
4.6639 54.7647
4.84253 66.3236
5.02118 84.9864
5.19981 301.66
5.37848 188.88
5.55716 100.83
5.73586 90.4227
5.91455 91.7509
6.09328 4309.04
6.27201 82.5552
6.45075 67.048
6.62952 62.6536
6.8083 58.4658
6.98711 55.4515
7.16591 55.1061
7.34475 100.632
7.5236 54.683
7.70247 55.8061
7.88135 56.992
8.06026 61.4442
8.23919 68.6472
8.41812 84.3882
8.59709 1094.72
8.77609 98.7295
8.9551 91.9804
9.13412 81.0509
9.31318 81.6266
9.49226 83.7367
9.67134 99.0562
9.85047 98.6722
10.0296 302.028
10.2088 409.551
10.388 103.749
10.5672 510.572
10.7465 85.8073
10.9257 77.9562
11.105 71.5782
11.2844 70.1598
11.4637 64.0828
11.6431 63.1689
11.8225 62.0266
12.002 62.8347
12.1814 147.411
12.3609 71.3538
12.5405 63.9369
12.72 70.4831
12.8996 70.1543
13.0792 77.6713
13.2589 226.039
13.4386 127.547
13.6183 237.131
13.7981 98.7501
13.9779 75.1169
14.1577 71.9366
14.3376 71.652
14.5175 68.0647
14.6974 69.5701
14.8774 105.349
15.0574 152.434
15.2374 70.9889
15.4175 65.491
15.5976 65.1734
15.7778 90.573
15.958 158.209
16.1382 62.7545
16.3185 58.5608
16.4988 54.9791
16.6792 54.0709
16.8596 54.7232
17.04 55.171
17.2205 65.6129
17.401 71.2869
17.5815 58.7999
17.7622 60.5295
17.9428 71.6765
18.1237 138.286
18.3044 88.7731
18.4852 78.0152
18.666 59.8448
18.8469 57.5257
19.0278 56.5738
19.2088 58.6151
19.3898 76.6212
19.5709 53.7945
19.752 52.7938
19.9332 55.4027
20.1144 69.0668
20.2957 63.3443
20.477 53.3935
20.6586 49.3009
20.84 48.4598
21.0215 48.1563
21.203 50.3664
21.3846 48.588
21.5662 48.3536
21.7479 51.7346
21.9297 64.2545
22.1115 55.4994
22.2933 49.5616
22.4753 48.6429
22.6572 48.3256
22.8393 51.2509
23.0214 57.1128
23.2037 48.4888
23.3859 49.0797
23.5682 56.5602
23.7505 48.1705
23.9329 44.7072
24.1154 43.8286
24.2979 43.0803
24.4805 42.498
24.6631 42.5396
24.8458 41.8778
25.0286 42.3563
25.2114 44.1854
25.3943 44.4163
25.5773 40.6044
25.7605 40.1192
25.9436 40.5361
26.1268 41.3475
26.31 39.6993
26.4933 40.3646
26.6767 41.9111
26.8601 40.1714
27.0437 38.5705
27.2272 38.2907
27.4109 38.0726
27.5946 38.1808
27.7784 37.437
27.9623 38.0225
28.1462 38.6088
28.3304 36.9823
28.5145 35.7395
28.6987 35.3499
28.8829 35.2842
29.0673 34.4241
29.2517 34.1086
29.4361 33.8611
29.6207 32.9239
29.8053 32.6621
29.99 32.3921
30.1748 32.2467
30.3597 32.0111
30.5447 31.9394
30.7297 32.0329
30.915 31.4335
31.1002 30.9341
31.2855 30.6026
31.4708 30.5774
31.6563 30.1218
31.8418 29.9555
32.0275 29.6805
32.2132 29.1868
32.399 28.7074
32.5848 28.2743
32.7708 27.966
32.9569 27.7941
33.143 27.5625
33.3293 27.1933
33.5158 26.7961
33.7022 26.4465
33.8887 26.1464
34.0753 25.8566
34.262 25.5652
34.4488 25.1654
34.6357 24.7251
34.8227 24.4876
35.0098 24.2669
35.1969 23.9812
35.3842 23.8078
35.5716 23.5736
35.759 23.3406
35.9468 22.9588
36.1345 22.7445
36.3222 22.4656
36.5101 22.2416
36.6981 21.8813
36.8861 21.634
37.0743 21.3997
37.2626 21.1507
37.451 20.8523
37.6395 20.6882
37.8281 20.3719
38.0168 20.102
38.2056 19.7826
38.3945 19.5363
38.5837 19.3307
38.7728 19.0434
38.9621 18.928
39.1514 18.5676
39.3409 18.3342
39.5304 18.1327
39.7201 17.9659
39.9099 17.725
40.0999 17.5054
40.2899 17.25
40.48 17.0478
40.6703 16.7955
40.8607 16.6635
41.0512 16.4256
41.242 16.1831
41.4327 15.9718
41.6236 15.7565
41.8146 15.5761
42.0057 15.3478
42.1969 15.1393
42.3882 14.9179
42.5797 14.7327
42.7713 14.5514
42.963 14.3595
43.1549 14.1521
43.3468 13.9456
43.5389 13.7626
43.7312 13.5937
43.9237 13.3336
44.1162 13.2049
44.3088 12.9989
44.5016 12.8376
44.6945 12.7324
44.8875 12.4624
45.0806 12.297
45.2739 12.1182
45.4673 11.9502
45.6609 11.8246
45.8546 11.6359
46.0484 11.4517
46.2424 11.307
46.4365 11.1725
46.631 10.9557
46.8254 10.8181
47.0199 10.667
47.2146 10.5209
47.4095 10.3508
47.6044 10.2102
47.7996 10.0461
47.9948 9.91373
48.1902 9.74988
48.3858 9.60503
48.5815 9.45459
48.7774 9.33671
48.9734 9.23476
49.1696 9.03152
49.3661 8.90904
49.5626 8.77777
49.7592 8.65534
49.956 8.54567
50.153 8.39163
50.3501 8.26463
50.5474 8.10733
50.7448 8.01993
50.9424 7.88191
51.1402 7.78201
51.3381 7.62836
51.5362 7.49743
51.7344 7.38485
51.9328 7.27543
52.1316 7.10223
52.3304 7.07382
52.5293 6.95172
52.7284 6.83044
52.9276 6.68949
53.1271 6.59628
53.3267 6.43714
53.5265 6.36669
53.7264 6.24221
53.9266 6.14249
54.1269 6.02795
54.3274 5.91187
54.528 5.79577
54.7289 5.6365
54.9301 5.47117
55.1314 5.32392
55.3328 5.10934
55.5344 4.989
55.7361 4.7605

File: Ni3Fe_FD0759.xy
TT I
1.27165 7.40534
1.45013 6.26157
1.62863 5.01313
1.80712 4.91621
1.98562 4.73348
2.16411 4.7895
2.34263 5.49583
2.52115 7.50933
2.69965 8.72314
2.87818 8.36518
3.05672 11.1277
3.23527 14.8445
3.4138 18.8308
3.59237 24.4064
3.77094 26.1587
3.9495 29.7674
4.12809 34.6136
4.30669 260.389
4.4853 69.6267
4.6639 54.9836
4.84253 66.3869
5.02118 85.217
5.19981 300.947
5.37848 187.852
5.55716 100.786
5.73586 90.8878
5.91455 91.5514
6.09328 4317.89
6.27201 82.5979
6.45075 67.0141
6.62952 62.7324
6.8083 58.6688
6.98711 55.5252
7.16591 55.1247
7.34475 100.427
7.5236 54.5022
7.70247 55.9947
7.88135 57.5026
8.06026 61.814
8.23919 69.0282
8.41812 84.3241
8.59709 1093.05
8.77609 98.7514
8.9551 92.1164
9.13412 81.0296
9.31318 81.9025
9.49226 83.6434
9.67134 99.3611
9.85047 98.6428
10.0296 302.264
10.2088 407.38
10.388 103.664
10.5672 510.853
10.7465 86.0073
10.9257 78.2125
11.105 71.3991
11.2844 70.3933
11.4637 64.7505
11.6431 63.1406
11.8225 61.9296
12.002 62.7325
12.1814 146.956
12.3609 71.2063
12.5405 64.177
12.72 70.0035
12.8996 70.1227
13.0792 77.322
13.2589 225.543
13.4386 126.794
13.6183 237.334
13.7981 98.4932
13.9779 74.9302
14.1577 72.1264
14.3376 71.5388
14.5175 68.0499
14.6974 69.6291
14.8774 105.213
15.0574 151.837
15.2374 70.7417
15.4175 66.0112
15.5976 65.1475
15.7778 90.8873
15.958 157.844
16.1382 62.821
16.3185 58.2778
16.4988 54.9587
16.6792 54.1075
16.8596 55.0344
17.04 55.2183
17.2205 65.4224
17.401 70.8573
17.5815 58.568
17.7622 60.6165
17.9428 71.7229
18.1237 138.226
18.3044 88.6699
18.4852 77.9934
18.666 59.8181
18.8469 57.4347
19.0278 56.4499
19.2088 58.794
19.3898 76.6847
19.5709 53.7407
19.752 52.7993
19.9332 55.5912
20.1144 69.35
20.2957 63.3669
20.477 53.2613
20.6586 49.2838
20.84 48.4377
21.0215 47.9865
21.203 50.2444
21.3846 48.668
21.5662 48.1922
21.7479 51.6932
21.9297 63.9139
22.1115 55.486
22.2933 49.5721
22.4753 48.5526
22.6572 48.4073
22.8393 51.0706
23.0214 57.158
23.2037 48.2588
23.3859 49.1333
23.5682 56.4099
23.7505 48.1103
23.9329 45.0675
24.1154 43.7165
24.2979 43.0864
24.4805 42.4822
24.6631 42.4812
24.8458 42.0178
25.0286 42.2898
25.2114 44.3465
25.3943 44.3571
25.5773 40.5334
25.7605 40.0493
25.9436 40.5261
26.1268 41.6149
26.31 39.738
26.4933 40.2976
26.6767 41.8697
26.8601 40.0605
27.0437 38.5791
27.2272 38.1238
27.4109 38.1281
27.5946 38.1016
27.7784 37.457
27.9623 38.1225
28.1462 38.4487
28.3304 37.0173
28.5145 35.6559
28.6987 35.3288
28.8829 35.1251
29.0673 34.3895
29.2517 34.1565
29.4361 33.9975
29.6207 32.8908
29.8053 32.5914
29.99 32.4457
30.1748 32.1852
30.3597 31.9567
30.5447 31.9434
30.7297 31.9746
30.915 31.3522
31.1002 30.8534
31.2855 30.56
31.4708 30.5336
31.6563 30.068
31.8418 29.9109
32.0275 29.6956
32.2132 29.1711
32.399 28.705
32.5848 28.2586
32.7708 27.931
32.9569 27.7951
33.143 27.6181
33.3293 27.2223
33.5158 26.7994
33.7022 26.4506
33.8887 26.1488
34.0753 25.8501
34.262 25.49
34.4488 25.1171
34.6357 24.8427
34.8227 24.5013
35.0098 24.3139
35.1969 24.0207
35.3842 23.899
35.5716 23.6553
35.759 23.2326
35.9468 22.9997
36.1345 22.6821
36.3222 22.5131
36.5101 22.2682
36.6981 21.9887
36.8861 21.6065
37.0743 21.3099
37.2626 21.08
37.451 20.8106
37.6395 20.7317
37.8281 20.3427
38.0168 20.0759
38.2056 19.8264
38.3945 19.5169
38.5837 19.2469
38.7728 19.1157
38.9621 18.8408
39.1514 18.6045
39.3409 18.3749
39.5304 18.1294
39.7201 17.9642
39.9099 17.7568
40.0999 17.4496
40.2899 17.28
40.48 16.9736
40.6703 16.8569
40.8607 16.6062
41.0512 16.4107
41.242 16.131
41.4327 15.9886
41.6236 15.6925
41.8146 15.588
42.0057 15.3959
42.1969 15.1266
42.3882 14.9786
42.5797 14.7162
42.7713 14.5933
42.963 14.3702
43.1549 14.1472
43.3468 13.9447
43.5389 13.7921
43.7312 13.5647
43.9237 13.3568
44.1162 13.1929
44.3088 13.0165
44.5016 12.8144
44.6945 12.6416
44.8875 12.5141
45.0806 12.2913
45.2739 12.1956
45.4673 11.9466
45.6609 11.7496
45.8546 11.6416
46.0484 11.4047
46.2424 11.3014
46.4365 11.1253
46.631 10.9532
46.8254 10.7749
47.0199 10.6566
47.2146 10.505
47.4095 10.3189
47.6044 10.1947
47.7996 10.0312
47.9948 9.83537
48.1902 9.75071
48.3858 9.58408
48.5815 9.47869
48.7774 9.35321
48.9734 9.18272
49.1696 9.03875
49.3661 8.87322
49.5626 8.79429
49.7592 8.64228
49.956 8.53579
50.153 8.38318
50.3501 8.22183
50.5474 8.14307
50.7448 8.00946
50.9424 7.89524
51.1402 7.77839
51.3381 7.60603
51.5362 7.52715
51.7344 7.33876
51.9328 7.27689
52.1316 7.14391
52.3304 7.03602
52.5293 6.91157
52.7284 6.80457
52.9276 6.70559
53.1271 6.56899
53.3267 6.43206
53.5265 6.34416
53.7264 6.29178
53.9266 6.14685
54.1269 6.05609
54.3274 5.93939
54.528 5.76223
54.7289 5.64217
54.9301 5.41804
55.1314 5.36173
55.3328 5.12936
55.5344 4.96468
55.7361 4.77404

File: Ni3Fe_FD0760.xy
TT I
1.27165 7.28261
1.45013 6.37456
1.62863 5.27501
1.80712 4.96406
1.98562 4.5043
2.16411 5.60855
2.34263 5.2625
2.52115 6.74793
2.69965 8.42821
2.87818 8.87547
3.05672 11.0012
3.23527 15.3421
3.4138 19.0921
3.59237 24.2187
3.77094 26.1423
3.9495 29.8927
4.12809 34.8528
4.30669 260.388
4.4853 70.0629
4.6639 54.8364
4.84253 66.7202
5.02118 85.8043
5.19981 304.701
5.37848 188.242
5.55716 100.854
5.73586 90.9385
5.91455 91.6956
6.09328 4320.7
6.27201 82.666
6.45075 67.1214
6.62952 63.0168
6.8083 58.5395
6.98711 55.4286
7.16591 55.5301
7.34475 100.575
7.5236 54.8438
7.70247 55.8929
7.88135 57.7774
8.06026 61.8291
8.23919 68.812
8.41812 84.0495
8.59709 1095.22
8.77609 98.8258
8.9551 92.1852
9.13412 81.1243
9.31318 81.7417
9.49226 83.8331
9.67134 99.5421
9.85047 98.6079
10.0296 304.031
10.2088 407.644
10.388 103.98
10.5672 512.61
10.7465 86.1034
10.9257 78.158
11.105 71.3754
11.2844 70.9109
11.4637 64.4979
11.6431 63.4713
11.8225 62.2486
12.002 63.2008
12.1814 147.217
12.3609 71.6003
12.5405 63.99
12.72 70.2794
12.8996 70.3576
13.0792 77.9786
13.2589 225.651
13.4386 126.96
13.6183 238.192
13.7981 98.5709
13.9779 75.2349
14.1577 72.2302
14.3376 71.4312
14.5175 68.3963
14.6974 69.9027
14.8774 105.409
15.0574 152.375
15.2374 71.2549
15.4175 66.0678
15.5976 65.0737
15.7778 91.1319
15.958 158.795
16.1382 62.7908
16.3185 58.5647
16.4988 55.1732
16.6792 54.106
16.8596 55.0933
17.04 55.2659
17.2205 65.708
17.401 71.0502
17.5815 58.6098
17.7622 60.6534
17.9428 71.9822
18.1237 138.861
18.3044 88.9709
18.4852 78.2189
18.666 60.0414
18.8469 57.6679
19.0278 56.5838
19.2088 58.7995
19.3898 76.9452
19.5709 53.8087
19.752 52.8597
19.9332 55.5146
20.1144 69.2679
20.2957 63.5245
20.477 53.5385
20.6586 49.3205
20.84 48.4944
21.0215 48.1665
21.203 50.5564
21.3846 48.6961
21.5662 48.3576
21.7479 51.7414
21.9297 64.2889
22.1115 55.7892
22.2933 49.7097
22.4753 48.6085
22.6572 48.3765
22.8393 51.185
23.0214 57.3076
23.2037 48.357
23.3859 49.1215
23.5682 56.5654
23.7505 48.1054
23.9329 44.8588
24.1154 43.7858
24.2979 43.2064
24.4805 42.5763
24.6631 42.6292
24.8458 42.0502
25.0286 42.4301
25.2114 44.3765
25.3943 44.4546
25.5773 40.5714
25.7605 40.1355
25.9436 40.6917
26.1268 41.4048
26.31 39.8759
26.4933 40.347
26.6767 41.8668
26.8601 40.143
27.0437 38.736
27.2272 38.1987
27.4109 38.1843
27.5946 38.148
27.7784 37.6799
27.9623 38.142
28.1462 38.6333
28.3304 36.9879
28.5145 35.698
28.6987 35.5023
28.8829 35.216
29.0673 34.417
29.2517 34.1575
29.4361 33.9591
29.6207 33.0436
29.8053 32.7753
29.99 32.4632
30.1748 32.3148
30.3597 32.1077
30.5447 31.9563
30.7297 32.0276
30.915 31.497
31.1002 30.9102
31.2855 30.6134
31.4708 30.6449
31.6563 30.0707
31.8418 29.9705
32.0275 29.8088
32.2132 29.142
32.399 28.8259
32.5848 28.3267
32.7708 27.992
32.9569 27.8107
33.143 27.5698
33.3293 27.2713
33.5158 26.7933
33.7022 26.4218
33.8887 26.2398
34.0753 25.862
34.262 25.5286
34.4488 25.2393
34.6357 24.7922
34.8227 24.5639
35.0098 24.3368
35.1969 24.038
35.3842 23.8783
35.5716 23.5957
35.759 23.3212
35.9468 22.9382
36.1345 22.7829
36.3222 22.5259
36.5101 22.3179
36.6981 21.955
36.8861 21.7299
37.0743 21.4192
37.2626 21.1286
37.451 20.8899
37.6395 20.7078
37.8281 20.4318
38.0168 20.2339
38.2056 19.8644
38.3945 19.5927
38.5837 19.3604
38.7728 19.1478
38.9621 18.9162
39.1514 18.6154
39.3409 18.4139
39.5304 18.1596
39.7201 17.9401
39.9099 17.7358
40.0999 17.4844
40.2899 17.2823
40.48 17.0472
40.6703 16.8306
40.8607 16.59
41.0512 16.4394
41.242 16.1702
41.4327 15.9968
41.6236 15.7289
41.8146 15.5805
42.0057 15.3625
42.1969 15.1307
42.3882 15.0036
42.5797 14.745
42.7713 14.5885
42.963 14.3943
43.1549 14.139
43.3468 13.9376
43.5389 13.7737
43.7312 13.5629
43.9237 13.4101
44.1162 13.1744
44.3088 13.0006
44.5016 12.8062
44.6945 12.6665
44.8875 12.5021
45.0806 12.3464
45.2739 12.1452
45.4673 11.9646
45.6609 11.7948
45.8546 11.6704
46.0484 11.4583
46.2424 11.3263
46.4365 11.1807
46.631 10.9671
46.8254 10.8244
47.0199 10.6593
47.2146 10.5135
47.4095 10.3329
47.6044 10.1627
47.7996 10.0389
47.9948 9.87736
48.1902 9.76971
48.3858 9.60423
48.5815 9.48304
48.7774 9.34682
48.9734 9.2094
49.1696 9.09736
49.3661 8.94102
49.5626 8.77212
49.7592 8.65684
49.956 8.50949
50.153 8.37525
50.3501 8.25524
50.5474 8.12606
50.7448 8.00985
50.9424 7.89361
51.1402 7.77284
51.3381 7.66981
51.5362 7.52429
51.7344 7.39173
51.9328 7.24541
52.1316 7.09901
52.3304 7.03345
52.5293 6.93436
52.7284 6.78672
52.9276 6.66715
53.1271 6.5937
53.3267 6.48721
53.5265 6.33548
53.7264 6.23277
53.9266 6.15589
54.1269 6.00645
54.3274 5.92487
54.528 5.78834
54.7289 5.6187
54.9301 5.45704
55.1314 5.33662
55.3328 5.13323
55.5344 4.90636
55.7361 4.77425

File: Ni3Fe_FD0761.xy
TT I
1.27165 7.28084
1.45013 6.06727
1.62863 5.02827
1.80712 5.14944
1.98562 4.8238
2.16411 5.01141
2.34263 5.63592
2.52115 7.12892
2.69965 7.74205
2.87818 8.70846
3.05672 11.4357
3.23527 15.3236
3.4138 19.2766
3.59237 24.5044
3.77094 26.887
3.9495 29.8656
4.12809 34.9463
4.30669 260.126
4.4853 69.5584
4.6639 55.0915
4.84253 66.6712
5.02118 85.5038
5.19981 304.415
5.37848 187.644
5.55716 101.117
5.73586 91.4164
5.91455 91.9799
6.09328 4351.99
6.27201 83.2824
6.45075 67.2872
6.62952 63.4535
6.8083 58.9183
6.98711 55.7186
7.16591 55.6986
7.34475 100.089
7.5236 54.7239
7.70247 55.7907
7.88135 57.5503
8.06026 61.8723
8.23919 69.2992
8.41812 84.937
8.59709 1099.15
8.77609 99.2596
8.9551 92.6584
9.13412 81.2176
9.31318 82.0744
9.49226 83.6255
9.67134 99.5731
9.85047 98.8612
10.0296 304.009
10.2088 402.439
10.388 104.273
10.5672 512.294
10.7465 85.9663
10.9257 78.6073
11.105 71.5999
11.2844 70.5454
11.4637 64.651
11.6431 63.5774
11.8225 62.3372
12.002 63.0454
12.1814 147.392
12.3609 71.3919
12.5405 64.2441
12.72 70.4925
12.8996 70.6845
13.0792 77.8022
13.2589 226.396
13.4386 126.229
13.6183 237.902
13.7981 97.8686
13.9779 75.2407
14.1577 72.2757
14.3376 71.5125
14.5175 68.3084
14.6974 69.7145
14.8774 105.768
15.0574 150.419
15.2374 71.2448
15.4175 65.8735
15.5976 65.2522
15.7778 91.0997
15.958 157.215
16.1382 62.9623
16.3185 58.608
16.4988 55.221
16.6792 54.1314
16.8596 54.9683
17.04 55.1438
17.2205 65.4868
17.401 70.8988
17.5815 58.8691
17.7622 60.9254
17.9428 71.9509
18.1237 138.581
18.3044 88.8584
18.4852 77.839
18.666 59.9567
18.8469 57.5486
19.0278 56.4379
19.2088 58.8178
19.3898 76.8815
19.5709 53.924
19.752 53.0009
19.9332 55.5429
20.1144 69.1607
20.2957 63.4567
20.477 53.5572
20.6586 49.3992
20.84 48.4973
21.0215 48.2482
21.203 50.4293
21.3846 48.6229
21.5662 48.2974
21.7479 51.9036
21.9297 63.98
22.1115 55.4697
22.2933 49.5591
22.4753 48.5947
22.6572 48.3088
22.8393 51.3269
23.0214 57.0866
23.2037 48.3235
23.3859 49.193
23.5682 56.5713
23.7505 48.0727
23.9329 45.0098
24.1154 43.897
24.2979 43.1808
24.4805 42.6177
24.6631 42.5765
24.8458 41.8856
25.0286 42.309
25.2114 44.4133
25.3943 44.2913
25.5773 40.5596
25.7605 39.9828
25.9436 40.6164
26.1268 41.3729
26.31 39.772
26.4933 40.4668
26.6767 41.7541
26.8601 40.2037
27.0437 38.7683
27.2272 38.2817
27.4109 38.1595
27.5946 38.0633
27.7784 37.6349
27.9623 38.1236
28.1462 38.5644
28.3304 36.9956
28.5145 35.749
28.6987 35.3973
28.8829 35.1505
29.0673 34.4803
29.2517 34.1123
29.4361 33.921
29.6207 33.0173
29.8053 32.6026
29.99 32.3381
30.1748 32.2604
30.3597 32.0926
30.5447 31.9716
30.7297 31.9695
30.915 31.4507
31.1002 30.97
31.2855 30.6635
31.4708 30.5719
31.6563 30.1956
31.8418 29.9437
32.0275 29.6885
32.2132 29.2525
32.399 28.768
32.5848 28.2749
32.7708 27.9589
32.9569 27.7985
33.143 27.5633
33.3293 27.3314
33.5158 26.9621
33.7022 26.4284
33.8887 26.1078
34.0753 25.8428
34.262 25.566
34.4488 25.1088
34.6357 24.8253
34.8227 24.5521
35.0098 24.3516
35.1969 23.9951
35.3842 23.7856
35.5716 23.6003
35.759 23.4161
35.9468 22.9662
36.1345 22.7748
36.3222 22.5715
36.5101 22.2929
36.6981 21.9873
36.8861 21.6922
37.0743 21.3907
37.2626 21.1843
37.451 20.9087
37.6395 20.6895
37.8281 20.4051
38.0168 20.0413
38.2056 19.8617
38.3945 19.6269
38.5837 19.3227
38.7728 19.1156
38.9621 18.8583
39.1514 18.6049
39.3409 18.3368
39.5304 18.1483
39.7201 17.882
39.9099 17.7964
40.0999 17.4951
40.2899 17.2268
40.48 17.063
40.6703 16.7998
40.8607 16.6785
41.0512 16.4291
41.242 16.1608
41.4327 15.9433
41.6236 15.7529
41.8146 15.5621
42.0057 15.3622
42.1969 15.1848
42.3882 14.9229
42.5797 14.754
42.7713 14.5469
42.963 14.3088
43.1549 14.1339
43.3468 13.9426
43.5389 13.8019
43.7312 13.5834
43.9237 13.4077
44.1162 13.2096
44.3088 13.0163
44.5016 12.8039
44.6945 12.669
44.8875 12.4738
45.0806 12.302
45.2739 12.1258
45.4673 12.0001
45.6609 11.7919
45.8546 11.6298
46.0484 11.5175
46.2424 11.328
46.4365 11.1378
46.631 10.9674
46.8254 10.8099
47.0199 10.6752
47.2146 10.4902
47.4095 10.3508
47.6044 10.2319
47.7996 10.0349
47.9948 9.87307
48.1902 9.7755
48.3858 9.62488
48.5815 9.46266
48.7774 9.33529
48.9734 9.15659
49.1696 9.06945
49.3661 8.94332
49.5626 8.77426
49.7592 8.64579
49.956 8.52732
50.153 8.41503
50.3501 8.26131
50.5474 8.15189
50.7448 8.01707
50.9424 7.89456
51.1402 7.76718
51.3381 7.62561
51.5362 7.54806
51.7344 7.4064
51.9328 7.28448
52.1316 7.16462
52.3304 7.01044
52.5293 6.9092
52.7284 6.78379
52.9276 6.65499
53.1271 6.57373
53.3267 6.43887
53.5265 6.36941
53.7264 6.225
53.9266 6.14799
54.1269 6.04191
54.3274 5.93909
54.528 5.81356
54.7289 5.6277
54.9301 5.41687
55.1314 5.36852
55.3328 5.08409
55.5344 4.96829
55.7361 4.79398

File: Ni3Fe_FD0762.xy
TT I
1.27165 6.88044
1.45013 6.2459
1.62863 4.60166
1.80712 4.86676
1.98562 5.23977
2.16411 5.33839
2.34263 5.46319
2.52115 7.33829
2.69965 8.19852
2.87818 9.24578
3.05672 10.8903
3.23527 15.4027
3.4138 19.068
3.59237 24.5341
3.77094 26.2207
3.9495 30.0408
4.12809 34.7073
4.30669 264.172
4.4853 70.1268
4.6639 54.9542
4.84253 66.4412
5.02118 84.7929
5.19981 304.192
5.37848 188.374
5.55716 101.498
5.73586 90.815
5.91455 91.4432
6.09328 4290.79
6.27201 82.9439
6.45075 66.7473
6.62952 62.742
6.8083 58.8884
6.98711 55.9022
7.16591 55.5695
7.34475 101.304
7.5236 54.8674
7.70247 55.9689
7.88135 57.3106
8.06026 62.1009
8.23919 69.2864
8.41812 84.3229
8.59709 1093.66
8.77609 98.8193
8.9551 92.6347
9.13412 81.0813
9.31318 81.9103
9.49226 83.918
9.67134 99.9268
9.85047 98.6358
10.0296 302.198
10.2088 407.147
10.388 103.721
10.5672 507.964
10.7465 85.6393
10.9257 78.3107
11.105 71.6007
11.2844 70.8005
11.4637 64.5431
11.6431 63.4261
11.8225 62.0376
12.002 62.7652
12.1814 147.929
12.3609 71.8573
12.5405 64.1273
12.72 70.5606
12.8996 70.2986
13.0792 77.676
13.2589 225.363
13.4386 127.068
13.6183 237.127
13.7981 98.0898
13.9779 75.086
14.1577 72.0348
14.3376 71.56
14.5175 68.2357
14.6974 69.6562
14.8774 105.219
15.0574 151.919
15.2374 71.2178
15.4175 65.7554
15.5976 65.0196
15.7778 90.6844
15.958 158.588
16.1382 62.8934
16.3185 58.6325
16.4988 55.0586
16.6792 54.2239
16.8596 54.9591
17.04 55.2982
17.2205 65.5329
17.401 71.3356
17.5815 58.6258
17.7622 60.5724
17.9428 71.9876
18.1237 138.628
18.3044 88.6558
18.4852 78.2077
18.666 60.0132
18.8469 57.5194
19.0278 56.4258
19.2088 58.9817
19.3898 76.725
19.5709 53.7331
19.752 52.952
19.9332 55.6263
20.1144 69.4241
20.2957 63.165
20.477 53.8145
20.6586 49.3251
20.84 48.4975
21.0215 48.2533
21.203 50.2618
21.3846 48.5369
21.5662 48.2207
21.7479 51.8587
21.9297 64.2848
22.1115 55.755
22.2933 49.6342
22.4753 48.7385
22.6572 48.2411
22.8393 51.0025
23.0214 57.4673
23.2037 48.4458
23.3859 49.0781
23.5682 56.624
23.7505 48.2288
23.9329 44.97
24.1154 43.7636
24.2979 43.1315
24.4805 42.5778
24.6631 42.4679
24.8458 41.9453
25.0286 42.3985
25.2114 44.3586
25.3943 44.3453
25.5773 40.7232
25.7605 40.1389
25.9436 40.5267
26.1268 41.3539
26.31 39.7755
26.4933 40.5024
26.6767 41.8978
26.8601 40.2399
27.0437 38.5881
27.2272 38.2231
27.4109 38.1199
27.5946 38.101
27.7784 37.6504
27.9623 38.1043
28.1462 38.6117
28.3304 36.9315
28.5145 35.765
28.6987 35.4327
28.8829 35.1625
29.0673 34.4884
29.2517 34.1374
29.4361 34.0423
29.6207 32.9927
29.8053 32.6705
29.99 32.401
30.1748 32.2145
30.3597 32.0465
30.5447 31.96
30.7297 32.0096
30.915 31.4267
31.1002 30.8592
31.2855 30.6527
31.4708 30.54
31.6563 30.1943
31.8418 29.9348
32.0275 29.6928
32.2132 29.254
32.399 28.7729
32.5848 28.425
32.7708 27.9367
32.9569 27.7862
33.143 27.6415
33.3293 27.288
33.5158 26.9156
33.7022 26.5757
33.8887 26.1976
34.0753 25.874
34.262 25.5029
34.4488 25.1399
34.6357 24.7827
34.8227 24.4971
35.0098 24.419
35.1969 24.0728
35.3842 23.837
35.5716 23.6254
35.759 23.2737
35.9468 22.9322
36.1345 22.8291
36.3222 22.5496
36.5101 22.3278
36.6981 21.964
36.8861 21.6041
37.0743 21.3751
37.2626 21.121
37.451 20.8123
37.6395 20.6622
37.8281 20.3371
38.0168 20.1206
38.2056 19.8744
38.3945 19.5898
38.5837 19.3182
38.7728 19.0882
38.9621 18.8953
39.1514 18.6198
39.3409 18.3074
39.5304 18.1458
39.7201 17.9705
39.9099 17.7317
40.0999 17.4715
40.2899 17.2902
40.48 17.0299
40.6703 16.765
40.8607 16.6602
41.0512 16.4251
41.242 16.1551
41.4327 15.9691
41.6236 15.7157
41.8146 15.6042
42.0057 15.2892
42.1969 15.14
42.3882 14.9964
42.5797 14.7505
42.7713 14.5734
42.963 14.3495
43.1549 14.1376
43.3468 13.9724
43.5389 13.7831
43.7312 13.5369
43.9237 13.3857
44.1162 13.2053
44.3088 13.0426
44.5016 12.8376
44.6945 12.6542
44.8875 12.4875
45.0806 12.3137
45.2739 12.1141
45.4673 12.0003
45.6609 11.7963
45.8546 11.6899
46.0484 11.479
46.2424 11.3155
46.4365 11.1859
46.631 10.9551
46.8254 10.8247
47.0199 10.6358
47.2146 10.4845
47.4095 10.3231
47.6044 10.1851
47.7996 10.0712
47.9948 9.87774
48.1902 9.75983
48.3858 9.61035
48.5815 9.46944
48.7774 9.36336
48.9734 9.19545
49.1696 9.07221
49.3661 8.91239
49.5626 8.75518
49.7592 8.62824
49.956 8.51163
50.153 8.3616
50.3501 8.26362
50.5474 8.14563
50.7448 8.01208
50.9424 7.90192
51.1402 7.76905
51.3381 7.6196
51.5362 7.51863
51.7344 7.38986
51.9328 7.27308
52.1316 7.12201
52.3304 7.06355
52.5293 6.90081
52.7284 6.8234
52.9276 6.70922
53.1271 6.60847
53.3267 6.45587
53.5265 6.36514
53.7264 6.21946
53.9266 6.10832
54.1269 6.02996
54.3274 5.92741
54.528 5.76338
54.7289 5.67334
54.9301 5.49343
55.1314 5.35576
55.3328 5.12354
55.5344 4.94693
55.7361 4.84799