Folder: NiFe_MOF_catalyst_paper/XRD (part 126)

File: Ni3Fe_FD0680.xy
TT I
1.27165 7.34075
1.45013 5.90053
1.62863 5.32556
1.80712 4.5613
1.98562 4.56022
2.16411 5.10579
2.34263 5.09788
2.52115 6.60388
2.69965 8.21365
2.87818 8.47423
3.05672 11.3383
3.23527 14.8351
3.4138 18.9101
3.59237 23.0582
3.77094 25.8662
3.9495 30.0305
4.12809 34.2533
4.30669 143.555
4.4853 57.6978
4.6639 55.2986
4.84253 67.8702
5.02118 87.8187
5.19981 406.993
5.37848 185.723
5.55716 102.021
5.73586 92.4228
5.91455 95.1548
6.09328 4513.21
6.27201 81.6241
6.45075 67.458
6.62952 62.5569
6.8083 58.4852
6.98711 55.6604
7.16591 55.4128
7.34475 76.5673
7.5236 54.507
7.70247 56.149
7.88135 57.7846
8.06026 62.0572
8.23919 69.2914
8.41812 84.5263
8.59709 1222.45
8.77609 98.469
8.9551 89.761
9.13412 82.0694
9.31318 83.3094
9.49226 84.6731
9.67134 96.3121
9.85047 100.369
10.0296 366.592
10.2088 361.36
10.388 104.813
10.5672 511.134
10.7465 86.2067
10.9257 77.7093
11.105 71.3206
11.2844 69.3998
11.4637 64.8315
11.6431 63.3414
11.8225 62.5778
12.002 63.8759
12.1814 155.688
12.3609 68.0611
12.5405 64.4128
12.72 68.6466
12.8996 71.1761
13.0792 79.8869
13.2589 249.632
13.4386 120.246
13.6183 254.937
13.7981 93.4105
13.9779 75.4421
14.1577 71.9593
14.3376 70.7258
14.5175 69.1056
14.6974 70.2681
14.8774 113.187
15.0574 140.494
15.2374 70.0152
15.4175 66.3087
15.5976 65.8616
15.7778 96.5518
15.958 150.122
16.1382 61.8913
16.3185 57.9779
16.4988 55.3192
16.6792 54.4466
16.8596 55.0272
17.04 55.9739
17.2205 67.295
17.401 69.756
17.5815 59.0753
17.7622 61.1764
17.9428 74.4939
18.1237 142.723
18.3044 91.3457
18.4852 75.4184
18.666 60.288
18.8469 57.7805
19.0278 56.4488
19.2088 59.3201
19.3898 76.248
19.5709 54.1096
19.752 53.2922
19.9332 56.3798
20.1144 69.9218
20.2957 64.3792
20.477 52.9863
20.6586 49.3587
20.84 48.7205
21.0215 48.625
21.203 50.8791
21.3846 48.897
21.5662 48.8777
21.7479 52.8001
21.9297 64.6908
22.1115 56.1725
22.2933 49.5491
22.4753 48.7848
22.6572 49.0528
22.8393 52.2986
23.0214 57.2236
23.2037 48.61
23.3859 49.7036
23.5682 57.409
23.7505 47.8255
23.9329 45.1907
24.1154 44.1403
24.2979 43.1722
24.4805 42.8615
24.6631 42.6792
24.8458 42.2236
25.0286 42.9711
25.2114 44.6515
25.3943 44.5026
25.5773 40.8475
25.7605 40.4604
25.9436 40.8762
26.1268 41.6475
26.31 39.9106
26.4933 40.7857
26.6767 42.1412
26.8601 40.3596
27.0437 38.6997
27.2272 38.4357
27.4109 38.408
27.5946 38.2506
27.7784 37.8187
27.9623 38.4013
28.1462 38.7464
28.3304 37.0877
28.5145 35.8753
28.6987 35.5674
28.8829 35.3463
29.0673 34.6034
29.2517 34.3669
29.4361 34.0773
29.6207 33.1276
29.8053 32.8088
29.99 32.5979
30.1748 32.4338
30.3597 32.26
30.5447 32.1479
30.7297 32.1067
30.915 31.5906
31.1002 31.0972
31.2855 30.795
31.4708 30.7755
31.6563 30.3104
31.8418 30.1872
32.0275 29.8357
32.2132 29.2238
32.399 28.9244
32.5848 28.5064
32.7708 28.11
32.9569 28.0
33.143 27.7594
33.3293 27.3708
33.5158 26.8902
33.7022 26.5479
33.8887 26.2885
34.0753 25.9248
34.262 25.5625
34.4488 25.2564
34.6357 24.9253
34.8227 24.6743
35.0098 24.4182
35.1969 24.2567
35.3842 23.9562
35.5716 23.7541
35.759 23.4282
35.9468 23.0983
36.1345 22.8615
36.3222 22.6341
36.5101 22.4215
36.6981 22.0553
36.8861 21.7795
37.0743 21.4673
37.2626 21.2873
37.451 20.9506
37.6395 20.8067
37.8281 20.4822
38.0168 20.1745
38.2056 19.9427
38.3945 19.5831
38.5837 19.3788
38.7728 19.2634
38.9621 18.9108
39.1514 18.724
39.3409 18.4371
39.5304 18.2062
39.7201 18.0495
39.9099 17.8491
40.0999 17.5862
40.2899 17.3659
40.48 17.0864
40.6703 16.9095
40.8607 16.718
41.0512 16.477
41.242 16.2219
41.4327 15.9817
41.6236 15.8116
41.8146 15.6374
42.0057 15.3787
42.1969 15.22
42.3882 15.0583
42.5797 14.8087
42.7713 14.5829
42.963 14.4153
43.1549 14.2181
43.3468 13.9956
43.5389 13.7714
43.7312 13.6329
43.9237 13.4385
44.1162 13.2673
44.3088 13.0323
44.5016 12.8616
44.6945 12.7303
44.8875 12.535
45.0806 12.351
45.2739 12.1855
45.4673 12.0388
45.6609 11.7968
45.8546 11.6917
46.0484 11.5242
46.2424 11.3599
46.4365 11.1668
46.631 11.017
46.8254 10.8247
47.0199 10.6497
47.2146 10.5039
47.4095 10.3412
47.6044 10.235
47.7996 10.0674
47.9948 9.94525
48.1902 9.75528
48.3858 9.65968
48.5815 9.50799
48.7774 9.37058
48.9734 9.26862
49.1696 9.09115
49.3661 8.95185
49.5626 8.79763
49.7592 8.68261
49.956 8.57498
50.153 8.4211
50.3501 8.28908
50.5474 8.17013
50.7448 8.0247
50.9424 7.91987
51.1402 7.79582
51.3381 7.65923
51.5362 7.52773
51.7344 7.40992
51.9328 7.27787
52.1316 7.16602
52.3304 7.07176
52.5293 6.93276
52.7284 6.83193
52.9276 6.68025
53.1271 6.62421
53.3267 6.47433
53.5265 6.38166
53.7264 6.28269
53.9266 6.18484
54.1269 6.03182
54.3274 5.93249
54.528 5.77185
54.7289 5.6594
54.9301 5.47576
55.1314 5.31955
55.3328 5.11266
55.5344 4.97513
55.7361 4.84374

File: Ni3Fe_FD0681.xy
TT I
1.27165 6.95862
1.45013 6.51585
1.62863 4.99405
1.80712 4.87801
1.98562 5.1201
2.16411 4.3909
2.34263 5.74442
2.52115 6.87828
2.69965 8.17994
2.87818 9.18366
3.05672 11.573
3.23527 15.1565
3.4138 19.1735
3.59237 23.5218
3.77094 25.9404
3.9495 29.4706
4.12809 34.5102
4.30669 141.02
4.4853 57.9589
4.6639 55.8621
4.84253 68.059
5.02118 87.9302
5.19981 411.897
5.37848 187.084
5.55716 102.815
5.73586 92.8116
5.91455 95.6713
6.09328 4498.74
6.27201 81.4413
6.45075 68.0091
6.62952 62.733
6.8083 58.8293
6.98711 55.603
7.16591 55.2815
7.34475 75.3717
7.5236 54.5067
7.70247 56.2279
7.88135 57.7411
8.06026 62.3328
8.23919 69.6422
8.41812 84.8505
8.59709 1223.33
8.77609 98.4872
8.9551 89.6821
9.13412 82.4516
9.31318 83.1511
9.49226 84.7488
9.67134 95.8605
9.85047 100.789
10.0296 367.024
10.2088 356.386
10.388 105.198
10.5672 507.8
10.7465 86.2264
10.9257 78.2281
11.105 71.1831
11.2844 69.2417
11.4637 65.0398
11.6431 63.5855
11.8225 62.7232
12.002 64.2068
12.1814 154.799
12.3609 67.9829
12.5405 64.5342
12.72 68.6541
12.8996 71.0786
13.0792 80.0088
13.2589 249.945
13.4386 120.426
13.6183 256.098
13.7981 93.4937
13.9779 75.7539
14.1577 72.1354
14.3376 70.7084
14.5175 69.0155
14.6974 70.6654
14.8774 113.571
15.0574 139.285
15.2374 69.8256
15.4175 66.3375
15.5976 65.8382
15.7778 96.93
15.958 149.37
16.1382 61.6267
16.3185 58.0951
16.4988 55.3027
16.6792 54.3043
16.8596 54.9387
17.04 55.882
17.2205 67.634
17.401 69.8044
17.5815 59.0122
17.7622 61.1762
17.9428 74.6122
18.1237 142.577
18.3044 91.3101
18.4852 75.0891
18.666 60.0888
18.8469 58.009
19.0278 56.6424
19.2088 59.4374
19.3898 76.315
19.5709 54.0728
19.752 53.3552
19.9332 56.4396
20.1144 69.9666
20.2957 63.9269
20.477 52.9701
20.6586 49.8079
20.84 48.6996
21.0215 48.5249
21.203 50.9059
21.3846 48.5787
21.5662 48.9096
21.7479 52.9021
21.9297 64.5532
22.1115 55.9845
22.2933 49.6234
22.4753 48.6222
22.6572 48.7545
22.8393 52.263
23.0214 56.9431
23.2037 48.8178
23.3859 49.861
23.5682 57.2979
23.7505 47.7721
23.9329 45.1346
24.1154 44.0515
24.2979 43.2385
24.4805 42.9514
24.6631 42.6909
24.8458 42.2045
25.0286 42.8225
25.2114 44.5846
25.3943 44.3828
25.5773 40.81
25.7605 40.4175
25.9436 40.9125
26.1268 41.6352
26.31 39.9969
26.4933 40.5935
26.6767 42.1993
26.8601 40.3492
27.0437 38.7256
27.2272 38.5407
27.4109 38.3487
27.5946 38.2357
27.7784 37.9029
27.9623 38.5009
28.1462 38.7687
28.3304 36.9623
28.5145 35.8458
28.6987 35.5715
28.8829 35.495
29.0673 34.6187
29.2517 34.3147
29.4361 34.0902
29.6207 33.091
29.8053 32.8448
29.99 32.6164
30.1748 32.4594
30.3597 32.2304
30.5447 32.0949
30.7297 32.1993
30.915 31.5122
31.1002 31.1046
31.2855 30.8541
31.4708 30.7983
31.6563 30.2651
31.8418 30.0922
32.0275 29.8305
32.2132 29.3785
32.399 28.9193
32.5848 28.4897
32.7708 28.1525
32.9569 28.0849
33.143 27.7226
33.3293 27.3282
33.5158 26.9435
33.7022 26.6
33.8887 26.2645
34.0753 25.9172
34.262 25.6161
34.4488 25.2826
34.6357 24.9223
34.8227 24.6517
35.0098 24.4741
35.1969 24.1949
35.3842 23.9866
35.5716 23.6533
35.759 23.3963
35.9468 23.0868
36.1345 22.8523
36.3222 22.6748
36.5101 22.4168
36.6981 22.1367
36.8861 21.7646
37.0743 21.3971
37.2626 21.2065
37.451 20.913
37.6395 20.8487
37.8281 20.4342
38.0168 20.1223
38.2056 19.9081
38.3945 19.6572
38.5837 19.3915
38.7728 19.1796
38.9621 18.9366
39.1514 18.6689
39.3409 18.3858
39.5304 18.1727
39.7201 18.0986
39.9099 17.8047
40.0999 17.5363
40.2899 17.2877
40.48 17.0475
40.6703 16.8847
40.8607 16.7129
41.0512 16.5161
41.242 16.2288
41.4327 16.0799
41.6236 15.8089
41.8146 15.5752
42.0057 15.3925
42.1969 15.1643
42.3882 15.0614
42.5797 14.8108
42.7713 14.539
42.963 14.4353
43.1549 14.2412
43.3468 14.0258
43.5389 13.7523
43.7312 13.6085
43.9237 13.4273
44.1162 13.2365
44.3088 13.0479
44.5016 12.896
44.6945 12.6796
44.8875 12.5362
45.0806 12.3554
45.2739 12.1748
45.4673 12.0186
45.6609 11.8485
45.8546 11.6855
46.0484 11.5059
46.2424 11.3215
46.4365 11.1985
46.631 11.0058
46.8254 10.8188
47.0199 10.7207
47.2146 10.5393
47.4095 10.3668
47.6044 10.2334
47.7996 10.0713
47.9948 9.91067
48.1902 9.77068
48.3858 9.60916
48.5815 9.5188
48.7774 9.37088
48.9734 9.2225
49.1696 9.07721
49.3661 8.94882
49.5626 8.81393
49.7592 8.66306
49.956 8.55569
50.153 8.429
50.3501 8.2416
50.5474 8.15318
50.7448 8.02555
50.9424 7.93218
51.1402 7.77354
51.3381 7.66436
51.5362 7.50519
51.7344 7.37501
51.9328 7.28073
52.1316 7.14276
52.3304 7.05948
52.5293 6.90596
52.7284 6.84626
52.9276 6.71872
53.1271 6.61941
53.3267 6.4786
53.5265 6.354
53.7264 6.22127
53.9266 6.14475
54.1269 6.01963
54.3274 5.91284
54.528 5.83208
54.7289 5.60418
54.9301 5.48082
55.1314 5.35982
55.3328 5.17127
55.5344 4.95863
55.7361 4.83164

File: Ni3Fe_FD0682.xy
TT I
1.27165 7.61949
1.45013 6.03585
1.62863 5.40058
1.80712 4.65277
1.98562 4.36206
2.16411 4.79716
2.34263 4.86772
2.52115 6.89525
2.69965 7.95569
2.87818 8.61618
3.05672 11.059
3.23527 14.9719
3.4138 18.7235
3.59237 23.0716
3.77094 26.0572
3.9495 29.3961
4.12809 34.3018
4.30669 138.398
4.4853 56.9827
4.6639 55.55
4.84253 67.8949
5.02118 87.4747
5.19981 411.181
5.37848 187.722
5.55716 102.277
5.73586 92.8201
5.91455 95.5172
6.09328 4542.28
6.27201 81.3208
6.45075 68.0921
6.62952 62.0273
6.8083 58.5274
6.98711 55.4194
7.16591 55.1656
7.34475 75.6396
7.5236 54.3126
7.70247 55.9471
7.88135 57.6041
8.06026 62.1674
8.23919 69.4052
8.41812 84.5642
8.59709 1238.0
8.77609 98.0504
8.9551 89.3047
9.13412 82.0921
9.31318 83.3789
9.49226 84.8694
9.67134 95.7953
9.85047 100.224
10.0296 364.859
10.2088 362.51
10.388 105.092
10.5672 510.657
10.7465 85.9202
10.9257 77.5403
11.105 71.6618
11.2844 68.9377
11.4637 64.8275
11.6431 63.2842
11.8225 62.5923
12.002 64.0149
12.1814 154.135
12.3609 67.7619
12.5405 64.4883
12.72 68.4166
12.8996 70.89
13.0792 79.8179
13.2589 248.486
13.4386 120.191
13.6183 255.074
13.7981 93.6322
13.9779 75.6163
14.1577 72.0665
14.3376 70.6214
14.5175 68.661
14.6974 70.2815
14.8774 113.201
15.0574 140.687
15.2374 69.6428
15.4175 66.4608
15.5976 65.6409
15.7778 96.6211
15.958 150.354
16.1382 61.7468
16.3185 57.9176
16.4988 55.1816
16.6792 54.2794
16.8596 54.9119
17.04 55.9755
17.2205 67.1948
17.401 69.8785
17.5815 58.9572
17.7622 61.3502
17.9428 74.327
18.1237 142.381
18.3044 91.3384
18.4852 75.3845
18.666 60.2059
18.8469 57.7162
19.0278 56.8809
19.2088 59.4401
19.3898 76.1744
19.5709 53.9933
19.752 52.9816
19.9332 56.249
20.1144 69.9019
20.2957 64.1413
20.477 52.7724
20.6586 49.4662
20.84 48.7441
21.0215 48.5642
21.203 50.9241
21.3846 48.6947
21.5662 48.8749
21.7479 52.7899
21.9297 64.8577
22.1115 56.1564
22.2933 49.4656
22.4753 48.7348
22.6572 48.8788
22.8393 52.0336
23.0214 57.1124
23.2037 48.7468
23.3859 49.7555
23.5682 57.2856
23.7505 47.8405
23.9329 45.2413
24.1154 44.0457
24.2979 43.3221
24.4805 42.8831
24.6631 42.7589
24.8458 42.0836
25.0286 42.8647
25.2114 44.7388
25.3943 44.3931
25.5773 40.8288
25.7605 40.3361
25.9436 40.8615
26.1268 41.6558
26.31 40.0748
26.4933 40.746
26.6767 42.2464
26.8601 40.4352
27.0437 38.8153
27.2272 38.4626
27.4109 38.4371
27.5946 38.3186
27.7784 37.7813
27.9623 38.3906
28.1462 38.6041
28.3304 37.0531
28.5145 35.8555
28.6987 35.569
28.8829 35.4249
29.0673 34.5
29.2517 34.2808
29.4361 34.0708
29.6207 32.9825
29.8053 32.864
29.99 32.4512
30.1748 32.3501
30.3597 32.1658
30.5447 32.1391
30.7297 32.069
30.915 31.5527
31.1002 31.0489
31.2855 30.8245
31.4708 30.7886
31.6563 30.2877
31.8418 30.0905
32.0275 29.767
32.2132 29.3241
32.399 28.9075
32.5848 28.4407
32.7708 28.1156
32.9569 27.9294
33.143 27.7672
33.3293 27.3782
33.5158 26.912
33.7022 26.511
33.8887 26.3182
34.0753 25.93
34.262 25.5731
34.4488 25.2951
34.6357 24.8455
34.8227 24.659
35.0098 24.4171
35.1969 24.173
35.3842 23.9968
35.5716 23.7067
35.759 23.4681
35.9468 23.1262
36.1345 22.8518
36.3222 22.6362
36.5101 22.4026
36.6981 22.0686
36.8861 21.7512
37.0743 21.4547
37.2626 21.259
37.451 20.8963
37.6395 20.8128
37.8281 20.4283
38.0168 20.1595
38.2056 19.9732
38.3945 19.6018
38.5837 19.4083
38.7728 19.1254
38.9621 18.9535
39.1514 18.6069
39.3409 18.4401
39.5304 18.2038
39.7201 18.041
39.9099 17.8126
40.0999 17.5171
40.2899 17.2603
40.48 17.0834
40.6703 16.9023
40.8607 16.7269
41.0512 16.5027
41.242 16.2264
41.4327 16.0444
41.6236 15.7516
41.8146 15.6455
42.0057 15.3407
42.1969 15.2304
42.3882 15.04
42.5797 14.8044
42.7713 14.6266
42.963 14.4012
43.1549 14.2273
43.3468 14.0078
43.5389 13.8247
43.7312 13.6106
43.9237 13.4505
44.1162 13.2317
44.3088 13.0482
44.5016 12.8932
44.6945 12.6384
44.8875 12.5279
45.0806 12.3787
45.2739 12.1804
45.4673 11.9902
45.6609 11.8476
45.8546 11.6959
46.0484 11.5093
46.2424 11.3177
46.4365 11.1942
46.631 10.9825
46.8254 10.8285
47.0199 10.6664
47.2146 10.5312
47.4095 10.3764
47.6044 10.1972
47.7996 10.1123
47.9948 9.9104
48.1902 9.80421
48.3858 9.66458
48.5815 9.50427
48.7774 9.38364
48.9734 9.24454
49.1696 9.06105
49.3661 8.94063
49.5626 8.79134
49.7592 8.69928
49.956 8.54809
50.153 8.43671
50.3501 8.28928
50.5474 8.16814
50.7448 8.01979
50.9424 7.89629
51.1402 7.81118
51.3381 7.64452
51.5362 7.53213
51.7344 7.40447
51.9328 7.27327
52.1316 7.16837
52.3304 7.07787
52.5293 6.93823
52.7284 6.81652
52.9276 6.69017
53.1271 6.59544
53.3267 6.51287
53.5265 6.38428
53.7264 6.25723
53.9266 6.15056
54.1269 5.98134
54.3274 5.93508
54.528 5.74269
54.7289 5.61709
54.9301 5.50117
55.1314 5.3613
55.3328 5.12239
55.5344 4.97697
55.7361 4.82581

File: Ni3Fe_FD0683.xy
TT I
1.27165 7.30397
1.45013 5.74532
1.62863 4.89299
1.80712 4.74679
1.98562 4.85298
2.16411 4.90479
2.34263 5.15047
2.52115 5.95783
2.69965 8.21621
2.87818 8.67329
3.05672 11.1005
3.23527 14.6184
3.4138 18.7506
3.59237 23.1562
3.77094 25.6466
3.9495 29.9895
4.12809 34.0637
4.30669 138.511
4.4853 56.8057
4.6639 55.2707
4.84253 67.3383
5.02118 87.3837
5.19981 410.44
5.37848 189.328
5.55716 102.393
5.73586 92.5219
5.91455 95.3161
6.09328 4561.61
6.27201 81.0269
6.45075 67.79
6.62952 62.1531
6.8083 58.1859
6.98711 55.4173
7.16591 55.586
7.34475 75.4431
7.5236 54.4564
7.70247 56.1037
7.88135 57.4769
8.06026 62.2013
8.23919 69.1671
8.41812 84.2244
8.59709 1230.52
8.77609 98.3085
8.9551 89.4795
9.13412 82.3782
9.31318 83.1344
9.49226 84.4954
9.67134 95.5737
9.85047 99.9521
10.0296 364.067
10.2088 365.188
10.388 104.774
10.5672 512.08
10.7465 86.1418
10.9257 77.8539
11.105 71.4335
11.2844 68.9663
11.4637 64.3936
11.6431 63.4673
11.8225 62.4763
12.002 64.0086
12.1814 156.021
12.3609 68.008
12.5405 64.4743
12.72 68.6235
12.8996 70.9142
13.0792 80.048
13.2589 247.381
13.4386 120.334
13.6183 255.471
13.7981 93.649
13.9779 75.7599
14.1577 71.8813
14.3376 70.7287
14.5175 68.9613
14.6974 70.625
14.8774 113.213
15.0574 141.004
15.2374 69.8175
15.4175 66.1861
15.5976 65.7622
15.7778 96.3328
15.958 150.462
16.1382 61.6742
16.3185 57.7875
16.4988 55.205
16.6792 54.3322
16.8596 54.8766
17.04 55.9331
17.2205 67.1547
17.401 69.8113
17.5815 59.025
17.7622 61.4435
17.9428 74.2383
18.1237 142.673
18.3044 91.3082
18.4852 75.5125
18.666 60.1197
18.8469 57.8361
19.0278 56.7638
19.2088 59.4673
19.3898 76.3076
19.5709 53.9808
19.752 53.1671
19.9332 56.1733
20.1144 70.0247
20.2957 64.0291
20.477 52.9436
20.6586 49.5658
20.84 48.8865
21.0215 48.4293
21.203 50.9041
21.3846 48.7407
21.5662 48.9789
21.7479 52.7929
21.9297 64.9461
22.1115 56.0996
22.2933 49.49
22.4753 48.7148
22.6572 48.9462
22.8393 52.1345
23.0214 57.157
23.2037 48.5884
23.3859 49.8554
23.5682 57.2729
23.7505 47.798
23.9329 45.1735
24.1154 44.0725
24.2979 43.2188
24.4805 42.8525
24.6631 42.7478
24.8458 42.1385
25.0286 42.8006
25.2114 44.5881
25.3943 44.5458
25.5773 40.7644
25.7605 40.3901
25.9436 40.8104
26.1268 41.6765
26.31 40.0065
26.4933 40.7619
26.6767 42.1542
26.8601 40.2543
27.0437 38.7854
27.2272 38.5369
27.4109 38.3703
27.5946 38.3692
27.7784 37.8634
27.9623 38.3709
28.1462 38.7567
28.3304 36.9999
28.5145 35.8997
28.6987 35.5245
28.8829 35.3535
29.0673 34.5988
29.2517 34.4644
29.4361 34.0509
29.6207 32.9958
29.8053 32.7462
29.99 32.4794
30.1748 32.302
30.3597 32.2111
30.5447 32.0353
30.7297 32.2517
30.915 31.4966
31.1002 31.0303
31.2855 30.725
31.4708 30.7941
31.6563 30.252
31.8418 30.0838
32.0275 29.8404
32.2132 29.2679
32.399 28.8906
32.5848 28.3654
32.7708 28.0742
32.9569 27.9461
33.143 27.7654
33.3293 27.3721
33.5158 26.9042
33.7022 26.5431
33.8887 26.2709
34.0753 25.9072
34.262 25.6373
34.4488 25.2446
34.6357 24.9435
34.8227 24.6527
35.0098 24.4656
35.1969 24.1099
35.3842 24.0185
35.5716 23.7491
35.759 23.3749
35.9468 23.0809
36.1345 22.8845
36.3222 22.5837
36.5101 22.392
36.6981 22.0941
36.8861 21.764
37.0743 21.4519
37.2626 21.1671
37.451 20.9262
37.6395 20.7389
37.8281 20.4639
38.0168 20.1735
38.2056 19.9643
38.3945 19.6445
38.5837 19.3962
38.7728 19.225
38.9621 18.9345
39.1514 18.6549
39.3409 18.4154
39.5304 18.199
39.7201 18.0703
39.9099 17.8409
40.0999 17.5523
40.2899 17.3115
40.48 17.0751
40.6703 16.8938
40.8607 16.6791
41.0512 16.4634
41.242 16.2289
41.4327 16.0059
41.6236 15.8205
41.8146 15.6117
42.0057 15.3966
42.1969 15.1674
42.3882 15.0293
42.5797 14.8167
42.7713 14.628
42.963 14.3984
43.1549 14.1926
43.3468 13.9534
43.5389 13.7762
43.7312 13.6002
43.9237 13.4008
44.1162 13.2527
44.3088 13.0312
44.5016 12.861
44.6945 12.6758
44.8875 12.4875
45.0806 12.3352
45.2739 12.1164
45.4673 12.0482
45.6609 11.7893
45.8546 11.6968
46.0484 11.511
46.2424 11.3276
46.4365 11.1554
46.631 10.9698
46.8254 10.8029
47.0199 10.7009
47.2146 10.5124
47.4095 10.3467
47.6044 10.1984
47.7996 10.0904
47.9948 9.89556
48.1902 9.7827
48.3858 9.60996
48.5815 9.50997
48.7774 9.37245
48.9734 9.24607
49.1696 9.07206
49.3661 8.90107
49.5626 8.8183
49.7592 8.71625
49.956 8.56929
50.153 8.42574
50.3501 8.27809
50.5474 8.17452
50.7448 7.9938
50.9424 7.89339
51.1402 7.78538
51.3381 7.66173
51.5362 7.57113
51.7344 7.41076
51.9328 7.29544
52.1316 7.12909
52.3304 7.07159
52.5293 6.9512
52.7284 6.8146
52.9276 6.67415
53.1271 6.58481
53.3267 6.4838
53.5265 6.32398
53.7264 6.28087
53.9266 6.17038
54.1269 6.00365
54.3274 5.94131
54.528 5.7577
54.7289 5.64157
54.9301 5.49491
55.1314 5.34649
55.3328 5.15218
55.5344 4.93589
55.7361 4.82138

File: Ni3Fe_FD0684.xy
TT I
1.27165 7.3743
1.45013 6.27306
1.62863 5.12005
1.80712 4.69986
1.98562 4.55099
2.16411 4.89134
2.34263 5.56775
2.52115 6.57308
2.69965 7.4338
2.87818 8.91335
3.05672 11.0102
3.23527 14.5959
3.4138 18.6622
3.59237 23.6556
3.77094 25.9378
3.9495 29.4816
4.12809 34.579
4.30669 135.799
4.4853 56.539
4.6639 55.3182
4.84253 68.5238
5.02118 87.5797
5.19981 414.502
5.37848 188.546
5.55716 102.226
5.73586 92.7746
5.91455 95.4355
6.09328 4582.52
6.27201 80.8126
6.45075 67.9319
6.62952 62.587
6.8083 58.4208
6.98711 55.6978
7.16591 55.6372
7.34475 74.37
7.5236 54.2873
7.70247 56.0496
7.88135 57.5932
8.06026 62.2884
8.23919 69.4572
8.41812 84.5056
8.59709 1238.29
8.77609 98.4213
8.9551 89.3039
9.13412 82.45
9.31318 83.5374
9.49226 84.6231
9.67134 95.7463
9.85047 100.164
10.0296 366.512
10.2088 359.001
10.388 105.386
10.5672 512.91
10.7465 86.2009
10.9257 77.6152
11.105 71.5753
11.2844 69.0921
11.4637 64.8256
11.6431 63.4879
11.8225 62.4207
12.002 63.8701
12.1814 156.474
12.3609 67.6963
12.5405 64.4946
12.72 68.5796
12.8996 71.1528
13.0792 80.1996
13.2589 248.687
13.4386 119.963
13.6183 257.003
13.7981 93.3762
13.9779 75.6826
14.1577 72.0713
14.3376 70.5532
14.5175 68.974
14.6974 70.6621
14.8774 113.671
15.0574 140.053
15.2374 69.9717
15.4175 66.2875
15.5976 65.8643
15.7778 96.6602
15.958 149.47
16.1382 61.8031
16.3185 57.8722
16.4988 55.3516
16.6792 54.3158
16.8596 55.0819
17.04 55.8921
17.2205 67.0747
17.401 69.6821
17.5815 59.0152
17.7622 61.3786
17.9428 74.3616
18.1237 142.436
18.3044 91.472
18.4852 75.0087
18.666 60.4291
18.8469 57.8839
19.0278 56.8196
19.2088 59.3615
19.3898 76.0036
19.5709 54.0332
19.752 53.2628
19.9332 56.3321
20.1144 69.821
20.2957 64.0552
20.477 52.9599
20.6586 49.5558
20.84 48.7636
21.0215 48.5905
21.203 50.9394
21.3846 48.7429
21.5662 48.8296
21.7479 52.8787
21.9297 64.674
22.1115 55.975
22.2933 49.6385
22.4753 48.6672
22.6572 48.9619
22.8393 52.2244
23.0214 56.9773
23.2037 48.753
23.3859 49.8965
23.5682 57.1541
23.7505 47.7692
23.9329 45.0662
24.1154 44.1011
24.2979 43.4217
24.4805 42.7488
24.6631 42.769
24.8458 42.2743
25.0286 42.8225
25.2114 44.6332
25.3943 44.4202
25.5773 40.7305
25.7605 40.3624
25.9436 40.6998
26.1268 41.6739
26.31 39.9829
26.4933 40.6774
26.6767 42.0727
26.8601 40.4664
27.0437 38.7885
27.2272 38.3737
27.4109 38.3051
27.5946 38.2733
27.7784 37.778
27.9623 38.4177
28.1462 38.6303
28.3304 37.1315
28.5145 35.8494
28.6987 35.4484
28.8829 35.3459
29.0673 34.5475
29.2517 34.2496
29.4361 34.0534
29.6207 33.0215
29.8053 32.8348
29.99 32.5524
30.1748 32.4557
30.3597 32.1518
30.5447 32.112
30.7297 32.0496
30.915 31.5802
31.1002 31.0595
31.2855 30.8533
31.4708 30.7775
31.6563 30.3091
31.8418 30.0433
32.0275 29.8892
32.2132 29.2873
32.399 28.8915
32.5848 28.5323
32.7708 28.0822
32.9569 28.0112
33.143 27.6759
33.3293 27.3289
33.5158 26.9191
33.7022 26.5436
33.8887 26.1476
34.0753 25.946
34.262 25.5811
34.4488 25.2541
34.6357 25.0237
34.8227 24.6193
35.0098 24.4433
35.1969 24.1926
35.3842 23.9154
35.5716 23.7505
35.759 23.3285
35.9468 23.0455
36.1345 22.8831
36.3222 22.6609
36.5101 22.3654
36.6981 22.0967
36.8861 21.7741
37.0743 21.4437
37.2626 21.1736
37.451 20.8889
37.6395 20.7673
37.8281 20.4871
38.0168 20.1294
38.2056 19.9371
38.3945 19.642
38.5837 19.4244
38.7728 19.1655
38.9621 18.9782
39.1514 18.6726
39.3409 18.4283
39.5304 18.1424
39.7201 17.987
39.9099 17.8017
40.0999 17.5893
40.2899 17.3537
40.48 17.121
40.6703 16.9257
40.8607 16.7085
41.0512 16.471
41.242 16.219
41.4327 16.0267
41.6236 15.7694
41.8146 15.6302
42.0057 15.3988
42.1969 15.2275
42.3882 15.0851
42.5797 14.7552
42.7713 14.6004
42.963 14.3931
43.1549 14.1802
43.3468 13.988
43.5389 13.8178
43.7312 13.6253
43.9237 13.4329
44.1162 13.2244
44.3088 13.0426
44.5016 12.8948
44.6945 12.6993
44.8875 12.5489
45.0806 12.3417
45.2739 12.193
45.4673 11.997
45.6609 11.8559
45.8546 11.7003
46.0484 11.4806
46.2424 11.3403
46.4365 11.1963
46.631 11.0327
46.8254 10.8381
47.0199 10.6621
47.2146 10.4843
47.4095 10.3698
47.6044 10.2391
47.7996 10.09
47.9948 9.91225
48.1902 9.76128
48.3858 9.61696
48.5815 9.52789
48.7774 9.34227
48.9734 9.23248
49.1696 9.10084
49.3661 8.93275
49.5626 8.81282
49.7592 8.68524
49.956 8.51435
50.153 8.40462
50.3501 8.26913
50.5474 8.16663
50.7448 8.04834
50.9424 7.93263
51.1402 7.79512
51.3381 7.66538
51.5362 7.53737
51.7344 7.42291
51.9328 7.25683
52.1316 7.13099
52.3304 7.05973
52.5293 6.93143
52.7284 6.83438
52.9276 6.77349
53.1271 6.61699
53.3267 6.47894
53.5265 6.36053
53.7264 6.26631
53.9266 6.15765
54.1269 6.04881
54.3274 5.93599
54.528 5.83748
54.7289 5.68938
54.9301 5.45147
55.1314 5.35636
55.3328 5.12595
55.5344 4.98439
55.7361 4.76069