Folder: NiFe_MOF_catalyst_paper/XRD (part 141)

File: Ni3Fe_FD0763.xy
TT I
1.27165 7.32527
1.45013 6.29808
1.62863 5.14842
1.80712 4.74353
1.98562 4.23599
2.16411 5.06355
2.34263 5.54056
2.52115 6.87248
2.69965 8.49573
2.87818 8.9248
3.05672 11.4145
3.23527 15.3219
3.4138 19.2281
3.59237 24.5298
3.77094 26.3031
3.9495 29.9991
4.12809 35.0523
4.30669 264.192
4.4853 70.9448
4.6639 55.395
4.84253 66.2265
5.02118 85.4379
5.19981 303.439
5.37848 188.249
5.55716 100.733
5.73586 91.5358
5.91455 92.0575
6.09328 4271.75
6.27201 82.6561
6.45075 66.7781
6.62952 62.6608
6.8083 58.8946
6.98711 55.2816
7.16591 55.7012
7.34475 101.205
7.5236 54.7986
7.70247 55.9707
7.88135 57.6421
8.06026 62.1007
8.23919 69.118
8.41812 84.4547
8.59709 1094.73
8.77609 98.8353
8.9551 92.9112
9.13412 81.148
9.31318 81.7367
9.49226 83.8349
9.67134 99.7524
9.85047 98.576
10.0296 302.719
10.2088 405.213
10.388 104.153
10.5672 507.127
10.7465 85.9493
10.9257 78.3663
11.105 71.7935
11.2844 71.0451
11.4637 64.3817
11.6431 63.5088
11.8225 62.1616
12.002 62.7297
12.1814 147.518
12.3609 71.6783
12.5405 64.1729
12.72 70.3742
12.8996 70.4321
13.0792 77.7427
13.2589 225.764
13.4386 126.721
13.6183 236.723
13.7981 98.432
13.9779 75.5267
14.1577 72.2384
14.3376 71.721
14.5175 68.3995
14.6974 70.007
14.8774 105.537
15.0574 151.503
15.2374 71.0823
15.4175 65.7952
15.5976 65.2783
15.7778 90.9158
15.958 158.107
16.1382 63.0357
16.3185 58.7228
16.4988 55.104
16.6792 54.2456
16.8596 55.0024
17.04 55.3441
17.2205 65.6562
17.401 71.1884
17.5815 58.9442
17.7622 60.7829
17.9428 71.8163
18.1237 138.96
18.3044 88.921
18.4852 77.9909
18.666 60.0039
18.8469 57.7847
19.0278 56.703
19.2088 58.6385
19.3898 76.7502
19.5709 53.9461
19.752 52.8304
19.9332 55.6541
20.1144 69.2814
20.2957 63.2843
20.477 53.3865
20.6586 49.3349
20.84 48.6196
21.0215 48.2265
21.203 50.31
21.3846 48.653
21.5662 48.261
21.7479 51.9314
21.9297 64.2918
22.1115 55.629
22.2933 49.5611
22.4753 48.6181
22.6572 48.3696
22.8393 51.117
23.0214 57.2477
23.2037 48.3739
23.3859 49.0424
23.5682 56.4656
23.7505 48.2516
23.9329 44.8902
24.1154 43.8538
24.2979 43.2999
24.4805 42.7009
24.6631 42.5713
24.8458 41.8784
25.0286 42.4566
25.2114 44.368
25.3943 44.3885
25.5773 40.7283
25.7605 40.0822
25.9436 40.4134
26.1268 41.4905
26.31 39.8943
26.4933 40.4561
26.6767 41.9697
26.8601 40.1542
27.0437 38.6161
27.2272 38.3058
27.4109 38.1622
27.5946 38.089
27.7784 37.5988
27.9623 38.0967
28.1462 38.6291
28.3304 36.9384
28.5145 35.6878
28.6987 35.3113
28.8829 35.217
29.0673 34.4484
29.2517 34.2084
29.4361 33.9995
29.6207 33.0224
29.8053 32.7474
29.99 32.385
30.1748 32.1109
30.3597 32.0779
30.5447 31.9704
30.7297 32.0748
30.915 31.4222
31.1002 30.9272
31.2855 30.7275
31.4708 30.5991
31.6563 30.1404
31.8418 29.9705
32.0275 29.8231
32.2132 29.1902
32.399 28.715
32.5848 28.2384
32.7708 27.9883
32.9569 27.8539
33.143 27.5689
33.3293 27.2815
33.5158 26.8968
33.7022 26.4373
33.8887 26.128
34.0753 25.7913
34.262 25.5312
34.4488 25.1481
34.6357 24.8458
34.8227 24.5833
35.0098 24.359
35.1969 24.0217
35.3842 23.8605
35.5716 23.5968
35.759 23.3673
35.9468 22.9486
36.1345 22.7055
36.3222 22.5154
36.5101 22.3464
36.6981 21.9415
36.8861 21.6547
37.0743 21.3653
37.2626 21.1572
37.451 20.8288
37.6395 20.7207
37.8281 20.4356
38.0168 20.1263
38.2056 19.8624
38.3945 19.5446
38.5837 19.3343
38.7728 19.0938
38.9621 18.8855
39.1514 18.5703
39.3409 18.3919
39.5304 18.1073
39.7201 17.937
39.9099 17.7873
40.0999 17.571
40.2899 17.3017
40.48 17.0556
40.6703 16.8524
40.8607 16.6801
41.0512 16.3546
41.242 16.1559
41.4327 16.0131
41.6236 15.8161
41.8146 15.5732
42.0057 15.3466
42.1969 15.1482
42.3882 14.9637
42.5797 14.7626
42.7713 14.5722
42.963 14.3822
43.1549 14.1785
43.3468 13.8951
43.5389 13.7759
43.7312 13.5527
43.9237 13.3796
44.1162 13.2157
44.3088 12.9857
44.5016 12.8398
44.6945 12.6736
44.8875 12.5003
45.0806 12.2949
45.2739 12.1634
45.4673 11.9463
45.6609 11.7842
45.8546 11.6283
46.0484 11.4955
46.2424 11.325
46.4365 11.1856
46.631 10.9428
46.8254 10.8146
47.0199 10.6809
47.2146 10.5332
47.4095 10.3432
47.6044 10.1811
47.7996 10.05
47.9948 9.93448
48.1902 9.74228
48.3858 9.63718
48.5815 9.47357
48.7774 9.36037
48.9734 9.19189
49.1696 9.06068
49.3661 8.94219
49.5626 8.76743
49.7592 8.63828
49.956 8.53239
50.153 8.43777
50.3501 8.27309
50.5474 8.14713
50.7448 8.02237
50.9424 7.9209
51.1402 7.76987
51.3381 7.6157
51.5362 7.53335
51.7344 7.35
51.9328 7.26923
52.1316 7.14363
52.3304 7.08532
52.5293 6.92711
52.7284 6.79763
52.9276 6.70706
53.1271 6.56729
53.3267 6.48511
53.5265 6.35909
53.7264 6.25893
53.9266 6.12595
54.1269 6.00351
54.3274 5.90154
54.528 5.78464
54.7289 5.62223
54.9301 5.45811
55.1314 5.37076
55.3328 5.1616
55.5344 4.95668
55.7361 4.79617

File: Ni3Fe_FD0766.xy
TT I
1.27165 7.09308
1.45013 5.81306
1.62863 5.4717
1.80712 5.3111
1.98562 4.7664
2.16411 4.6813
2.34263 5.27926
2.52115 6.6649
2.69965 8.11727
2.87818 8.92551
3.05672 11.3797
3.23527 14.9729
3.4138 18.9986
3.59237 24.7224
3.77094 26.3645
3.9495 29.7575
4.12809 34.8199
4.30669 274.826
4.4853 71.6466
4.6639 54.8556
4.84253 66.0935
5.02118 84.9439
5.19981 300.669
5.37848 189.255
5.55716 100.265
5.73586 90.7542
5.91455 91.7096
6.09328 4217.74
6.27201 82.8471
6.45075 66.9034
6.62952 62.6252
6.8083 58.6496
6.98711 55.8461
7.16591 55.4728
7.34475 104.003
7.5236 54.8665
7.70247 55.995
7.88135 57.2018
8.06026 61.9005
8.23919 68.9378
8.41812 84.4708
8.59709 1085.97
8.77609 98.9216
8.9551 92.5609
9.13412 81.3902
9.31318 81.4285
9.49226 83.8218
9.67134 100.056
9.85047 98.4928
10.0296 298.106
10.2088 409.923
10.388 103.851
10.5672 511.165
10.7465 85.6084
10.9257 78.0313
11.105 71.2718
11.2844 70.8844
11.4637 64.5481
11.6431 63.3569
11.8225 62.087
12.002 62.8869
12.1814 145.238
12.3609 71.7215
12.5405 63.9275
12.72 70.7123
12.8996 70.2659
13.0792 77.9825
13.2589 223.272
13.4386 128.647
13.6183 234.345
13.7981 98.8372
13.9779 74.8822
14.1577 71.8976
14.3376 71.5985
14.5175 68.2829
14.6974 69.5216
14.8774 104.864
15.0574 153.068
15.2374 71.1772
15.4175 65.7776
15.5976 64.9911
15.7778 90.3414
15.958 159.633
16.1382 62.8722
16.3185 58.5353
16.4988 55.2548
16.6792 54.0531
16.8596 55.0008
17.04 55.3973
17.2205 65.5037
17.401 71.3489
17.5815 58.6167
17.7622 60.6771
17.9428 71.4778
18.1237 139.585
18.3044 88.8715
18.4852 78.3378
18.666 60.0362
18.8469 57.7074
19.0278 56.5106
19.2088 58.9649
19.3898 76.9633
19.5709 53.8512
19.752 52.9006
19.9332 55.4343
20.1144 69.3584
20.2957 63.0012
20.477 53.5703
20.6586 49.2985
20.84 48.5196
21.0215 48.0582
21.203 50.5806
21.3846 48.6877
21.5662 48.2154
21.7479 51.6974
21.9297 64.3847
22.1115 55.6551
22.2933 49.7762
22.4753 48.7187
22.6572 48.4545
22.8393 51.1761
23.0214 57.3642
23.2037 48.4431
23.3859 49.125
23.5682 56.5545
23.7505 48.2621
23.9329 44.9308
24.1154 43.8379
24.2979 43.192
24.4805 42.7685
24.6631 42.6279
24.8458 41.9459
25.0286 42.4255
25.2114 44.3107
25.3943 44.4697
25.5773 40.8092
25.7605 40.1855
25.9436 40.5819
26.1268 41.5169
26.31 39.9282
26.4933 40.5716
26.6767 41.9595
26.8601 40.2927
27.0437 38.6757
27.2272 38.2376
27.4109 37.9359
27.5946 38.1319
27.7784 37.4827
27.9623 38.0598
28.1462 38.6272
28.3304 36.9454
28.5145 35.7878
28.6987 35.4526
28.8829 35.2222
29.0673 34.5547
29.2517 34.2948
29.4361 34.013
29.6207 32.9457
29.8053 32.7041
29.99 32.3819
30.1748 32.2906
30.3597 32.0966
30.5447 32.0338
30.7297 31.9602
30.915 31.4677
31.1002 30.9795
31.2855 30.7489
31.4708 30.7454
31.6563 30.2139
31.8418 29.9338
32.0275 29.7572
32.2132 29.2842
32.399 28.819
32.5848 28.4134
32.7708 28.0108
32.9569 27.85
33.143 27.6521
33.3293 27.2734
33.5158 27.0122
33.7022 26.5156
33.8887 26.0794
34.0753 25.8534
34.262 25.5536
34.4488 25.1788
34.6357 24.835
34.8227 24.6044
35.0098 24.3691
35.1969 24.0652
35.3842 23.9291
35.5716 23.6213
35.759 23.2983
35.9468 22.9957
36.1345 22.8357
36.3222 22.5661
36.5101 22.2636
36.6981 22.0446
36.8861 21.648
37.0743 21.3985
37.2626 21.1608
37.451 20.8906
37.6395 20.7251
37.8281 20.4023
38.0168 20.1273
38.2056 19.8718
38.3945 19.5441
38.5837 19.3553
38.7728 19.1269
38.9621 18.8572
39.1514 18.5999
39.3409 18.3712
39.5304 18.127
39.7201 18.019
39.9099 17.7048
40.0999 17.5334
40.2899 17.2312
40.48 17.0501
40.6703 16.8419
40.8607 16.6818
41.0512 16.4629
41.242 16.1279
41.4327 15.9749
41.6236 15.7471
41.8146 15.547
42.0057 15.3864
42.1969 15.155
42.3882 14.9954
42.5797 14.7272
42.7713 14.5929
42.963 14.345
43.1549 14.1772
43.3468 13.9246
43.5389 13.7954
43.7312 13.6035
43.9237 13.4378
44.1162 13.2359
44.3088 13.0363
44.5016 12.8299
44.6945 12.6802
44.8875 12.4955
45.0806 12.3087
45.2739 12.1223
45.4673 11.9878
45.6609 11.8278
45.8546 11.6434
46.0484 11.4945
46.2424 11.3393
46.4365 11.1359
46.631 11.0296
46.8254 10.8082
47.0199 10.6783
47.2146 10.5046
47.4095 10.3442
47.6044 10.2335
47.7996 10.008
47.9948 9.88501
48.1902 9.75431
48.3858 9.62437
48.5815 9.51406
48.7774 9.36605
48.9734 9.18881
49.1696 9.08059
49.3661 8.91852
49.5626 8.76074
49.7592 8.68875
49.956 8.54177
50.153 8.41922
50.3501 8.27134
50.5474 8.1544
50.7448 8.04585
50.9424 7.90945
51.1402 7.78304
51.3381 7.64623
51.5362 7.53448
51.7344 7.3932
51.9328 7.269
52.1316 7.17238
52.3304 7.00532
52.5293 6.93907
52.7284 6.80373
52.9276 6.72378
53.1271 6.61201
53.3267 6.50319
53.5265 6.37264
53.7264 6.25678
53.9266 6.13817
54.1269 5.9839
54.3274 5.88277
54.528 5.82436
54.7289 5.64162
54.9301 5.43081
55.1314 5.33643
55.3328 5.12876
55.5344 4.98945
55.7361 4.77456

File: Ni3Fe_FD0767.xy
TT I
1.27165 7.15428
1.45013 5.99092
1.62863 5.30576
1.80712 5.01914
1.98562 4.75862
2.16411 4.96302
2.34263 5.76293
2.52115 6.88553
2.69965 8.26453
2.87818 8.89162
3.05672 11.127
3.23527 15.3078
3.4138 18.8812
3.59237 24.5442
3.77094 26.6042
3.9495 29.8977
4.12809 34.9043
4.30669 274.596
4.4853 71.0627
4.6639 55.2146
4.84253 66.5722
5.02118 85.1522
5.19981 303.82
5.37848 188.125
5.55716 100.524
5.73586 90.8933
5.91455 91.8448
6.09328 4196.53
6.27201 82.8998
6.45075 66.9626
6.62952 62.7826
6.8083 58.8338
6.98711 55.9678
7.16591 55.38
7.34475 103.351
7.5236 54.8819
7.70247 56.0647
7.88135 58.0039
8.06026 61.885
8.23919 68.8531
8.41812 84.6736
8.59709 1092.89
8.77609 99.0079
8.9551 93.0162
9.13412 81.1681
9.31318 81.6622
9.49226 83.7192
9.67134 100.208
9.85047 98.7242
10.0296 299.91
10.2088 404.235
10.388 104.102
10.5672 510.361
10.7465 86.048
10.9257 78.5777
11.105 71.476
11.2844 70.968
11.4637 64.5765
11.6431 63.2929
11.8225 62.2161
12.002 62.8269
12.1814 146.242
12.3609 71.7021
12.5405 64.3534
12.72 70.5822
12.8996 70.3037
13.0792 77.9197
13.2589 223.902
13.4386 127.812
13.6183 234.556
13.7981 98.4427
13.9779 75.171
14.1577 72.3131
14.3376 71.7294
14.5175 68.1079
14.6974 69.8607
14.8774 105.424
15.0574 151.948
15.2374 71.0632
15.4175 65.9109
15.5976 65.1772
15.7778 90.5589
15.958 158.58
16.1382 62.9617
16.3185 58.8186
16.4988 55.2637
16.6792 54.4539
16.8596 54.9544
17.04 55.3679
17.2205 65.4131
17.401 71.0793
17.5815 58.6805
17.7622 60.5564
17.9428 71.5886
18.1237 138.891
18.3044 88.5692
18.4852 78.2868
18.666 59.9992
18.8469 57.5492
19.0278 56.7182
19.2088 58.919
19.3898 76.8365
19.5709 53.8279
19.752 52.8334
19.9332 55.495
20.1144 69.2068
20.2957 63.1927
20.477 53.7107
20.6586 49.3659
20.84 48.4088
21.0215 48.1648
21.203 50.4484
21.3846 48.5229
21.5662 48.3918
21.7479 51.7018
21.9297 64.4512
22.1115 55.6138
22.2933 49.7667
22.4753 48.8392
22.6572 48.3672
22.8393 51.1876
23.0214 57.3184
23.2037 48.4082
23.3859 49.0238
23.5682 56.8001
23.7505 48.2716
23.9329 44.9563
24.1154 43.8146
24.2979 43.13
24.4805 42.6685
24.6631 42.6003
24.8458 41.9139
25.0286 42.416
25.2114 44.3251
25.3943 44.4105
25.5773 40.8057
25.7605 40.1748
25.9436 40.5234
26.1268 41.4243
26.31 39.7641
26.4933 40.4083
26.6767 42.0733
26.8601 40.2456
27.0437 38.5152
27.2272 38.233
27.4109 38.0693
27.5946 38.1306
27.7784 37.5413
27.9623 38.1189
28.1462 38.596
28.3304 36.9869
28.5145 35.7198
28.6987 35.4299
28.8829 35.2495
29.0673 34.5705
29.2517 34.1362
29.4361 34.0076
29.6207 32.9393
29.8053 32.6549
29.99 32.4588
30.1748 32.2365
30.3597 32.0178
30.5447 31.9656
30.7297 32.0904
30.915 31.3962
31.1002 31.0056
31.2855 30.6493
31.4708 30.6522
31.6563 30.1737
31.8418 29.9801
32.0275 29.6778
32.2132 29.1575
32.399 28.7792
32.5848 28.3135
32.7708 27.989
32.9569 27.9233
33.143 27.6776
33.3293 27.2334
33.5158 26.8093
33.7022 26.5193
33.8887 26.2161
34.0753 25.9317
34.262 25.4619
34.4488 25.2153
34.6357 24.7924
34.8227 24.6402
35.0098 24.3126
35.1969 24.0785
35.3842 23.8048
35.5716 23.6353
35.759 23.3082
35.9468 23.0133
36.1345 22.8042
36.3222 22.5783
36.5101 22.3189
36.6981 22.0393
36.8861 21.7045
37.0743 21.3736
37.2626 21.1818
37.451 20.8838
37.6395 20.7599
37.8281 20.3719
38.0168 20.1272
38.2056 19.8493
38.3945 19.5891
38.5837 19.3456
38.7728 19.186
38.9621 18.8992
39.1514 18.5408
39.3409 18.3684
39.5304 18.1946
39.7201 17.9838
39.9099 17.7028
40.0999 17.5251
40.2899 17.3136
40.48 17.0476
40.6703 16.8408
40.8607 16.6252
41.0512 16.4045
41.242 16.1472
41.4327 15.9917
41.6236 15.7324
41.8146 15.5456
42.0057 15.3229
42.1969 15.1452
42.3882 14.9973
42.5797 14.8205
42.7713 14.5761
42.963 14.3693
43.1549 14.1995
43.3468 13.958
43.5389 13.7672
43.7312 13.5714
43.9237 13.3942
44.1162 13.2137
44.3088 13.0153
44.5016 12.8163
44.6945 12.6761
44.8875 12.5477
45.0806 12.3449
45.2739 12.1657
45.4673 12.0001
45.6609 11.7881
45.8546 11.6227
46.0484 11.4763
46.2424 11.3203
46.4365 11.1576
46.631 10.9787
46.8254 10.8243
47.0199 10.6825
47.2146 10.4922
47.4095 10.3355
47.6044 10.183
47.7996 10.0285
47.9948 9.8965
48.1902 9.76529
48.3858 9.6163
48.5815 9.4927
48.7774 9.38252
48.9734 9.22097
49.1696 9.09605
49.3661 8.93163
49.5626 8.78315
49.7592 8.67076
49.956 8.53066
50.153 8.38407
50.3501 8.28728
50.5474 8.16417
50.7448 8.01684
50.9424 7.88844
51.1402 7.76146
51.3381 7.60724
51.5362 7.53151
51.7344 7.40519
51.9328 7.26735
52.1316 7.14948
52.3304 7.05532
52.5293 6.93665
52.7284 6.83165
52.9276 6.70582
53.1271 6.63958
53.3267 6.46285
53.5265 6.36655
53.7264 6.25667
53.9266 6.14255
54.1269 6.04198
54.3274 5.91002
54.528 5.77911
54.7289 5.57949
54.9301 5.47489
55.1314 5.31662
55.3328 5.10892
55.5344 4.94429
55.7361 4.77906

File: Ni3Fe_FD0768.xy
TT I
1.27165 7.2482
1.45013 6.54887
1.62863 5.06893
1.80712 4.65864
1.98562 4.41158
2.16411 4.73658
2.34263 5.28299
2.52115 7.2518
2.69965 8.28579
2.87818 9.06323
3.05672 11.2127
3.23527 14.9993
3.4138 18.6924
3.59237 24.5781
3.77094 26.1665
3.9495 29.6299
4.12809 34.7856
4.30669 275.663
4.4853 71.173
4.6639 54.8118
4.84253 66.522
5.02118 84.9504
5.19981 302.74
5.37848 187.951
5.55716 100.803
5.73586 90.7804
5.91455 91.779
6.09328 4220.04
6.27201 82.5375
6.45075 66.9743
6.62952 62.792
6.8083 58.4857
6.98711 56.1085
7.16591 55.4043
7.34475 103.499
7.5236 54.9063
7.70247 56.0071
7.88135 57.4195
8.06026 61.9855
8.23919 68.9799
8.41812 84.8539
8.59709 1088.7
8.77609 98.6639
8.9551 92.9639
9.13412 80.979
9.31318 81.296
9.49226 83.6949
9.67134 100.272
9.85047 98.8138
10.0296 298.584
10.2088 405.872
10.388 103.766
10.5672 513.694
10.7465 86.184
10.9257 78.2186
11.105 71.3003
11.2844 71.3015
11.4637 64.2837
11.6431 63.0953
11.8225 62.2501
12.002 62.9381
12.1814 145.602
12.3609 72.0555
12.5405 63.9517
12.72 70.9487
12.8996 70.5551
13.0792 77.5782
13.2589 223.484
13.4386 127.135
13.6183 234.297
13.7981 98.397
13.9779 75.2499
14.1577 72.1068
14.3376 71.6284
14.5175 67.9969
14.6974 69.8266
14.8774 105.038
15.0574 152.28
15.2374 71.3121
15.4175 65.7397
15.5976 65.2209
15.7778 90.3959
15.958 159.124
16.1382 62.9518
16.3185 58.7273
16.4988 55.1241
16.6792 54.1205
16.8596 54.9724
17.04 55.2887
17.2205 65.5012
17.401 71.0948
17.5815 58.6553
17.7622 60.4964
17.9428 71.5005
18.1237 138.622
18.3044 88.921
18.4852 78.6245
18.666 59.9147
18.8469 57.7202
19.0278 56.5139
19.2088 58.7815
19.3898 76.9562
19.5709 53.9715
19.752 52.8764
19.9332 55.5333
20.1144 69.5356
20.2957 62.9768
20.477 53.6846
20.6586 49.4268
20.84 48.4077
21.0215 48.2595
21.203 50.3404
21.3846 48.764
21.5662 48.431
21.7479 51.767
21.9297 64.3341
22.1115 55.4612
22.2933 49.7669
22.4753 48.7442
22.6572 48.4185
22.8393 51.1816
23.0214 57.3264
23.2037 48.4133
23.3859 49.0722
23.5682 56.5578
23.7505 48.3103
23.9329 44.9263
24.1154 43.7246
24.2979 43.0893
24.4805 42.4693
24.6631 42.5724
24.8458 41.8852
25.0286 42.5237
25.2114 44.3781
25.3943 44.4756
25.5773 40.6755
25.7605 40.0983
25.9436 40.4891
26.1268 41.5124
26.31 39.882
26.4933 40.2412
26.6767 42.0234
26.8601 40.3116
27.0437 38.6725
27.2272 38.2871
27.4109 38.1206
27.5946 38.1038
27.7784 37.6088
27.9623 38.0122
28.1462 38.5267
28.3304 37.0229
28.5145 35.7333
28.6987 35.3678
28.8829 35.3367
29.0673 34.445
29.2517 34.1266
29.4361 33.9097
29.6207 33.0114
29.8053 32.6916
29.99 32.2884
30.1748 32.3587
30.3597 32.0117
30.5447 31.8252
30.7297 32.0588
30.915 31.4633
31.1002 30.9094
31.2855 30.6229
31.4708 30.685
31.6563 30.1961
31.8418 29.8597
32.0275 29.7678
32.2132 29.2715
32.399 28.7313
32.5848 28.312
32.7708 27.9441
32.9569 27.8108
33.143 27.6055
33.3293 27.2705
33.5158 26.8835
33.7022 26.4256
33.8887 26.2119
34.0753 25.832
34.262 25.5278
34.4488 25.1672
34.6357 24.7916
34.8227 24.6056
35.0098 24.3882
35.1969 24.12
35.3842 23.8424
35.5716 23.6805
35.759 23.3707
35.9468 23.0287
36.1345 22.8122
36.3222 22.5137
36.5101 22.3406
36.6981 22.0426
36.8861 21.658
37.0743 21.3933
37.2626 21.1512
37.451 20.8716
37.6395 20.7516
37.8281 20.3845
38.0168 20.0823
38.2056 19.8705
38.3945 19.6187
38.5837 19.3565
38.7728 19.1064
38.9621 18.9162
39.1514 18.6166
39.3409 18.3868
39.5304 18.1668
39.7201 17.9787
39.9099 17.7261
40.0999 17.4738
40.2899 17.2767
40.48 17.0063
40.6703 16.8966
40.8607 16.6029
41.0512 16.4498
41.242 16.1736
41.4327 16.0304
41.6236 15.7543
41.8146 15.582
42.0057 15.3539
42.1969 15.1073
42.3882 14.967
42.5797 14.7631
42.7713 14.5467
42.963 14.3297
43.1549 14.1572
43.3468 13.9788
43.5389 13.7523
43.7312 13.606
43.9237 13.4722
44.1162 13.2104
44.3088 13.0251
44.5016 12.8686
44.6945 12.6948
44.8875 12.5136
45.0806 12.2759
45.2739 12.1407
45.4673 11.9697
45.6609 11.7783
45.8546 11.658
46.0484 11.4649
46.2424 11.3263
46.4365 11.1818
46.631 10.9549
46.8254 10.7975
47.0199 10.6609
47.2146 10.5207
47.4095 10.3192
47.6044 10.1965
47.7996 10.0521
47.9948 9.8786
48.1902 9.78461
48.3858 9.64005
48.5815 9.48285
48.7774 9.33408
48.9734 9.21734
49.1696 9.07061
49.3661 8.90687
49.5626 8.79273
49.7592 8.63695
49.956 8.50715
50.153 8.37717
50.3501 8.3053
50.5474 8.12334
50.7448 8.05139
50.9424 7.9045
51.1402 7.75986
51.3381 7.62623
51.5362 7.53306
51.7344 7.41763
51.9328 7.28928
52.1316 7.13939
52.3304 7.04082
52.5293 6.91434
52.7284 6.81555
52.9276 6.69612
53.1271 6.57019
53.3267 6.45871
53.5265 6.32402
53.7264 6.26195
53.9266 6.1499
54.1269 6.06011
54.3274 5.90804
54.528 5.7773
54.7289 5.65186
54.9301 5.44678
55.1314 5.33131
55.3328 5.12976
55.5344 4.93146
55.7361 4.79385

File: Ni3Fe_FD0770.xy
TT I
1.27165 7.4113
1.45013 6.53364
1.62863 5.08318
1.80712 5.08978
1.98562 4.90163
2.16411 4.88683
2.34263 5.88929
2.52115 6.67861
2.69965 8.46938
2.87818 8.47599
3.05672 11.1163
3.23527 15.1115
3.4138 19.2199
3.59237 24.6471
3.77094 26.4174
3.9495 30.2829
4.12809 34.9088
4.30669 277.021
4.4853 71.3329
4.6639 55.0497
4.84253 66.2325
5.02118 85.5951
5.19981 303.649
5.37848 188.108
5.55716 100.853
5.73586 91.0217
5.91455 91.9854
6.09328 4244.27
6.27201 82.9938
6.45075 66.978
6.62952 62.9907
6.8083 58.7398
6.98711 55.7141
7.16591 55.4237
7.34475 103.9
7.5236 54.6719
7.70247 56.2478
7.88135 57.7548
8.06026 61.7574
8.23919 68.8853
8.41812 84.5453
8.59709 1089.94
8.77609 98.921
8.9551 92.6669
9.13412 81.2194
9.31318 81.6753
9.49226 83.587
9.67134 100.784
9.85047 98.4464
10.0296 298.977
10.2088 405.384
10.388 103.654
10.5672 512.574
10.7465 86.3321
10.9257 78.4835
11.105 71.6182
11.2844 71.0983
11.4637 64.7274
11.6431 63.3952
11.8225 62.1727
12.002 62.9209
12.1814 145.406
12.3609 72.1423
12.5405 63.9986
12.72 70.9487
12.8996 70.4695
13.0792 77.865
13.2589 223.63
13.4386 126.496
13.6183 233.716
13.7981 98.3064
13.9779 75.4902
14.1577 72.535
14.3376 71.5989
14.5175 68.2747
14.6974 69.8012
14.8774 104.901
15.0574 151.817
15.2374 71.4011
15.4175 65.8416
15.5976 65.2893
15.7778 90.2763
15.958 159.413
16.1382 63.0065
16.3185 58.769
16.4988 55.2193
16.6792 54.2572
16.8596 55.0598
17.04 55.3339
17.2205 65.6943
17.401 71.0964
17.5815 58.8596
17.7622 60.8819
17.9428 71.758
18.1237 138.711
18.3044 88.7389
18.4852 78.5251
18.666 60.0902
18.8469 57.5563
19.0278 56.4926
19.2088 58.9682
19.3898 76.7254
19.5709 53.8034
19.752 52.9901
19.9332 55.4997
20.1144 69.2406
20.2957 63.229
20.477 53.5791
20.6586 49.2559
20.84 48.4366
21.0215 48.1441
21.203 50.497
21.3846 48.7632
21.5662 48.3696
21.7479 51.8344
21.9297 64.3534
22.1115 55.6365
22.2933 49.7338
22.4753 48.6847
22.6572 48.3952
22.8393 51.0469
23.0214 57.2285
23.2037 48.4438
23.3859 49.1634
23.5682 56.4059
23.7505 48.1983
23.9329 45.0464
24.1154 43.7569
24.2979 43.1966
24.4805 42.704
24.6631 42.5902
24.8458 42.005
25.0286 42.3139
25.2114 44.3524
25.3943 44.5228
25.5773 40.7058
25.7605 40.2869
25.9436 40.5223
26.1268 41.5303
26.31 39.7969
26.4933 40.4088
26.6767 41.9307
26.8601 40.2561
27.0437 38.6256
27.2272 38.2193
27.4109 38.2829
27.5946 38.1693
27.7784 37.6363
27.9623 38.0435
28.1462 38.6404
28.3304 37.0263
28.5145 35.8109
28.6987 35.4479
28.8829 35.2949
29.0673 34.4766
29.2517 34.1517
29.4361 33.9618
29.6207 33.0097
29.8053 32.7075
29.99 32.404
30.1748 32.3436
30.3597 32.0592
30.5447 31.9809
30.7297 31.9427
30.915 31.5289
31.1002 30.9278
31.2855 30.6814
31.4708 30.6125
31.6563 30.2269
31.8418 29.9644
32.0275 29.6656
32.2132 29.1664
32.399 28.8458
32.5848 28.3431
32.7708 27.9937
32.9569 27.8228
33.143 27.6624
33.3293 27.3157
33.5158 26.8958
33.7022 26.4457
33.8887 26.141
34.0753 25.7987
34.262 25.5205
34.4488 25.1697
34.6357 24.7742
34.8227 24.5589
35.0098 24.4504
35.1969 24.0688
35.3842 23.9074
35.5716 23.5999
35.759 23.3473
35.9468 22.9967
36.1345 22.8142
36.3222 22.5266
36.5101 22.2949
36.6981 22.0268
36.8861 21.6908
37.0743 21.412
37.2626 21.0618
37.451 20.9665
37.6395 20.7301
37.8281 20.3748
38.0168 20.0919
38.2056 19.8653
38.3945 19.5869
38.5837 19.3394
38.7728 19.1248
38.9621 18.9261
39.1514 18.6213
39.3409 18.3828
39.5304 18.221
39.7201 17.926
39.9099 17.7434
40.0999 17.4542
40.2899 17.3016
40.48 17.0098
40.6703 16.8172
40.8607 16.6485
41.0512 16.4708
41.242 16.1685
41.4327 15.9655
41.6236 15.7829
41.8146 15.5284
42.0057 15.3619
42.1969 15.1001
42.3882 15.0145
42.5797 14.7689
42.7713 14.6057
42.963 14.3325
43.1549 14.2005
43.3468 13.9514
43.5389 13.8127
43.7312 13.5811
43.9237 13.3566
44.1162 13.1767
44.3088 13.0269
44.5016 12.8582
44.6945 12.6748
44.8875 12.4944
45.0806 12.2839
45.2739 12.1622
45.4673 11.9436
45.6609 11.8333
45.8546 11.681
46.0484 11.499
46.2424 11.2807
46.4365 11.1356
46.631 10.9479
46.8254 10.8202
47.0199 10.7325
47.2146 10.5571
47.4095 10.3554
47.6044 10.1871
47.7996 10.04
47.9948 9.89611
48.1902 9.76396
48.3858 9.62202
48.5815 9.50954
48.7774 9.36063
48.9734 9.23408
49.1696 9.05511
49.3661 8.94598
49.5626 8.79309
49.7592 8.69351
49.956 8.53272
50.153 8.40184
50.3501 8.27587
50.5474 8.11675
50.7448 8.03671
50.9424 7.92023
51.1402 7.7695
51.3381 7.63038
51.5362 7.53151
51.7344 7.39832
51.9328 7.27622
52.1316 7.14551
52.3304 7.04309
52.5293 6.89286
52.7284 6.85468
52.9276 6.69279
53.1271 6.58195
53.3267 6.4526
53.5265 6.34685
53.7264 6.2529
53.9266 6.14608
54.1269 6.01513
54.3274 5.92787
54.528 5.75072
54.7289 5.60218
54.9301 5.407
55.1314 5.36049
55.3328 5.09169
55.5344 4.90175
55.7361 4.81769