Folder: NiFe_MOF_catalyst_paper/XRD (part 18)

File: Ni3Fe_FD0090.xy
TT I
1.27165 8.92217
1.45013 7.4556
1.62863 6.71689
1.80712 6.00162
1.98562 6.01004
2.16411 5.21229
2.34263 4.76153
2.52115 4.10993
2.69965 5.86112
2.87818 7.59634
3.05672 10.6612
3.23527 14.89
3.4138 18.5241
3.59237 21.2438
3.77094 24.6844
3.9495 28.1248
4.12809 32.2697
4.30669 37.2107
4.4853 44.4359
4.6639 54.1595
4.84253 66.9753
5.02118 97.0002
5.19981 743.144
5.37848 869.076
5.55716 116.245
5.73586 100.378
5.91455 116.94
6.09328 1876.07
6.27201 102.092
6.45075 67.3594
6.62952 59.7555
6.8083 54.9506
6.98711 52.7027
7.16591 51.6556
7.34475 51.3082
7.5236 63.2959
7.70247 53.7889
7.88135 55.657
8.06026 59.815
8.23919 67.5483
8.41812 85.08
8.59709 686.833
8.77609 139.731
8.9551 85.9211
9.13412 81.7204
9.31318 105.983
9.49226 83.0486
9.67134 87.6831
9.85047 98.8311
10.0296 610.097
10.2088 1314.72
10.388 107.026
10.5672 227.952
10.7465 99.9738
10.9257 75.1451
11.105 68.9871
11.2844 65.3255
11.4637 62.3648
11.6431 60.9586
11.8225 60.3286
12.002 74.7495
12.1814 97.2864
12.3609 85.9244
12.5405 62.257
12.72 64.1196
12.8996 68.5702
13.0792 79.7569
13.2589 173.673
13.4386 279.085
13.6183 156.076
13.7981 203.6
13.9779 75.377
14.1577 80.5246
14.3376 68.2502
14.5175 67.2904
14.6974 68.774
14.8774 119.451
15.0574 207.292
15.2374 68.6851
15.4175 64.9502
15.5976 64.8043
15.7778 107.621
15.958 168.802
16.1382 63.118
16.3185 56.5514
16.4988 54.1092
16.6792 52.9887
16.8596 53.2664
17.04 54.7438
17.2205 62.3961
17.401 80.9828
17.5815 57.998
17.7622 60.6717
17.9428 85.9063
18.1237 92.8448
18.3044 88.226
18.4852 101.504
18.666 60.2209
18.8469 57.2628
19.0278 55.7428
19.2088 61.5274
19.3898 63.2695
19.5709 57.8773
19.752 52.4773
19.9332 57.4904
20.1144 61.7316
20.2957 59.0531
20.477 62.2128
20.6586 49.0365
20.84 48.5491
21.0215 48.3395
21.203 47.8787
21.3846 50.3904
21.5662 47.935
21.7479 53.0086
21.9297 56.8334
22.1115 55.972
22.2933 53.4752
22.4753 48.0126
22.6572 48.3071
22.8393 50.5562
23.0214 53.4381
23.2037 49.9263
23.3859 51.4897
23.5682 50.0467
23.7505 55.3538
23.9329 45.0227
24.1154 43.6117
24.2979 42.8721
24.4805 42.1618
24.6631 42.3956
24.8458 41.8065
25.0286 42.0702
25.2114 42.8091
25.3943 43.0614
25.5773 41.5714
25.7605 40.0615
25.9436 40.1
26.1268 40.2856
26.31 40.6275
26.4933 39.983
26.6767 40.3422
26.8601 40.8911
27.0437 39.0764
27.2272 38.3964
27.4109 37.8002
27.5946 37.878
27.7784 37.9509
27.9623 37.5419
28.1462 38.1939
28.3304 37.3295
28.5145 35.7739
28.6987 35.2216
28.8829 34.7321
29.0673 34.6985
29.2517 33.827
29.4361 33.4927
29.6207 33.0879
29.8053 32.4129
29.99 32.1891
30.1748 31.8713
30.3597 31.9307
30.5447 31.6783
30.7297 31.458
30.915 31.5379
31.1002 30.8283
31.2855 30.4581
31.4708 30.2747
31.6563 30.2643
31.8418 29.6954
32.0275 29.4983
32.2132 29.2339
32.399 28.5973
32.5848 28.1021
32.7708 27.7792
32.9569 27.6005
33.143 27.2902
33.3293 26.9896
33.5158 26.8279
33.7022 26.2451
33.8887 25.9404
34.0753 25.6733
34.262 25.1944
34.4488 24.997
34.6357 24.5899
34.8227 24.3652
35.0098 24.1452
35.1969 23.8303
35.3842 23.4924
35.5716 23.4014
35.759 23.1789
35.9468 22.8171
36.1345 22.5563
36.3222 22.357
36.5101 22.1262
36.6981 21.7363
36.8861 21.4772
37.0743 21.1879
37.2626 20.9612
37.451 20.7151
37.6395 20.5183
37.8281 20.2359
38.0168 19.9367
38.2056 19.6453
38.3945 19.3962
38.5837 19.2386
38.7728 18.9566
38.9621 18.6226
39.1514 18.4493
39.3409 18.1892
39.5304 18.0217
39.7201 17.8004
39.9099 17.6114
40.0999 17.3533
40.2899 17.1109
40.48 16.9076
40.6703 16.6582
40.8607 16.5434
41.0512 16.3272
41.242 16.0602
41.4327 15.8682
41.6236 15.6091
41.8146 15.422
42.0057 15.2006
42.1969 14.9895
42.3882 14.8474
42.5797 14.6375
42.7713 14.4138
42.963 14.2167
43.1549 13.9838
43.3468 13.8046
43.5389 13.6145
43.7312 13.4669
43.9237 13.2773
44.1162 13.0795
44.3088 12.9118
44.5016 12.7076
44.6945 12.6076
44.8875 12.3632
45.0806 12.1644
45.2739 11.967
45.4673 11.89
45.6609 11.6657
45.8546 11.5172
46.0484 11.3776
46.2424 11.2036
46.4365 11.0557
46.631 10.8693
46.8254 10.6904
47.0199 10.5779
47.2146 10.4096
47.4095 10.2471
47.6044 10.151
47.7996 9.94761
47.9948 9.79526
48.1902 9.67432
48.3858 9.49479
48.5815 9.4102
48.7774 9.28486
48.9734 9.1229
49.1696 8.98373
49.3661 8.88273
49.5626 8.7136
49.7592 8.5971
49.956 8.50197
50.153 8.3668
50.3501 8.21023
50.5474 8.08804
50.7448 7.97551
50.9424 7.8529
51.1402 7.75337
51.3381 7.57835
51.5362 7.44967
51.7344 7.37343
51.9328 7.19639
52.1316 7.0995
52.3304 6.99255
52.5293 6.90681
52.7284 6.78004
52.9276 6.6509
53.1271 6.55145
53.3267 6.43654
53.5265 6.27203
53.7264 6.18676
53.9266 6.11464
54.1269 5.95439
54.3274 5.82968
54.528 5.66844
54.7289 5.506
54.9301 5.29456
55.1314 5.13172
55.3328 4.97515
55.5344 4.79656
55.7361 4.7042

File: Ni3Fe_FD0091.xy
TT I
1.27165 9.06381
1.45013 7.47623
1.62863 5.91521
1.80712 5.84098
1.98562 5.62317
2.16411 5.59126
2.34263 4.67059
2.52115 3.8125
2.69965 4.62023
2.87818 7.68358
3.05672 10.7902
3.23527 14.8549
3.4138 18.7116
3.59237 21.0572
3.77094 24.3065
3.9495 27.9416
4.12809 32.2313
4.30669 38.0863
4.4853 44.5218
4.6639 53.1996
4.84253 66.1428
5.02118 95.897
5.19981 723.598
5.37848 857.555
5.55716 115.132
5.73586 99.7433
5.91455 116.415
6.09328 1905.85
6.27201 101.687
6.45075 67.7668
6.62952 59.3753
6.8083 55.0312
6.98711 52.6335
7.16591 51.97
7.34475 51.3525
7.5236 61.8835
7.70247 53.163
7.88135 55.2022
8.06026 59.5235
8.23919 67.1442
8.41812 85.2114
8.59709 699.982
8.77609 138.72
8.9551 85.6826
9.13412 81.251
9.31318 104.229
9.49226 82.539
9.67134 87.6148
9.85047 98.5727
10.0296 606.132
10.2088 1302.47
10.388 106.768
10.5672 231.679
10.7465 99.4805
10.9257 74.9199
11.105 69.0856
11.2844 64.8932
11.4637 62.2871
11.6431 60.8796
11.8225 60.2951
12.002 73.9607
12.1814 98.4099
12.3609 85.681
12.5405 62.216
12.72 63.991
12.8996 68.406
13.0792 79.3641
13.2589 175.949
13.4386 278.109
13.6183 157.873
13.7981 202.309
13.9779 75.4536
14.1577 80.0727
14.3376 68.136
14.5175 67.2696
14.6974 68.5276
14.8774 119.919
15.0574 207.976
15.2374 68.807
15.4175 64.9445
15.5976 64.6686
15.7778 108.052
15.958 169.578
16.1382 63.3183
16.3185 56.372
16.4988 53.8627
16.6792 52.943
16.8596 53.3733
17.04 54.6651
17.2205 62.7018
17.401 80.998
17.5815 57.9573
17.7622 60.6861
17.9428 85.7969
18.1237 93.7441
18.3044 88.2146
18.4852 101.768
18.666 60.2901
18.8469 57.433
19.0278 55.9116
19.2088 61.4217
19.3898 63.6491
19.5709 58.0592
19.752 52.5168
19.9332 57.7748
20.1144 61.9393
20.2957 59.343
20.477 61.9418
20.6586 48.9724
20.84 48.4835
21.0215 48.2449
21.203 48.1845
21.3846 50.3264
21.5662 48.0084
21.7479 53.2102
21.9297 57.0336
22.1115 56.2991
22.2933 53.4785
22.4753 48.0073
22.6572 48.1172
22.8393 50.6612
23.0214 53.3995
23.2037 49.878
23.3859 51.3603
23.5682 50.076
23.7505 55.386
23.9329 44.9526
24.1154 43.6369
24.2979 42.9023
24.4805 42.1362
24.6631 42.3946
24.8458 41.7346
25.0286 42.1179
25.2114 43.0736
25.3943 43.2937
25.5773 41.7254
25.7605 40.1246
25.9436 40.2276
26.1268 40.2632
26.31 40.6424
26.4933 39.9429
26.6767 40.495
26.8601 40.9141
27.0437 39.1351
27.2272 38.1912
27.4109 37.7803
27.5946 37.8054
27.7784 38.1392
27.9623 37.5718
28.1462 38.2323
28.3304 37.3911
28.5145 35.8575
28.6987 35.2769
28.8829 34.724
29.0673 34.6502
29.2517 33.807
29.4361 33.4755
29.6207 33.1133
29.8053 32.4129
29.99 32.1693
30.1748 31.8391
30.3597 31.9388
30.5447 31.7038
30.7297 31.5199
30.915 31.5796
31.1002 30.9105
31.2855 30.4687
31.4708 30.2839
31.6563 30.3066
31.8418 29.7778
32.0275 29.5034
32.2132 29.1208
32.399 28.5924
32.5848 28.1241
32.7708 27.8094
32.9569 27.6125
33.143 27.3389
33.3293 27.0595
33.5158 26.8688
33.7022 26.2479
33.8887 25.9243
34.0753 25.6743
34.262 25.2747
34.4488 24.9165
34.6357 24.7132
34.8227 24.3056
35.0098 24.1374
35.1969 23.8282
35.3842 23.6178
35.5716 23.4093
35.759 23.1463
35.9468 22.7811
36.1345 22.5716
36.3222 22.3896
36.5101 22.0594
36.6981 21.8347
36.8861 21.5863
37.0743 21.2263
37.2626 20.986
37.451 20.7331
37.6395 20.5469
37.8281 20.2027
38.0168 19.9129
38.2056 19.6544
38.3945 19.491
38.5837 19.1385
38.7728 18.9507
38.9621 18.7706
39.1514 18.4857
39.3409 18.1437
39.5304 18.0205
39.7201 17.8117
39.9099 17.6078
40.0999 17.3994
40.2899 17.1552
40.48 16.8651
40.6703 16.7125
40.8607 16.5552
41.0512 16.3414
41.242 16.1019
41.4327 15.8659
41.6236 15.6436
41.8146 15.5406
42.0057 15.1844
42.1969 15.081
42.3882 14.8454
42.5797 14.6442
42.7713 14.4645
42.963 14.2405
43.1549 14.0452
43.3468 13.8724
43.5389 13.6898
43.7312 13.4669
43.9237 13.354
44.1162 13.0634
44.3088 13.0023
44.5016 12.7484
44.6945 12.5486
44.8875 12.4223
45.0806 12.1937
45.2739 12.0275
45.4673 11.8441
45.6609 11.7171
45.8546 11.5279
46.0484 11.3669
46.2424 11.246
46.4365 11.0888
46.631 10.8646
46.8254 10.7294
47.0199 10.5771
47.2146 10.4083
47.4095 10.2543
47.6044 10.0986
47.7996 9.96659
47.9948 9.81579
48.1902 9.66371
48.3858 9.52946
48.5815 9.41247
48.7774 9.30859
48.9734 9.12859
49.1696 8.99202
49.3661 8.87136
49.5626 8.69289
49.7592 8.59869
49.956 8.49035
50.153 8.34544
50.3501 8.2333
50.5474 8.09477
50.7448 8.00733
50.9424 7.86459
51.1402 7.75769
51.3381 7.62593
51.5362 7.51014
51.7344 7.37311
51.9328 7.2233
52.1316 7.11447
52.3304 7.02915
52.5293 6.91233
52.7284 6.76213
52.9276 6.6372
53.1271 6.57411
53.3267 6.42982
53.5265 6.31267
53.7264 6.21671
53.9266 6.07985
54.1269 5.94725
54.3274 5.84213
54.528 5.6387
54.7289 5.48836
54.9301 5.34125
55.1314 5.11945
55.3328 4.94848
55.5344 4.79737
55.7361 4.65295

File: Ni3Fe_FD0092.xy
TT I
1.27165 9.02559
1.45013 7.77571
1.62863 6.14023
1.80712 5.49105
1.98562 5.95247
2.16411 5.01962
2.34263 4.44775
2.52115 3.53826
2.69965 5.10257
2.87818 7.49834
3.05672 11.1499
3.23527 14.9155
3.4138 18.7705
3.59237 21.535
3.77094 24.5871
3.9495 27.7431
4.12809 32.3493
4.30669 37.2425
4.4853 44.5519
4.6639 53.565
4.84253 65.9922
5.02118 95.5925
5.19981 711.775
5.37848 833.546
5.55716 114.613
5.73586 99.6575
5.91455 115.496
6.09328 1939.79
6.27201 100.383
6.45075 66.9207
6.62952 59.4311
6.8083 54.8206
6.98711 52.9419
7.16591 51.8802
7.34475 51.309
7.5236 61.2244
7.70247 53.4075
7.88135 55.3425
8.06026 60.1813
8.23919 67.0703
8.41812 84.6765
8.59709 708.685
8.77609 137.771
8.9551 85.5529
9.13412 81.4302
9.31318 103.297
9.49226 82.3817
9.67134 87.5414
9.85047 98.6878
10.0296 604.534
10.2088 1299.72
10.388 106.411
10.5672 235.609
10.7465 98.9333
10.9257 75.1516
11.105 69.122
11.2844 65.0087
11.4637 62.2829
11.6431 61.2139
11.8225 60.3042
12.002 72.7189
12.1814 99.1199
12.3609 85.6843
12.5405 62.0896
12.72 63.8158
12.8996 68.2957
13.0792 78.9
13.2589 177.291
13.4386 277.275
13.6183 159.333
13.7981 202.186
13.9779 75.0909
14.1577 79.3429
14.3376 67.7765
14.5175 67.2432
14.6974 68.4511
14.8774 119.886
15.0574 207.608
15.2374 68.6454
15.4175 65.0885
15.5976 64.5046
15.7778 108.29
15.958 170.106
16.1382 63.1059
16.3185 56.3202
16.4988 54.0982
16.6792 52.9961
16.8596 53.2613
17.04 54.6233
17.2205 62.7143
17.401 80.7899
17.5815 57.9441
17.7622 60.7197
17.9428 85.6445
18.1237 94.2646
18.3044 88.4664
18.4852 101.482
18.666 60.3127
18.8469 57.0657
19.0278 55.7006
19.2088 61.5732
19.3898 63.8264
19.5709 57.917
19.752 52.3688
19.9332 57.6814
20.1144 62.0897
20.2957 59.3342
20.477 61.8514
20.6586 48.8797
20.84 48.4874
21.0215 48.1658
21.203 48.222
21.3846 50.3737
21.5662 48.1737
21.7479 53.3514
21.9297 57.1975
22.1115 56.4145
22.2933 53.3722
22.4753 48.1607
22.6572 48.2587
22.8393 50.6212
23.0214 53.3898
23.2037 49.9781
23.3859 51.1582
23.5682 50.2204
23.7505 55.6011
23.9329 44.9102
24.1154 43.6924
24.2979 42.8837
24.4805 42.1651
24.6631 42.3098
24.8458 41.7545
25.0286 42.2593
25.2114 43.0395
25.3943 43.4343
25.5773 41.7038
25.7605 40.0274
25.9436 40.2028
26.1268 40.2927
26.31 40.7139
26.4933 40.0353
26.6767 40.5301
26.8601 40.7856
27.0437 39.1056
27.2272 38.3161
27.4109 37.7646
27.5946 37.924
27.7784 38.0404
27.9623 37.668
28.1462 38.2191
28.3304 37.3773
28.5145 35.7534
28.6987 35.1626
28.8829 34.8384
29.0673 34.6579
29.2517 33.8307
29.4361 33.5279
29.6207 33.0786
29.8053 32.4179
29.99 32.1314
30.1748 31.8871
30.3597 31.894
30.5447 31.7167
30.7297 31.5169
30.915 31.5366
31.1002 30.8882
31.2855 30.547
31.4708 30.1965
31.6563 30.3376
31.8418 29.6114
32.0275 29.5283
32.2132 29.2621
32.399 28.6463
32.5848 28.1415
32.7708 27.7995
32.9569 27.6992
33.143 27.3253
33.3293 27.148
33.5158 26.8504
33.7022 26.3098
33.8887 25.8949
34.0753 25.6653
34.262 25.3001
34.4488 24.9575
34.6357 24.6864
34.8227 24.3799
35.0098 24.187
35.1969 23.8838
35.3842 23.633
35.5716 23.4462
35.759 23.2334
35.9468 22.8225
36.1345 22.595
36.3222 22.3268
36.5101 22.1397
36.6981 21.8349
36.8861 21.616
37.0743 21.2256
37.2626 20.9935
37.451 20.7635
37.6395 20.5806
37.8281 20.256
38.0168 19.9438
38.2056 19.66
38.3945 19.4303
38.5837 19.1649
38.7728 18.9304
38.9621 18.7215
39.1514 18.509
39.3409 18.2438
39.5304 18.0942
39.7201 17.7869
39.9099 17.6185
40.0999 17.3867
40.2899 17.1462
40.48 16.905
40.6703 16.6957
40.8607 16.5416
41.0512 16.3163
41.242 16.1087
41.4327 15.8616
41.6236 15.6581
41.8146 15.4258
42.0057 15.3057
42.1969 15.0596
42.3882 14.8815
42.5797 14.6754
42.7713 14.4788
42.963 14.1988
43.1549 14.0142
43.3468 13.8348
43.5389 13.6881
43.7312 13.4839
43.9237 13.3209
44.1162 13.107
44.3088 12.9382
44.5016 12.7438
44.6945 12.5724
44.8875 12.4281
45.0806 12.2411
45.2739 12.0281
45.4673 11.9314
45.6609 11.7494
45.8546 11.5284
46.0484 11.4223
46.2424 11.2125
46.4365 11.0639
46.631 10.9075
46.8254 10.7525
47.0199 10.5815
47.2146 10.4589
47.4095 10.3142
47.6044 10.1232
47.7996 9.9984
47.9948 9.82395
48.1902 9.6737
48.3858 9.53072
48.5815 9.42303
48.7774 9.30361
48.9734 9.14058
49.1696 9.03991
49.3661 8.87096
49.5626 8.75049
49.7592 8.59031
49.956 8.46748
50.153 8.35795
50.3501 8.23765
50.5474 8.1261
50.7448 7.98605
50.9424 7.86532
51.1402 7.73682
51.3381 7.60062
51.5362 7.45937
51.7344 7.35782
51.9328 7.2008
52.1316 7.09237
52.3304 7.02179
52.5293 6.8582
52.7284 6.78926
52.9276 6.65264
53.1271 6.53452
53.3267 6.45236
53.5265 6.36428
53.7264 6.19405
53.9266 6.12606
54.1269 5.91205
54.3274 5.83134
54.528 5.65807
54.7289 5.47817
54.9301 5.29648
55.1314 5.13797
55.3328 4.94564
55.5344 4.77277
55.7361 4.6268

File: Ni3Fe_FD0093.xy
TT I
1.27165 9.09887
1.45013 7.30777
1.62863 6.40066
1.80712 5.9646
1.98562 5.68475
2.16411 5.43056
2.34263 4.68514
2.52115 4.40678
2.69965 4.55322
2.87818 7.70313
3.05672 11.5029
3.23527 14.8733
3.4138 18.5671
3.59237 21.5221
3.77094 25.1605
3.9495 28.287
4.12809 32.8136
4.30669 37.6252
4.4853 44.3089
4.6639 53.422
4.84253 66.3867
5.02118 94.9668
5.19981 709.454
5.37848 803.216
5.55716 114.448
5.73586 99.644
5.91455 115.251
6.09328 1972.93
6.27201 99.7136
6.45075 67.3691
6.62952 59.5641
6.8083 54.9848
6.98711 52.6396
7.16591 51.7714
7.34475 51.3418
7.5236 61.0985
7.70247 53.2474
7.88135 55.3507
8.06026 59.9896
8.23919 67.3781
8.41812 84.6478
8.59709 716.199
8.77609 136.713
8.9551 85.5714
9.13412 81.5156
9.31318 101.571
9.49226 82.7824
9.67134 87.7086
9.85047 98.5141
10.0296 602.608
10.2088 1293.19
10.388 106.334
10.5672 240.15
10.7465 98.2365
10.9257 74.6203
11.105 69.2025
11.2844 65.0846
11.4637 62.5174
11.6431 61.176
11.8225 60.4309
12.002 72.1355
12.1814 99.8514
12.3609 84.5505
12.5405 61.852
12.72 63.8136
12.8996 68.3951
13.0792 79.2994
13.2589 178.301
13.4386 273.709
13.6183 160.454
13.7981 197.885
13.9779 75.0686
14.1577 79.019
14.3376 68.1549
14.5175 67.0255
14.6974 68.7841
14.8774 119.815
15.0574 208.161
15.2374 68.5036
15.4175 65.2457
15.5976 64.6536
15.7778 108.208
15.958 171.211
16.1382 62.8688
16.3185 56.5458
16.4988 54.1464
16.6792 53.0994
16.8596 53.2934
17.04 54.6906
17.2205 62.7158
17.401 81.2631
17.5815 57.8704
17.7622 60.5728
17.9428 85.6532
18.1237 95.2703
18.3044 88.4964
18.4852 101.038
18.666 60.1473
18.8469 57.2386
19.0278 55.8638
19.2088 61.6041
19.3898 63.6457
19.5709 57.861
19.752 52.4289
19.9332 57.6484
20.1144 62.3054
20.2957 59.4045
20.477 61.7473
20.6586 48.9764
20.84 48.6351
21.0215 48.2524
21.203 48.1416
21.3846 50.3021
21.5662 48.1149
21.7479 53.1818
21.9297 57.3718
22.1115 56.2902
22.2933 53.4032
22.4753 47.9061
22.6572 48.2665
22.8393 50.6662
23.0214 53.6255
23.2037 49.9695
23.3859 51.3629
23.5682 50.3024
23.7505 55.2903
23.9329 45.0341
24.1154 43.6962
24.2979 42.9093
24.4805 42.2057
24.6631 42.3834
24.8458 41.8907
25.0286 42.1865
25.2114 43.0272
25.3943 43.403
25.5773 41.7106
25.7605 40.1784
25.9436 40.2462
26.1268 40.5079
26.31 40.7369
26.4933 40.0874
26.6767 40.5756
26.8601 40.8818
27.0437 39.0643
27.2272 38.2544
27.4109 37.7547
27.5946 37.8904
27.7784 37.994
27.9623 37.5209
28.1462 38.3769
28.3304 37.4226
28.5145 35.7552
28.6987 35.285
28.8829 34.9058
29.0673 34.6979
29.2517 33.9141
29.4361 33.4868
29.6207 33.084
29.8053 32.521
29.99 32.2106
30.1748 31.9084
30.3597 32.0467
30.5447 31.7596
30.7297 31.4968
30.915 31.5634
31.1002 30.9024
31.2855 30.4952
31.4708 30.2694
31.6563 30.3666
31.8418 29.7574
32.0275 29.4754
32.2132 29.2905
32.399 28.5958
32.5848 28.1822
32.7708 27.8031
32.9569 27.6985
33.143 27.3302
33.3293 27.0419
33.5158 26.8626
33.7022 26.2633
33.8887 25.9758
34.0753 25.7729
34.262 25.2846
34.4488 25.0426
34.6357 24.6438
34.8227 24.3785
35.0098 24.1609
35.1969 23.9355
35.3842 23.6661
35.5716 23.4858
35.759 23.2937
35.9468 22.7851
36.1345 22.6114
36.3222 22.4263
36.5101 22.0847
36.6981 21.8269
36.8861 21.5455
37.0743 21.2517
37.2626 21.0002
37.451 20.7232
37.6395 20.5585
37.8281 20.2329
38.0168 19.9554
38.2056 19.6948
38.3945 19.4089
38.5837 19.2501
38.7728 18.9716
38.9621 18.7669
39.1514 18.4785
39.3409 18.1945
39.5304 18.0781
39.7201 17.8249
39.9099 17.64
40.0999 17.3637
40.2899 17.2382
40.48 16.8957
40.6703 16.7267
40.8607 16.5331
41.0512 16.3212
41.242 16.0358
41.4327 15.9036
41.6236 15.6423
41.8146 15.4926
42.0057 15.2773
42.1969 15.0169
42.3882 14.8512
42.5797 14.6818
42.7713 14.4506
42.963 14.231
43.1549 14.0956
43.3468 13.8197
43.5389 13.6829
43.7312 13.4491
43.9237 13.2964
44.1162 13.1162
44.3088 12.973
44.5016 12.7381
44.6945 12.5301
44.8875 12.3805
45.0806 12.1889
45.2739 12.0611
45.4673 11.9314
45.6609 11.7396
45.8546 11.584
46.0484 11.4055
46.2424 11.233
46.4365 11.1161
46.631 10.8923
46.8254 10.7176
47.0199 10.5676
47.2146 10.4208
47.4095 10.2737
47.6044 10.1442
47.7996 10.0165
47.9948 9.79688
48.1902 9.71728
48.3858 9.53719
48.5815 9.4611
48.7774 9.28417
48.9734 9.16294
49.1696 9.02208
49.3661 8.89634
49.5626 8.71676
49.7592 8.59907
49.956 8.47731
50.153 8.35453
50.3501 8.18784
50.5474 8.08429
50.7448 7.95668
50.9424 7.85034
51.1402 7.74097
51.3381 7.59455
51.5362 7.49109
51.7344 7.3523
51.9328 7.23028
52.1316 7.10221
52.3304 7.03479
52.5293 6.88746
52.7284 6.77269
52.9276 6.68881
53.1271 6.55882
53.3267 6.44477
53.5265 6.3175
53.7264 6.22624
53.9266 6.11078
54.1269 5.97244
54.3274 5.86148
54.528 5.69866
54.7289 5.4891
54.9301 5.33274
55.1314 5.18882
55.3328 4.95222
55.5344 4.79472
55.7361 4.67296

File: Ni3Fe_FD0094.xy
TT I
1.27165 9.0721
1.45013 7.28467
1.62863 6.31389
1.80712 5.685
1.98562 5.62557
2.16411 5.09347
2.34263 4.25952
2.52115 4.118
2.69965 5.10513
2.87818 8.05074
3.05672 11.0249
3.23527 14.492
3.4138 18.7318
3.59237 21.8625
3.77094 24.6176
3.9495 28.3233
4.12809 32.0005
4.30669 37.2176
4.4853 44.6514
4.6639 52.894
4.84253 65.5069
5.02118 94.5595
5.19981 701.449
5.37848 787.689
5.55716 113.728
5.73586 98.7034
5.91455 114.279
6.09328 1995.27
6.27201 99.1098
6.45075 67.0511
6.62952 59.3135
6.8083 54.7664
6.98711 52.5135
7.16591 51.6055
7.34475 51.0559
7.5236 60.2103
7.70247 53.2354
7.88135 55.1776
8.06026 59.5187
8.23919 67.4449
8.41812 84.6831
8.59709 721.21
8.77609 134.819
8.9551 85.7135
9.13412 81.3427
9.31318 100.501
9.49226 82.2703
9.67134 87.2784
9.85047 98.6272
10.0296 601.054
10.2088 1258.87
10.388 105.856
10.5672 243.383
10.7465 97.7173
10.9257 74.9568
11.105 68.9817
11.2844 65.183
11.4637 62.2586
11.6431 61.0403
11.8225 60.3737
12.002 71.5605
12.1814 100.496
12.3609 84.6016
12.5405 61.8645
12.72 63.9296
12.8996 68.7307
13.0792 78.9909
13.2589 179.101
13.4386 269.637
13.6183 161.437
13.7981 196.329
13.9779 75.3057
14.1577 78.2694
14.3376 67.7222
14.5175 67.1857
14.6974 68.7281
14.8774 119.749
15.0574 207.416
15.2374 68.6003
15.4175 64.9273
15.5976 64.5929
15.7778 108.183
15.958 171.128
16.1382 62.6036
16.3185 56.4295
16.4988 53.87
16.6792 52.9103
16.8596 53.2297
17.04 54.413
17.2205 62.7164
17.401 80.9105
17.5815 57.8968
17.7622 60.6032
17.9428 85.3925
18.1237 95.9588
18.3044 88.1592
18.4852 101.159
18.666 60.1217
18.8469 57.065
19.0278 55.7273
19.2088 61.3553
19.3898 63.9188
19.5709 57.6092
19.752 52.2628
19.9332 57.5396
20.1144 62.3124
20.2957 59.1048
20.477 61.6175
20.6586 49.1435
20.84 48.4035
21.0215 48.1395
21.203 48.3135
21.3846 50.1526
21.5662 48.0318
21.7479 53.0113
21.9297 57.6335
22.1115 56.2189
22.2933 53.136
22.4753 47.9284
22.6572 48.1883
22.8393 50.5239
23.0214 53.7681
23.2037 49.7779
23.3859 51.4271
23.5682 50.4436
23.7505 55.1482
23.9329 44.8982
24.1154 43.5413
24.2979 42.9016
24.4805 42.1974
24.6631 42.5607
24.8458 41.8028
25.0286 42.0599
25.2114 42.9831
25.3943 43.4037
25.5773 41.5658
25.7605 40.0936
25.9436 40.0723
26.1268 40.3864
26.31 40.5324
26.4933 40.1075
26.6767 40.5406
26.8601 40.8506
27.0437 39.0387
27.2272 38.3131
27.4109 37.9082
27.5946 37.7839
27.7784 38.0
27.9623 37.6135
28.1462 38.3913
28.3304 37.3811
28.5145 35.6898
28.6987 35.2193
28.8829 34.7801
29.0673 34.6443
29.2517 33.8753
29.4361 33.5062
29.6207 33.1539
29.8053 32.4292
29.99 32.2509
30.1748 31.8935
30.3597 32.0007
30.5447 31.6444
30.7297 31.5441
30.915 31.6166
31.1002 30.8703
31.2855 30.5146
31.4708 30.1549
31.6563 30.3137
31.8418 29.7019
32.0275 29.5228
32.2132 29.1691
32.399 28.6213
32.5848 28.1859
32.7708 27.8299
32.9569 27.6219
33.143 27.3366
33.3293 27.1249
33.5158 26.8742
33.7022 26.2678
33.8887 25.9663
34.0753 25.7115
34.262 25.2473
34.4488 24.907
34.6357 24.6072
34.8227 24.3267
35.0098 24.1817
35.1969 23.9061
35.3842 23.5801
35.5716 23.4913
35.759 23.1817
35.9468 22.7802
36.1345 22.5882
36.3222 22.3218
36.5101 22.0967
36.6981 21.856
36.8861 21.5411
37.0743 21.2406
37.2626 21.0018
37.451 20.8007
37.6395 20.5312
37.8281 20.2166
38.0168 19.9323
38.2056 19.6253
38.3945 19.4521
38.5837 19.1721
38.7728 18.9779
38.9621 18.7424
39.1514 18.4634
39.3409 18.2312
39.5304 18.0225
39.7201 17.8087
39.9099 17.5941
40.0999 17.3297
40.2899 17.1761
40.48 16.8659
40.6703 16.668
40.8607 16.5209
41.0512 16.3182
41.242 16.046
41.4327 15.8125
41.6236 15.6404
41.8146 15.4774
42.0057 15.2206
42.1969 14.971
42.3882 14.8557
42.5797 14.6338
42.7713 14.4397
42.963 14.2326
43.1549 14.0333
43.3468 13.8074
43.5389 13.6981
43.7312 13.467
43.9237 13.2701
44.1162 13.103
44.3088 12.9182
44.5016 12.7141
44.6945 12.5595
44.8875 12.4052
45.0806 12.2226
45.2739 12.0241
45.4673 11.8392
45.6609 11.6518
45.8546 11.5854
46.0484 11.3773
46.2424 11.2487
46.4365 11.0722
46.631 10.8583
46.8254 10.7173
47.0199 10.5824
47.2146 10.4043
47.4095 10.2285
47.6044 10.0915
47.7996 9.94926
47.9948 9.80424
48.1902 9.61739
48.3858 9.57063
48.5815 9.4092
48.7774 9.26175
48.9734 9.14753
49.1696 9.00376
49.3661 8.87552
49.5626 8.70527
49.7592 8.5935
49.956 8.48756
50.153 8.32818
50.3501 8.20434
50.5474 8.09618
50.7448 7.99989
50.9424 7.84499
51.1402 7.76444
51.3381 7.59178
51.5362 7.465
51.7344 7.34621
51.9328 7.2278
52.1316 7.07962
52.3304 6.99542
52.5293 6.89113
52.7284 6.74658
52.9276 6.65851
53.1271 6.57018
53.3267 6.44573
53.5265 6.33334
53.7264 6.20182
53.9266 6.09721
54.1269 5.99324
54.3274 5.84161
54.528 5.63247
54.7289 5.51012
54.9301 5.37745
55.1314 5.19702
55.3328 4.96855
55.5344 4.77111
55.7361 4.72725