Folder: NiFe_MOF_catalyst_paper/XRD (part 118)

File: Ni3Fe_FD0639.xy
TT I
1.27165 7.25813
1.45013 5.94307
1.62863 5.2554
1.80712 4.83945
1.98562 4.81079
2.16411 5.21635
2.34263 5.55901
2.52115 7.30808
2.69965 7.88878
2.87818 8.90007
3.05672 11.0088
3.23527 15.2725
3.4138 19.0014
3.59237 24.5825
3.77094 26.3823
3.9495 30.0232
4.12809 35.2151
4.30669 257.071
4.4853 69.4457
4.6639 55.5602
4.84253 66.9542
5.02118 86.4759
5.19981 336.137
5.37848 196.672
5.55716 102.186
5.73586 92.0544
5.91455 93.6657
6.09328 4362.72
6.27201 84.3846
6.45075 67.4381
6.62952 63.2319
6.8083 59.2641
6.98711 56.3602
7.16591 55.7877
7.34475 101.211
7.5236 55.2328
7.70247 56.57
7.88135 57.7328
8.06026 62.4669
8.23919 69.6667
8.41812 85.7436
8.59709 1115.18
8.77609 100.452
8.9551 93.5762
9.13412 82.0178
9.31318 82.626
9.49226 84.453
9.67134 100.613
9.85047 99.8023
10.0296 326.213
10.2088 439.864
10.388 105.123
10.5672 500.703
10.7465 87.2023
10.9257 79.2027
11.105 71.8824
11.2844 71.6429
11.4637 65.1119
11.6431 64.0459
11.8225 62.6739
12.002 63.4054
12.1814 147.989
12.3609 72.4332
12.5405 64.7222
12.72 71.3309
12.8996 70.8974
13.0792 78.8399
13.2589 229.012
13.4386 128.102
13.6183 240.339
13.7981 101.204
13.9779 76.1475
14.1577 73.0751
14.3376 72.2701
14.5175 68.9026
14.6974 70.8066
14.8774 108.036
15.0574 152.456
15.2374 72.0673
15.4175 66.8091
15.5976 66.065
15.7778 92.8783
15.958 160.542
16.1382 63.4729
16.3185 59.3649
16.4988 55.7987
16.6792 54.8408
16.8596 55.5863
17.04 55.9404
17.2205 66.4593
17.401 72.6964
17.5815 59.4378
17.7622 61.2829
17.9428 72.9108
18.1237 138.479
18.3044 89.8722
18.4852 79.5879
18.666 60.6482
18.8469 58.2786
19.0278 57.2111
19.2088 59.5697
19.3898 76.6567
19.5709 54.4843
19.752 53.3522
19.9332 56.1702
20.1144 69.7119
20.2957 63.5918
20.477 54.3635
20.6586 49.915
20.84 48.9853
21.0215 48.6091
21.203 50.7813
21.3846 49.2267
21.5662 48.8818
21.7479 52.4781
21.9297 64.7651
22.1115 56.2488
22.2933 50.2954
22.4753 49.2016
22.6572 48.9942
22.8393 51.7059
23.0214 57.6114
23.2037 49.0508
23.3859 49.8712
23.5682 56.7834
23.7505 48.669
23.9329 45.4859
24.1154 44.485
24.2979 43.5582
24.4805 43.041
24.6631 42.8966
24.8458 42.3956
25.0286 42.9112
25.2114 44.7276
25.3943 44.8614
25.5773 41.1272
25.7605 40.6756
25.9436 40.9418
26.1268 41.8191
26.31 40.3076
26.4933 40.76
26.6767 42.2812
26.8601 40.652
27.0437 39.014
27.2272 38.5903
27.4109 38.4828
27.5946 38.607
27.7784 38.0069
27.9623 38.403
28.1462 38.9743
28.3304 37.4779
28.5145 36.1177
28.6987 35.789
28.8829 35.6038
29.0673 34.9519
29.2517 34.4747
29.4361 34.3288
29.6207 33.287
29.8053 33.1084
29.99 32.7654
30.1748 32.5268
30.3597 32.3793
30.5447 32.2888
30.7297 32.3841
30.915 31.6887
31.1002 31.3555
31.2855 31.1126
31.4708 31.0286
31.6563 30.4938
31.8418 30.3029
32.0275 30.1068
32.2132 29.5214
32.399 29.0491
32.5848 28.6243
32.7708 28.2913
32.9569 28.1054
33.143 27.8352
33.3293 27.5591
33.5158 27.2701
33.7022 26.6559
33.8887 26.5314
34.0753 26.0845
34.262 25.7855
34.4488 25.4504
34.6357 25.1345
34.8227 24.8277
35.0098 24.6169
35.1969 24.2631
35.3842 24.0399
35.5716 23.8484
35.759 23.5675
35.9468 23.2195
36.1345 22.931
36.3222 22.7491
36.5101 22.5403
36.6981 22.2392
36.8861 21.8876
37.0743 21.641
37.2626 21.3566
37.451 21.054
37.6395 20.9359
37.8281 20.5754
38.0168 20.2476
38.2056 20.0477
38.3945 19.7819
38.5837 19.5669
38.7728 19.2991
38.9621 19.0264
39.1514 18.8318
39.3409 18.5481
39.5304 18.3681
39.7201 18.1906
39.9099 17.9493
40.0999 17.6321
40.2899 17.4216
40.48 17.2038
40.6703 17.0058
40.8607 16.8085
41.0512 16.5536
41.242 16.3216
41.4327 16.1551
41.6236 15.8899
41.8146 15.666
42.0057 15.4667
42.1969 15.3149
42.3882 15.0958
42.5797 14.894
42.7713 14.6646
42.963 14.5151
43.1549 14.2983
43.3468 14.1019
43.5389 13.9062
43.7312 13.7257
43.9237 13.5328
44.1162 13.336
44.3088 13.1046
44.5016 12.9615
44.6945 12.7594
44.8875 12.6204
45.0806 12.4258
45.2739 12.2818
45.4673 12.1259
45.6609 11.9017
45.8546 11.7769
46.0484 11.605
46.2424 11.4168
46.4365 11.2866
46.631 11.0989
46.8254 10.9363
47.0199 10.7683
47.2146 10.5921
47.4095 10.4393
47.6044 10.2811
47.7996 10.1323
47.9948 9.98962
48.1902 9.82595
48.3858 9.72146
48.5815 9.58059
48.7774 9.49043
48.9734 9.29002
49.1696 9.13549
49.3661 9.0123
49.5626 8.85733
49.7592 8.71063
49.956 8.60027
50.153 8.51188
50.3501 8.33932
50.5474 8.22431
50.7448 8.09827
50.9424 8.0001
51.1402 7.83191
51.3381 7.71137
51.5362 7.62002
51.7344 7.49445
51.9328 7.30775
52.1316 7.23936
52.3304 7.10754
52.5293 6.98311
52.7284 6.85256
52.9276 6.73052
53.1271 6.70163
53.3267 6.53194
53.5265 6.42124
53.7264 6.31498
53.9266 6.25986
54.1269 6.07732
54.3274 5.98989
54.528 5.82888
54.7289 5.6416
54.9301 5.51911
55.1314 5.35673
55.3328 5.18869
55.5344 4.98037
55.7361 4.8196

File: Ni3Fe_FD0640.xy
TT I
1.27165 7.60016
1.45013 6.10308
1.62863 4.72425
1.80712 4.7685
1.98562 5.02382
2.16411 5.0162
2.34263 5.66662
2.52115 7.14115
2.69965 8.26103
2.87818 8.20643
3.05672 11.0891
3.23527 15.1055
3.4138 19.1557
3.59237 24.7964
3.77094 26.0174
3.9495 29.8412
4.12809 34.8868
4.30669 260.063
4.4853 69.7711
4.6639 55.455
4.84253 67.0465
5.02118 86.5516
5.19981 335.05
5.37848 197.059
5.55716 102.723
5.73586 91.9754
5.91455 93.8089
6.09328 4328.99
6.27201 84.0012
6.45075 67.6649
6.62952 63.7848
6.8083 59.1362
6.98711 56.4746
7.16591 56.1984
7.34475 101.856
7.5236 55.246
7.70247 56.3243
7.88135 58.0921
8.06026 62.2464
8.23919 69.7157
8.41812 85.503
8.59709 1105.65
8.77609 100.52
8.9551 93.4529
9.13412 82.1069
9.31318 82.8126
9.49226 84.6168
9.67134 101.104
9.85047 99.9089
10.0296 325.45
10.2088 440.308
10.388 105.138
10.5672 498.875
10.7465 86.9842
10.9257 79.1843
11.105 72.3316
11.2844 71.3591
11.4637 64.9205
11.6431 64.0698
11.8225 62.7089
12.002 63.505
12.1814 148.501
12.3609 72.8618
12.5405 64.8837
12.72 71.171
12.8996 71.1356
13.0792 78.634
13.2589 227.919
13.4386 128.225
13.6183 240.667
13.7981 100.915
13.9779 75.8743
14.1577 73.0079
14.3376 72.2531
14.5175 68.8892
14.6974 70.5018
14.8774 107.549
15.0574 152.455
15.2374 71.9403
15.4175 66.5559
15.5976 65.7421
15.7778 92.719
15.958 160.797
16.1382 63.5004
16.3185 59.27
16.4988 55.7336
16.6792 54.6507
16.8596 55.5393
17.04 55.8738
17.2205 66.5399
17.401 72.4167
17.5815 59.416
17.7622 61.2191
17.9428 73.0918
18.1237 138.508
18.3044 89.7429
18.4852 79.4089
18.666 60.6136
18.8469 58.1562
19.0278 57.0282
19.2088 59.6479
19.3898 76.8047
19.5709 54.3949
19.752 53.5436
19.9332 56.1923
20.1144 69.7909
20.2957 63.651
20.477 54.1451
20.6586 49.9052
20.84 48.8587
21.0215 48.6112
21.203 50.9377
21.3846 49.1666
21.5662 48.7787
21.7479 52.3727
21.9297 64.7945
22.1115 56.0518
22.2933 50.1744
22.4753 49.1982
22.6572 48.7664
22.8393 51.7835
23.0214 57.5997
23.2037 48.9684
23.3859 49.7107
23.5682 56.8867
23.7505 48.6202
23.9329 45.4501
24.1154 44.273
24.2979 43.6868
24.4805 42.9443
24.6631 43.0128
24.8458 42.3772
25.0286 42.8966
25.2114 44.7758
25.3943 44.9129
25.5773 41.0327
25.7605 40.5819
25.9436 40.9346
26.1268 41.7895
26.31 40.3067
26.4933 40.8402
26.6767 42.2286
26.8601 40.6352
27.0437 38.9786
27.2272 38.6448
27.4109 38.5872
27.5946 38.5134
27.7784 38.1429
27.9623 38.4169
28.1462 38.9803
28.3304 37.4179
28.5145 36.0243
28.6987 35.7568
28.8829 35.6241
29.0673 34.782
29.2517 34.4779
29.4361 34.2434
29.6207 33.2562
29.8053 33.0157
29.99 32.7759
30.1748 32.607
30.3597 32.4135
30.5447 32.2861
30.7297 32.2832
30.915 31.755
31.1002 31.2854
31.2855 30.9527
31.4708 30.9757
31.6563 30.474
31.8418 30.326
32.0275 30.0635
32.2132 29.4973
32.399 29.0165
32.5848 28.5748
32.7708 28.2775
32.9569 28.2248
33.143 27.9191
33.3293 27.536
33.5158 27.1291
33.7022 26.7802
33.8887 26.488
34.0753 26.0964
34.262 25.8281
34.4488 25.3811
34.6357 25.1172
34.8227 24.9374
35.0098 24.5785
35.1969 24.2511
35.3842 24.0754
35.5716 23.8707
35.759 23.5829
35.9468 23.1837
36.1345 22.9399
36.3222 22.7347
36.5101 22.4936
36.6981 22.191
36.8861 21.9382
37.0743 21.5499
37.2626 21.3799
37.451 21.0822
37.6395 20.9372
37.8281 20.5463
38.0168 20.362
38.2056 20.0596
38.3945 19.7368
38.5837 19.4874
38.7728 19.3431
38.9621 19.0555
39.1514 18.7645
39.3409 18.5268
39.5304 18.3404
39.7201 18.1407
39.9099 17.9548
40.0999 17.6419
40.2899 17.4357
40.48 17.2227
40.6703 16.9844
40.8607 16.7805
41.0512 16.5925
41.242 16.3356
41.4327 16.1168
41.6236 15.9012
41.8146 15.7487
42.0057 15.4763
42.1969 15.3217
42.3882 15.1524
42.5797 14.9071
42.7713 14.7108
42.963 14.483
43.1549 14.2964
43.3468 14.0698
43.5389 13.882
43.7312 13.691
43.9237 13.5344
44.1162 13.3364
44.3088 13.1357
44.5016 12.9627
44.6945 12.7877
44.8875 12.6372
45.0806 12.4687
45.2739 12.231
45.4673 12.1105
45.6609 11.9082
45.8546 11.766
46.0484 11.5932
46.2424 11.4049
46.4365 11.2304
46.631 11.0624
46.8254 10.9127
47.0199 10.7638
47.2146 10.6238
47.4095 10.4414
47.6044 10.3172
47.7996 10.1246
47.9948 9.98998
48.1902 9.87173
48.3858 9.70866
48.5815 9.56652
48.7774 9.43019
48.9734 9.26795
49.1696 9.17106
49.3661 9.00823
49.5626 8.86165
49.7592 8.74028
49.956 8.64312
50.153 8.49108
50.3501 8.3724
50.5474 8.2121
50.7448 8.10502
50.9424 7.96519
51.1402 7.86573
51.3381 7.72075
51.5362 7.6106
51.7344 7.45467
51.9328 7.35173
52.1316 7.23373
52.3304 7.10461
52.5293 6.99607
52.7284 6.89934
52.9276 6.78262
53.1271 6.67517
53.3267 6.56327
53.5265 6.38791
53.7264 6.32173
53.9266 6.17789
54.1269 6.10004
54.3274 5.96923
54.528 5.84348
54.7289 5.67527
54.9301 5.48671
55.1314 5.39246
55.3328 5.22898
55.5344 4.98847
55.7361 4.79987

File: Ni3Fe_FD0641.xy
TT I
1.27165 7.71207
1.45013 6.55665
1.62863 5.67044
1.80712 4.935
1.98562 5.00729
2.16411 5.07288
2.34263 5.54457
2.52115 7.41578
2.69965 8.09728
2.87818 8.53193
3.05672 11.7281
3.23527 15.3574
3.4138 19.1109
3.59237 24.9357
3.77094 26.3111
3.9495 30.0532
4.12809 35.6428
4.30669 260.955
4.4853 70.1842
4.6639 55.8476
4.84253 67.2113
5.02118 86.487
5.19981 336.017
5.37848 196.622
5.55716 102.269
5.73586 92.082
5.91455 93.7312
6.09328 4367.26
6.27201 84.3028
6.45075 68.0266
6.62952 63.6289
6.8083 59.3656
6.98711 56.4597
7.16591 55.9559
7.34475 101.767
7.5236 55.3627
7.70247 56.5451
7.88135 58.4739
8.06026 62.5145
8.23919 69.6993
8.41812 86.2004
8.59709 1111.81
8.77609 100.613
8.9551 93.4928
9.13412 82.1321
9.31318 82.8786
9.49226 85.0344
9.67134 101.103
9.85047 100.723
10.0296 326.866
10.2088 439.161
10.388 105.19
10.5672 500.563
10.7465 87.4187
10.9257 79.4454
11.105 72.1588
11.2844 71.5019
11.4637 65.1653
11.6431 64.04
11.8225 62.6044
12.002 63.8945
12.1814 147.85
12.3609 72.6143
12.5405 64.6075
12.72 71.3679
12.8996 71.179
13.0792 78.7883
13.2589 228.643
13.4386 128.613
13.6183 240.893
13.7981 100.429
13.9779 76.1296
14.1577 72.9081
14.3376 72.4962
14.5175 69.1029
14.6974 70.736
14.8774 107.959
15.0574 152.099
15.2374 71.9493
15.4175 66.6167
15.5976 66.1552
15.7778 92.8301
15.958 160.672
16.1382 63.4603
16.3185 59.249
16.4988 55.8889
16.6792 54.8472
16.8596 55.6264
17.04 55.8992
17.2205 66.6039
17.401 72.4722
17.5815 59.6421
17.7622 61.4842
17.9428 73.1516
18.1237 138.5
18.3044 89.7395
18.4852 79.3613
18.666 60.7216
18.8469 58.1638
19.0278 57.1033
19.2088 59.6105
19.3898 76.8172
19.5709 54.5485
19.752 53.6565
19.9332 56.2297
20.1144 69.8994
20.2957 63.6649
20.477 54.0962
20.6586 49.8756
20.84 49.1118
21.0215 48.7029
21.203 50.8936
21.3846 49.1873
21.5662 48.8748
21.7479 52.447
21.9297 64.5054
22.1115 56.2066
22.2933 50.0036
22.4753 49.0641
22.6572 48.9201
22.8393 51.919
23.0214 57.6662
23.2037 48.8721
23.3859 49.6464
23.5682 56.7928
23.7505 48.6438
23.9329 45.4114
24.1154 44.3757
24.2979 43.6043
24.4805 43.0719
24.6631 42.9941
24.8458 42.3499
25.0286 42.8959
25.2114 44.7262
25.3943 44.8806
25.5773 41.0783
25.7605 40.5823
25.9436 40.945
26.1268 41.9007
26.31 40.2782
26.4933 40.7536
26.6767 42.3331
26.8601 40.5499
27.0437 39.0689
27.2272 38.6949
27.4109 38.427
27.5946 38.4906
27.7784 38.0456
27.9623 38.4864
28.1462 38.895
28.3304 37.4458
28.5145 36.0961
28.6987 35.738
28.8829 35.5578
29.0673 34.8561
29.2517 34.5746
29.4361 34.3034
29.6207 33.2558
29.8053 32.9719
29.99 32.7686
30.1748 32.5956
30.3597 32.3564
30.5447 32.2404
30.7297 32.279
30.915 31.6462
31.1002 31.2254
31.2855 31.0221
31.4708 30.8966
31.6563 30.4933
31.8418 30.3111
32.0275 30.0223
32.2132 29.6457
32.399 29.0756
32.5848 28.5571
32.7708 28.3142
32.9569 28.1357
33.143 27.942
33.3293 27.5349
33.5158 27.1717
33.7022 26.7247
33.8887 26.4859
34.0753 26.0968
34.262 25.7705
34.4488 25.4436
34.6357 25.113
34.8227 24.8507
35.0098 24.5917
35.1969 24.2484
35.3842 24.1153
35.5716 23.9135
35.759 23.5715
35.9468 23.274
36.1345 23.0294
36.3222 22.8057
36.5101 22.5884
36.6981 22.2452
36.8861 21.9115
37.0743 21.6071
37.2626 21.3652
37.451 21.1209
37.6395 20.8808
37.8281 20.5522
38.0168 20.3557
38.2056 20.0564
38.3945 19.7974
38.5837 19.5509
38.7728 19.2244
38.9621 19.0097
39.1514 18.8502
39.3409 18.595
39.5304 18.3545
39.7201 18.1471
39.9099 17.8953
40.0999 17.7136
40.2899 17.434
40.48 17.2242
40.6703 16.9825
40.8607 16.8308
41.0512 16.5704
41.242 16.3257
41.4327 16.1634
41.6236 15.8763
41.8146 15.7396
42.0057 15.5412
42.1969 15.2759
42.3882 15.1241
42.5797 14.9087
42.7713 14.7004
42.963 14.4872
43.1549 14.2904
43.3468 14.1473
43.5389 13.8973
43.7312 13.7528
43.9237 13.5146
44.1162 13.3227
44.3088 13.1311
44.5016 12.9388
44.6945 12.8167
44.8875 12.64
45.0806 12.4222
45.2739 12.2871
45.4673 12.1033
45.6609 11.9017
45.8546 11.8001
46.0484 11.5531
46.2424 11.4648
46.4365 11.2665
46.631 11.1069
46.8254 10.9003
47.0199 10.7736
47.2146 10.6454
47.4095 10.4902
47.6044 10.2725
47.7996 10.1477
47.9948 10.0067
48.1902 9.86282
48.3858 9.74007
48.5815 9.57383
48.7774 9.42648
48.9734 9.32235
49.1696 9.13443
49.3661 9.03651
49.5626 8.846
49.7592 8.7541
49.956 8.6263
50.153 8.49244
50.3501 8.3479
50.5474 8.22868
50.7448 8.09888
50.9424 7.98695
51.1402 7.87077
51.3381 7.70955
51.5362 7.60899
51.7344 7.47279
51.9328 7.31647
52.1316 7.21452
52.3304 7.12158
52.5293 6.97205
52.7284 6.91609
52.9276 6.76267
53.1271 6.70363
53.3267 6.48814
53.5265 6.41562
53.7264 6.29727
53.9266 6.15126
54.1269 6.06658
54.3274 5.93694
54.528 5.82465
54.7289 5.68774
54.9301 5.53858
55.1314 5.42164
55.3328 5.15351
55.5344 5.00432
55.7361 4.8587

File: Ni3Fe_FD0642.xy
TT I
1.27165 7.38406
1.45013 5.37822
1.62863 4.84212
1.80712 4.72032
1.98562 4.84815
2.16411 5.18557
2.34263 5.38299
2.52115 6.60016
2.69965 8.33418
2.87818 8.92605
3.05672 11.2491
3.23527 15.0348
3.4138 18.8907
3.59237 24.5658
3.77094 26.1224
3.9495 29.9949
4.12809 35.4992
4.30669 264.446
4.4853 70.4032
4.6639 55.4925
4.84253 66.8983
5.02118 86.6469
5.19981 335.826
5.37848 196.653
5.55716 102.164
5.73586 91.8291
5.91455 93.4497
6.09328 4328.88
6.27201 84.5143
6.45075 67.7321
6.62952 63.4526
6.8083 59.4235
6.98711 56.4426
7.16591 56.1971
7.34475 102.59
7.5236 55.3214
7.70247 56.226
7.88135 57.921
8.06026 62.3127
8.23919 69.8126
8.41812 86.2238
8.59709 1101.92
8.77609 100.562
8.9551 93.4974
9.13412 81.9732
9.31318 82.2039
9.49226 84.5328
9.67134 101.346
9.85047 100.099
10.0296 325.102
10.2088 442.906
10.388 104.993
10.5672 497.909
10.7465 86.9721
10.9257 79.1366
11.105 72.1689
11.2844 71.5578
11.4637 65.1474
11.6431 64.037
11.8225 62.9259
12.002 63.7759
12.1814 147.737
12.3609 72.481
12.5405 64.8352
12.72 71.32
12.8996 71.0193
13.0792 78.8371
13.2589 227.294
13.4386 128.68
13.6183 239.638
13.7981 100.425
13.9779 75.9998
14.1577 72.8809
14.3376 72.5018
14.5175 69.0121
14.6974 70.609
14.8774 107.565
15.0574 152.257
15.2374 71.8045
15.4175 66.7114
15.5976 66.0025
15.7778 92.6202
15.958 160.953
16.1382 63.6241
16.3185 59.347
16.4988 55.7692
16.6792 54.7486
16.8596 55.3466
17.04 56.1187
17.2205 66.6621
17.401 72.5385
17.5815 59.2521
17.7622 61.3707
17.9428 73.0923
18.1237 138.408
18.3044 89.6874
18.4852 79.3554
18.666 60.7585
18.8469 58.2201
19.0278 57.0763
19.2088 59.5216
19.3898 76.9139
19.5709 54.5613
19.752 53.4165
19.9332 56.1449
20.1144 69.8973
20.2957 63.5296
20.477 54.1859
20.6586 49.7431
20.84 48.9393
21.0215 48.933
21.203 50.9349
21.3846 49.321
21.5662 49.0396
21.7479 52.6059
21.9297 64.8479
22.1115 56.1102
22.2933 50.0544
22.4753 49.2695
22.6572 48.9118
22.8393 51.9519
23.0214 57.6963
23.2037 48.9755
23.3859 49.8073
23.5682 56.7814
23.7505 48.5511
23.9329 45.5027
24.1154 44.312
24.2979 43.6131
24.4805 43.0492
24.6631 43.0204
24.8458 42.43
25.0286 42.8991
25.2114 44.8226
25.3943 44.8863
25.5773 40.976
25.7605 40.6335
25.9436 40.9289
26.1268 41.9035
26.31 40.1975
26.4933 40.8749
26.6767 42.2899
26.8601 40.5522
27.0437 39.0968
27.2272 38.6758
27.4109 38.5212
27.5946 38.5921
27.7784 38.0737
27.9623 38.2857
28.1462 38.9801
28.3304 37.2434
28.5145 36.172
28.6987 35.7764
28.8829 35.6198
29.0673 34.8394
29.2517 34.4152
29.4361 34.2649
29.6207 33.2957
29.8053 33.1362
29.99 32.7708
30.1748 32.573
30.3597 32.4367
30.5447 32.2843
30.7297 32.4904
30.915 31.7464
31.1002 31.2428
31.2855 30.9446
31.4708 30.8776
31.6563 30.3728
31.8418 30.247
32.0275 30.0773
32.2132 29.3736
32.399 29.0346
32.5848 28.6096
32.7708 28.2978
32.9569 28.0848
33.143 27.8855
33.3293 27.5261
33.5158 27.1851
33.7022 26.692
33.8887 26.503
34.0753 26.0613
34.262 25.7
34.4488 25.4536
34.6357 25.0632
34.8227 24.7332
35.0098 24.5397
35.1969 24.4039
35.3842 24.0739
35.5716 23.8026
35.759 23.5389
35.9468 23.1823
36.1345 23.0077
36.3222 22.7496
36.5101 22.5105
36.6981 22.2201
36.8861 21.8823
37.0743 21.6203
37.2626 21.4061
37.451 21.0779
37.6395 20.9858
37.8281 20.5933
38.0168 20.3291
38.2056 20.0952
38.3945 19.7387
38.5837 19.5458
38.7728 19.3135
38.9621 19.0074
39.1514 18.7748
39.3409 18.5964
39.5304 18.3164
39.7201 18.0891
39.9099 17.9145
40.0999 17.7083
40.2899 17.3938
40.48 17.1908
40.6703 16.9806
40.8607 16.7832
41.0512 16.6264
41.242 16.3122
41.4327 16.1248
41.6236 15.8965
41.8146 15.67
42.0057 15.4746
42.1969 15.262
42.3882 15.1152
42.5797 14.9021
42.7713 14.688
42.963 14.4964
43.1549 14.3509
43.3468 14.0848
43.5389 13.9451
43.7312 13.7139
43.9237 13.5416
44.1162 13.2786
44.3088 13.1133
44.5016 12.9544
44.6945 12.7905
44.8875 12.5831
45.0806 12.4019
45.2739 12.24
45.4673 12.1228
45.6609 11.906
45.8546 11.7637
46.0484 11.5616
46.2424 11.4366
46.4365 11.3019
46.631 11.085
46.8254 10.8887
47.0199 10.8018
47.2146 10.6074
47.4095 10.4533
47.6044 10.2895
47.7996 10.1238
47.9948 9.98605
48.1902 9.8707
48.3858 9.71217
48.5815 9.60187
48.7774 9.42208
48.9734 9.26495
49.1696 9.15233
49.3661 9.01562
49.5626 8.8697
49.7592 8.71966
49.956 8.63437
50.153 8.51047
50.3501 8.32136
50.5474 8.21333
50.7448 8.08284
50.9424 7.99826
51.1402 7.87628
51.3381 7.71777
51.5362 7.57338
51.7344 7.48514
51.9328 7.3283
52.1316 7.21843
52.3304 7.09785
52.5293 7.02231
52.7284 6.85998
52.9276 6.74929
53.1271 6.64948
53.3267 6.51451
53.5265 6.39501
53.7264 6.30649
53.9266 6.22408
54.1269 6.06051
54.3274 5.96653
54.528 5.83572
54.7289 5.65887
54.9301 5.47627
55.1314 5.40026
55.3328 5.20199
55.5344 5.03326
55.7361 4.79483

File: Ni3Fe_FD0643.xy
TT I
1.27165 7.19601
1.45013 6.2428
1.62863 5.44329
1.80712 4.8847
1.98562 4.73299
2.16411 4.98995
2.34263 5.48908
2.52115 6.74145
2.69965 7.86883
2.87818 8.11674
3.05672 11.0997
3.23527 15.6262
3.4138 19.1577
3.59237 24.6855
3.77094 26.4703
3.9495 29.7899
4.12809 35.535
4.30669 266.922
4.4853 70.6895
4.6639 55.7213
4.84253 67.5587
5.02118 86.1508
5.19981 333.449
5.37848 197.072
5.55716 102.383
5.73586 92.1143
5.91455 93.646
6.09328 4309.72
6.27201 84.411
6.45075 67.4457
6.62952 63.4796
6.8083 59.0018
6.98711 56.4004
7.16591 56.0298
7.34475 103.119
7.5236 55.3665
7.70247 56.5473
7.88135 57.9574
8.06026 62.5381
8.23919 69.6968
8.41812 85.3558
8.59709 1097.54
8.77609 100.143
8.9551 93.1211
9.13412 82.0623
9.31318 82.6604
9.49226 84.6199
9.67134 100.985
9.85047 99.6731
10.0296 324.42
10.2088 443.724
10.388 105.323
10.5672 496.377
10.7465 86.967
10.9257 79.0291
11.105 72.2719
11.2844 71.497
11.4637 65.0823
11.6431 64.1323
11.8225 62.7456
12.002 63.2448
12.1814 146.807
12.3609 72.6193
12.5405 64.7283
12.72 71.1334
12.8996 71.0208
13.0792 78.8544
13.2589 226.735
13.4386 129.399
13.6183 237.788
13.7981 100.419
13.9779 76.3203
14.1577 73.0968
14.3376 72.3167
14.5175 68.8455
14.6974 70.5285
14.8774 107.2
15.0574 152.453
15.2374 71.9725
15.4175 66.4286
15.5976 66.1956
15.7778 92.6393
15.958 161.488
16.1382 63.3089
16.3185 59.2584
16.4988 55.6065
16.6792 54.9618
16.8596 55.6146
17.04 55.7416
17.2205 66.1379
17.401 72.4204
17.5815 59.491
17.7622 61.3267
17.9428 72.8574
18.1237 139.096
18.3044 89.3718
18.4852 79.0972
18.666 60.6415
18.8469 58.1208
19.0278 57.0848
19.2088 59.5737
19.3898 76.66
19.5709 54.6007
19.752 53.5745
19.9332 56.2444
20.1144 69.9324
20.2957 63.6871
20.477 54.1444
20.6586 49.7952
20.84 48.887
21.0215 48.7141
21.203 50.8066
21.3846 49.2266
21.5662 48.7536
21.7479 52.5615
21.9297 64.9038
22.1115 56.0999
22.2933 50.0887
22.4753 49.1316
22.6572 48.8774
22.8393 51.725
23.0214 57.9203
23.2037 49.025
23.3859 49.6432
23.5682 56.8128
23.7505 48.5748
23.9329 45.405
24.1154 44.4118
24.2979 43.5713
24.4805 42.9574
24.6631 43.0495
24.8458 42.3043
25.0286 42.7066
25.2114 44.6962
25.3943 44.8349
25.5773 41.1361
25.7605 40.6464
25.9436 40.9103
26.1268 41.8987
26.31 40.1852
26.4933 40.728
26.6767 42.3292
26.8601 40.5636
27.0437 39.1151
27.2272 38.6884
27.4109 38.5818
27.5946 38.5167
27.7784 38.0032
27.9623 38.5892
28.1462 38.9009
28.3304 37.3784
28.5145 36.1884
28.6987 35.7264
28.8829 35.5177
29.0673 34.844
29.2517 34.398
29.4361 34.2327
29.6207 33.3915
29.8053 33.1283
29.99 32.6599
30.1748 32.5545
30.3597 32.4362
30.5447 32.3674
30.7297 32.3115
30.915 31.7672
31.1002 31.2074
31.2855 30.9705
31.4708 30.9748
31.6563 30.319
31.8418 30.1504
32.0275 30.0695
32.2132 29.57
32.399 29.0994
32.5848 28.5456
32.7708 28.2136
32.9569 28.1733
33.143 27.8217
33.3293 27.4523
33.5158 27.1277
33.7022 26.6685
33.8887 26.4232
34.0753 26.1232
34.262 25.7442
34.4488 25.4148
34.6357 25.0866
34.8227 24.8233
35.0098 24.536
35.1969 24.3354
35.3842 24.0622
35.5716 23.8036
35.759 23.599
35.9468 23.2349
36.1345 22.9728
36.3222 22.762
36.5101 22.5652
36.6981 22.247
36.8861 21.8786
37.0743 21.6102
37.2626 21.3563
37.451 21.0909
37.6395 20.9372
37.8281 20.534
38.0168 20.2521
38.2056 20.0126
38.3945 19.667
38.5837 19.5478
38.7728 19.2438
38.9621 18.9879
39.1514 18.7834
39.3409 18.5635
39.5304 18.3194
39.7201 18.1563
39.9099 17.8608
40.0999 17.6031
40.2899 17.4145
40.48 17.2673
40.6703 17.0067
40.8607 16.7844
41.0512 16.5773
41.242 16.3321
41.4327 16.1575
41.6236 15.8349
41.8146 15.7289
42.0057 15.4737
42.1969 15.2387
42.3882 15.096
42.5797 14.9272
42.7713 14.6951
42.963 14.4601
43.1549 14.2967
43.3468 14.114
43.5389 13.9316
43.7312 13.6785
43.9237 13.5196
44.1162 13.3137
44.3088 13.1903
44.5016 12.9412
44.6945 12.7829
44.8875 12.6146
45.0806 12.4301
45.2739 12.2811
45.4673 12.097
45.6609 11.94
45.8546 11.768
46.0484 11.5681
46.2424 11.4484
46.4365 11.2721
46.631 11.0503
46.8254 10.9158
47.0199 10.7843
47.2146 10.6285
47.4095 10.4599
47.6044 10.3101
47.7996 10.14
47.9948 9.99318
48.1902 9.86157
48.3858 9.68144
48.5815 9.57523
48.7774 9.46834
48.9734 9.28782
49.1696 9.11844
49.3661 8.98564
49.5626 8.9064
49.7592 8.7373
49.956 8.60621
50.153 8.49371
50.3501 8.35885
50.5474 8.21874
50.7448 8.08183
50.9424 8.00012
51.1402 7.85307
51.3381 7.72325
51.5362 7.6158
51.7344 7.48444
51.9328 7.33656
52.1316 7.19746
52.3304 7.11367
52.5293 6.97158
52.7284 6.86518
52.9276 6.7845
53.1271 6.66849
53.3267 6.53443
53.5265 6.44526
53.7264 6.3067
53.9266 6.19221
54.1269 6.08091
54.3274 6.00164
54.528 5.82979
54.7289 5.67414
54.9301 5.51182
55.1314 5.46549
55.3328 5.19515
55.5344 4.99445
55.7361 4.83417