Folder: NiFe_MOF_catalyst_paper/XRD (part 107)

File: Ni3Fe_FD0580.xy
TT I
1.27165 7.71984
1.45013 6.56089
1.62863 5.53627
1.80712 5.0153
1.98562 4.88224
2.16411 4.80225
2.34263 5.39393
2.52115 6.22528
2.69965 8.46527
2.87818 8.5264
3.05672 11.316
3.23527 15.0532
3.4138 18.7535
3.59237 23.652
3.77094 26.396
3.9495 29.6741
4.12809 34.467
4.30669 123.613
4.4853 56.7527
4.6639 56.0562
4.84253 68.5504
5.02118 88.7804
5.19981 471.969
5.37848 198.667
5.55716 103.209
5.73586 94.2749
5.91455 97.4036
6.09328 4426.73
6.27201 82.2432
6.45075 68.7639
6.62952 62.3945
6.8083 59.0178
6.98711 55.9853
7.16591 55.5367
7.34475 72.3715
7.5236 54.6929
7.70247 56.7355
7.88135 58.3767
8.06026 62.5383
8.23919 70.0587
8.41812 85.4193
8.59709 1234.59
8.77609 100.164
8.9551 89.5248
9.13412 83.2563
9.31318 84.2911
9.49226 85.4578
9.67134 96.1418
9.85047 101.651
10.0296 381.698
10.2088 368.467
10.388 106.633
10.5672 522.042
10.7465 86.7281
10.9257 78.4206
11.105 71.8157
11.2844 69.4602
11.4637 65.1653
11.6431 64.0035
11.8225 63.015
12.002 65.0814
12.1814 156.65
12.3609 67.9384
12.5405 65.1197
12.72 68.6482
12.8996 71.5058
13.0792 81.1723
13.2589 252.17
13.4386 121.685
13.6183 256.965
13.7981 96.5981
13.9779 76.4554
14.1577 72.7966
14.3376 71.0023
14.5175 69.3494
14.6974 71.3414
14.8774 116.576
15.0574 144.833
15.2374 70.5397
15.4175 66.9581
15.5976 66.5874
15.7778 99.3614
15.958 149.371
16.1382 62.168
16.3185 58.4771
16.4988 55.7258
16.6792 54.8693
16.8596 55.4033
17.04 56.6731
17.2205 68.0308
17.401 70.6278
17.5815 59.876
17.7622 61.8655
17.9428 75.7063
18.1237 141.535
18.3044 92.1456
18.4852 76.3721
18.666 60.6501
18.8469 58.6253
19.0278 57.2327
19.2088 60.1028
19.3898 76.0006
19.5709 54.5025
19.752 53.74
19.9332 56.9053
20.1144 70.1971
20.2957 64.0551
20.477 53.6813
20.6586 49.9969
20.84 49.2731
21.0215 49.1136
21.203 51.2101
21.3846 49.1837
21.5662 49.4837
21.7479 53.4149
21.9297 65.2403
22.1115 56.2898
22.2933 50.0779
22.4753 49.0802
22.6572 49.3997
22.8393 52.8056
23.0214 57.3493
23.2037 49.3196
23.3859 50.3683
23.5682 57.2636
23.7505 48.4338
23.9329 45.675
24.1154 44.4914
24.2979 43.5933
24.4805 43.2366
24.6631 43.0529
24.8458 42.5995
25.0286 43.2725
25.2114 44.993
25.3943 44.8328
25.5773 41.1761
25.7605 40.8129
25.9436 41.1864
26.1268 41.9909
26.31 40.4032
26.4933 41.2737
26.6767 42.448
26.8601 40.6444
27.0437 39.2524
27.2272 38.8277
27.4109 38.7194
27.5946 38.4201
27.7784 38.2405
27.9623 38.788
28.1462 38.9947
28.3304 37.4602
28.5145 36.1953
28.6987 35.8476
28.8829 35.6907
29.0673 34.9527
29.2517 34.5905
29.4361 34.3804
29.6207 33.434
29.8053 33.1809
29.99 32.8205
30.1748 32.7347
30.3597 32.4824
30.5447 32.4393
30.7297 32.4761
30.915 31.9071
31.1002 31.3111
31.2855 31.1585
31.4708 31.0481
31.6563 30.563
31.8418 30.3444
32.0275 30.1608
32.2132 29.5763
32.399 29.1446
32.5848 28.6978
32.7708 28.2942
32.9569 28.2353
33.143 28.0036
33.3293 27.6225
33.5158 27.1831
33.7022 26.7797
33.8887 26.505
34.0753 26.1891
34.262 25.908
34.4488 25.538
34.6357 25.1856
34.8227 24.9293
35.0098 24.6242
35.1969 24.3818
35.3842 24.0899
35.5716 24.0429
35.759 23.5845
35.9468 23.2325
36.1345 23.0376
36.3222 22.7545
36.5101 22.5173
36.6981 22.1868
36.8861 21.9254
37.0743 21.6681
37.2626 21.376
37.451 21.1233
37.6395 20.9622
37.8281 20.6358
38.0168 20.331
38.2056 20.1081
38.3945 19.8694
38.5837 19.5612
38.7728 19.33
38.9621 19.1564
39.1514 18.8648
39.3409 18.5303
39.5304 18.3327
39.7201 18.1506
39.9099 17.9465
40.0999 17.6923
40.2899 17.4357
40.48 17.1971
40.6703 16.9805
40.8607 16.8634
41.0512 16.6116
41.242 16.363
41.4327 16.1345
41.6236 15.9615
41.8146 15.7618
42.0057 15.4836
42.1969 15.3319
42.3882 15.1144
42.5797 14.8974
42.7713 14.7099
42.963 14.4938
43.1549 14.321
43.3468 14.0823
43.5389 13.9379
43.7312 13.7198
43.9237 13.5443
44.1162 13.3493
44.3088 13.1631
44.5016 12.9709
44.6945 12.8001
44.8875 12.6139
45.0806 12.4416
45.2739 12.3051
45.4673 12.0774
45.6609 11.9413
45.8546 11.7633
46.0484 11.6064
46.2424 11.4325
46.4365 11.288
46.631 11.0837
46.8254 10.9255
47.0199 10.7656
47.2146 10.624
47.4095 10.4599
47.6044 10.2587
47.7996 10.0963
47.9948 9.95856
48.1902 9.85381
48.3858 9.72735
48.5815 9.57877
48.7774 9.47177
48.9734 9.28922
49.1696 9.14136
49.3661 9.03178
49.5626 8.85929
49.7592 8.73322
49.956 8.64359
50.153 8.49175
50.3501 8.32332
50.5474 8.23702
50.7448 8.09329
50.9424 7.98186
51.1402 7.83287
51.3381 7.68872
51.5362 7.58422
51.7344 7.49057
51.9328 7.30402
52.1316 7.19576
52.3304 7.12802
52.5293 6.97396
52.7284 6.85638
52.9276 6.71905
53.1271 6.64581
53.3267 6.53366
53.5265 6.42317
53.7264 6.29779
53.9266 6.18313
54.1269 6.09082
54.3274 5.97097
54.528 5.87379
54.7289 5.69767
54.9301 5.50193
55.1314 5.37233
55.3328 5.20328
55.5344 4.97621
55.7361 4.82325

File: Ni3Fe_FD0581.xy
TT I
1.27165 7.53814
1.45013 6.39257
1.62863 5.50135
1.80712 4.97584
1.98562 4.48818
2.16411 4.45984
2.34263 5.1143
2.52115 6.49508
2.69965 7.83263
2.87818 8.63888
3.05672 11.2576
3.23527 15.3109
3.4138 18.8562
3.59237 23.214
3.77094 25.951
3.9495 29.8551
4.12809 34.2476
4.30669 122.157
4.4853 56.2114
4.6639 56.183
4.84253 68.5723
5.02118 89.2031
5.19981 472.469
5.37848 198.473
5.55716 104.123
5.73586 93.3202
5.91455 97.6712
6.09328 4409.95
6.27201 82.2215
6.45075 68.4421
6.62952 62.7417
6.8083 58.9241
6.98711 55.8182
7.16591 55.8827
7.34475 71.7827
7.5236 54.5754
7.70247 56.6601
7.88135 58.5035
8.06026 62.9763
8.23919 69.5568
8.41812 85.3206
8.59709 1239.13
8.77609 99.8986
8.9551 89.8303
9.13412 83.2199
9.31318 84.5071
9.49226 85.5842
9.67134 95.6669
9.85047 101.528
10.0296 381.341
10.2088 367.879
10.388 106.939
10.5672 520.026
10.7465 86.9581
10.9257 78.0361
11.105 72.1508
11.2844 69.2446
11.4637 65.0784
11.6431 63.7254
11.8225 62.9693
12.002 64.8667
12.1814 155.941
12.3609 68.0254
12.5405 65.19
12.72 68.9773
12.8996 71.8256
13.0792 81.2454
13.2589 252.611
13.4386 121.12
13.6183 256.037
13.7981 96.8113
13.9779 76.248
14.1577 72.5226
14.3376 71.1633
14.5175 69.4979
14.6974 71.2817
14.8774 116.557
15.0574 144.506
15.2374 70.1393
15.4175 66.8663
15.5976 66.5657
15.7778 99.1833
15.958 150.045
16.1382 62.0448
16.3185 58.4665
16.4988 55.79
16.6792 54.8949
16.8596 55.471
17.04 56.2758
17.2205 68.1038
17.401 70.8534
17.5815 59.6006
17.7622 61.9255
17.9428 75.5376
18.1237 141.52
18.3044 92.0241
18.4852 76.5714
18.666 60.7083
18.8469 58.5591
19.0278 57.3643
19.2088 60.1315
19.3898 76.2035
19.5709 54.4932
19.752 53.8396
19.9332 56.9731
20.1144 70.0895
20.2957 64.1587
20.477 53.5239
20.6586 50.0556
20.84 49.0753
21.0215 49.0049
21.203 51.2103
21.3846 49.2139
21.5662 49.3975
21.7479 53.3754
21.9297 65.0648
22.1115 56.2665
22.2933 50.053
22.4753 49.1121
22.6572 49.4535
22.8393 52.6079
23.0214 57.4688
23.2037 49.0573
23.3859 50.2662
23.5682 57.3085
23.7505 48.2932
23.9329 45.574
24.1154 44.3105
24.2979 43.8616
24.4805 43.0918
24.6631 43.1747
24.8458 42.4881
25.0286 43.3592
25.2114 45.0555
25.3943 44.9026
25.5773 41.1752
25.7605 40.6824
25.9436 41.1169
26.1268 41.993
26.31 40.4149
26.4933 40.9978
26.6767 42.4858
26.8601 40.6855
27.0437 39.2531
27.2272 38.7851
27.4109 38.7515
27.5946 38.7071
27.7784 38.1948
27.9623 38.7991
28.1462 39.0081
28.3304 37.3842
28.5145 36.2517
28.6987 35.7725
28.8829 35.6637
29.0673 34.8102
29.2517 34.577
29.4361 34.3058
29.6207 33.3849
29.8053 33.1184
29.99 32.8556
30.1748 32.707
30.3597 32.3874
30.5447 32.3874
30.7297 32.356
30.915 31.7984
31.1002 31.3492
31.2855 31.1937
31.4708 31.003
31.6563 30.5229
31.8418 30.337
32.0275 30.0542
32.2132 29.5828
32.399 29.1085
32.5848 28.5529
32.7708 28.408
32.9569 28.1923
33.143 28.0118
33.3293 27.5563
33.5158 27.1828
33.7022 26.8248
33.8887 26.5598
34.0753 26.1744
34.262 25.8802
34.4488 25.3804
34.6357 25.1391
34.8227 24.8876
35.0098 24.6429
35.1969 24.4366
35.3842 24.1847
35.5716 23.9232
35.759 23.5678
35.9468 23.279
36.1345 23.0444
36.3222 22.7497
36.5101 22.5187
36.6981 22.2559
36.8861 21.908
37.0743 21.6168
37.2626 21.383
37.451 21.1456
37.6395 20.9676
37.8281 20.614
38.0168 20.3057
38.2056 20.0955
38.3945 19.8004
38.5837 19.586
38.7728 19.3127
38.9621 19.0144
39.1514 18.8537
39.3409 18.5655
39.5304 18.3465
39.7201 18.1401
39.9099 17.9809
40.0999 17.7155
40.2899 17.4784
40.48 17.2107
40.6703 17.022
40.8607 16.8552
41.0512 16.6347
41.242 16.3492
41.4327 16.171
41.6236 15.9536
41.8146 15.7708
42.0057 15.552
42.1969 15.3311
42.3882 15.1132
42.5797 14.9116
42.7713 14.6997
42.963 14.5044
43.1549 14.3436
43.3468 14.1399
43.5389 13.9009
43.7312 13.7162
43.9237 13.5019
44.1162 13.3712
44.3088 13.1747
44.5016 12.9702
44.6945 12.817
44.8875 12.6161
45.0806 12.4685
45.2739 12.2746
45.4673 12.1205
45.6609 11.939
45.8546 11.7842
46.0484 11.6115
46.2424 11.3795
46.4365 11.2927
46.631 11.1093
46.8254 10.9113
47.0199 10.7845
47.2146 10.6285
47.4095 10.4423
47.6044 10.2848
47.7996 10.1288
47.9948 10.0053
48.1902 9.83515
48.3858 9.72572
48.5815 9.61584
48.7774 9.46407
48.9734 9.31672
49.1696 9.16914
49.3661 9.0028
49.5626 8.87333
49.7592 8.73799
49.956 8.59858
50.153 8.50022
50.3501 8.33948
50.5474 8.22526
50.7448 8.10189
50.9424 7.97556
51.1402 7.88005
51.3381 7.72702
51.5362 7.59942
51.7344 7.45138
51.9328 7.34233
52.1316 7.23127
52.3304 7.0693
52.5293 6.95684
52.7284 6.89086
52.9276 6.7254
53.1271 6.64273
53.3267 6.52974
53.5265 6.43178
53.7264 6.31131
53.9266 6.23374
54.1269 6.08341
54.3274 5.98857
54.528 5.86681
54.7289 5.68033
54.9301 5.52854
55.1314 5.39937
55.3328 5.19471
55.5344 5.00414
55.7361 4.84343

File: Ni3Fe_FD0582.xy
TT I
1.27165 7.03874
1.45013 6.42592
1.62863 5.25179
1.80712 4.60816
1.98562 4.5676
2.16411 4.38265
2.34263 5.06245
2.52115 6.39514
2.69965 7.61211
2.87818 8.91334
3.05672 11.072
3.23527 14.8254
3.4138 18.6409
3.59237 23.1486
3.77094 26.3016
3.9495 30.1002
4.12809 34.2901
4.30669 121.367
4.4853 56.3542
4.6639 56.2452
4.84253 68.5123
5.02118 88.5885
5.19981 472.418
5.37848 200.253
5.55716 103.34
5.73586 93.9282
5.91455 97.3204
6.09328 4446.85
6.27201 82.1032
6.45075 68.93
6.62952 62.7205
6.8083 58.9652
6.98711 55.5
7.16591 55.6478
7.34475 71.9733
7.5236 54.7024
7.70247 56.61
7.88135 58.1336
8.06026 62.7151
8.23919 70.0292
8.41812 85.5161
8.59709 1248.63
8.77609 99.969
8.9551 89.5644
9.13412 83.0362
9.31318 84.258
9.49226 85.438
9.67134 95.8166
9.85047 101.532
10.0296 380.769
10.2088 372.947
10.388 106.359
10.5672 519.876
10.7465 87.0288
10.9257 78.3157
11.105 71.9441
11.2844 68.9929
11.4637 65.2275
11.6431 63.8351
11.8225 62.6945
12.002 64.7739
12.1814 155.673
12.3609 67.8065
12.5405 65.1556
12.72 68.7993
12.8996 71.694
13.0792 81.0861
13.2589 252.917
13.4386 121.578
13.6183 254.511
13.7981 96.8298
13.9779 76.2892
14.1577 72.4444
14.3376 71.0089
14.5175 69.4841
14.6974 71.3166
14.8774 116.173
15.0574 143.526
15.2374 70.1292
15.4175 66.7891
15.5976 66.6533
15.7778 99.1107
15.958 150.116
16.1382 62.2591
16.3185 58.4032
16.4988 55.981
16.6792 54.7077
16.8596 55.2871
17.04 56.6965
17.2205 67.9401
17.401 70.9712
17.5815 59.6038
17.7622 61.8273
17.9428 75.6502
18.1237 141.875
18.3044 91.9233
18.4852 76.8593
18.666 60.6981
18.8469 58.3828
19.0278 57.3809
19.2088 59.9756
19.3898 76.3321
19.5709 54.6145
19.752 53.8206
19.9332 56.913
20.1144 70.364
20.2957 64.2389
20.477 53.6233
20.6586 49.8496
20.84 49.1292
21.0215 48.947
21.203 51.1895
21.3846 49.288
21.5662 49.4515
21.7479 53.5439
21.9297 65.0378
22.1115 56.1445
22.2933 49.9574
22.4753 49.1604
22.6572 49.2545
22.8393 52.5319
23.0214 57.4165
23.2037 48.9964
23.3859 50.4696
23.5682 57.3209
23.7505 48.4046
23.9329 45.4286
24.1154 44.3289
24.2979 43.7292
24.4805 43.2509
24.6631 43.1411
24.8458 42.5471
25.0286 43.205
25.2114 44.9827
25.3943 44.9389
25.5773 41.2364
25.7605 40.7212
25.9436 41.1367
26.1268 41.9908
26.31 40.37
26.4933 41.0426
26.6767 42.4211
26.8601 40.7537
27.0437 39.2021
27.2272 38.795
27.4109 38.6447
27.5946 38.764
27.7784 38.19
27.9623 38.7422
28.1462 39.069
28.3304 37.3579
28.5145 36.1975
28.6987 35.8307
28.8829 35.7014
29.0673 34.8709
29.2517 34.5958
29.4361 34.424
29.6207 33.3325
29.8053 33.1042
29.99 32.8206
30.1748 32.5959
30.3597 32.4587
30.5447 32.416
30.7297 32.4851
30.915 31.7487
31.1002 31.2072
31.2855 31.1848
31.4708 31.0394
31.6563 30.5566
31.8418 30.3144
32.0275 30.1369
32.2132 29.5765
32.399 29.1633
32.5848 28.7719
32.7708 28.2996
32.9569 28.3036
33.143 28.0561
33.3293 27.6263
33.5158 27.2575
33.7022 26.7612
33.8887 26.4903
34.0753 26.2307
34.262 25.7588
34.4488 25.3757
34.6357 25.2291
34.8227 24.8978
35.0098 24.5634
35.1969 24.3632
35.3842 24.153
35.5716 23.9605
35.759 23.4711
35.9468 23.2784
36.1345 23.0614
36.3222 22.7945
36.5101 22.5684
36.6981 22.302
36.8861 21.9009
37.0743 21.6163
37.2626 21.3195
37.451 21.1507
37.6395 20.9628
37.8281 20.6135
38.0168 20.3381
38.2056 20.1
38.3945 19.8253
38.5837 19.5535
38.7728 19.3379
38.9621 19.0402
39.1514 18.8327
39.3409 18.5382
39.5304 18.3544
39.7201 18.18
39.9099 17.9071
40.0999 17.6787
40.2899 17.5131
40.48 17.2229
40.6703 17.0292
40.8607 16.8818
41.0512 16.5878
41.242 16.3684
41.4327 16.131
41.6236 15.9487
41.8146 15.7749
42.0057 15.4825
42.1969 15.2894
42.3882 15.185
42.5797 14.8359
42.7713 14.7556
42.963 14.5106
43.1549 14.3469
43.3468 14.079
43.5389 13.8942
43.7312 13.7277
43.9237 13.5357
44.1162 13.3513
44.3088 13.1668
44.5016 12.9754
44.6945 12.8007
44.8875 12.6027
45.0806 12.4369
45.2739 12.2268
45.4673 12.1188
45.6609 11.92
45.8546 11.7311
46.0484 11.6307
46.2424 11.3978
46.4365 11.2577
46.631 11.0632
46.8254 10.8964
47.0199 10.769
47.2146 10.5901
47.4095 10.4349
47.6044 10.2848
47.7996 10.1581
47.9948 10.0275
48.1902 9.85774
48.3858 9.75967
48.5815 9.55524
48.7774 9.45278
48.9734 9.2867
49.1696 9.15974
49.3661 9.01142
49.5626 8.84829
49.7592 8.74194
49.956 8.5936
50.153 8.45317
50.3501 8.32854
50.5474 8.25706
50.7448 8.12862
50.9424 7.96409
51.1402 7.85629
51.3381 7.69225
51.5362 7.62112
51.7344 7.448
51.9328 7.33835
52.1316 7.20523
52.3304 7.13208
52.5293 6.98088
52.7284 6.85416
52.9276 6.78781
53.1271 6.68278
53.3267 6.52402
53.5265 6.4227
53.7264 6.31661
53.9266 6.20407
54.1269 6.09168
54.3274 6.00147
54.528 5.84507
54.7289 5.69801
54.9301 5.52569
55.1314 5.38149
55.3328 5.18524
55.5344 5.02649
55.7361 4.84617

File: Ni3Fe_FD0583.xy
TT I
1.27165 7.11087
1.45013 5.69673
1.62863 5.69748
1.80712 5.08923
1.98562 4.90392
2.16411 4.55945
2.34263 5.86501
2.52115 6.36164
2.69965 8.06614
2.87818 8.50994
3.05672 10.8575
3.23527 14.8857
3.4138 18.6505
3.59237 23.2485
3.77094 25.7237
3.9495 29.4932
4.12809 34.2157
4.30669 120.545
4.4853 55.7607
4.6639 55.6024
4.84253 68.3571
5.02118 88.4468
5.19981 472.203
5.37848 199.606
5.55716 103.072
5.73586 93.7238
5.91455 97.3597
6.09328 4412.07
6.27201 81.7883
6.45075 69.0481
6.62952 62.727
6.8083 59.0423
6.98711 55.6549
7.16591 55.7756
7.34475 71.5791
7.5236 54.2933
7.70247 56.6204
7.88135 57.9826
8.06026 62.5521
8.23919 69.7268
8.41812 85.1443
8.59709 1260.53
8.77609 99.53
8.9551 89.5583
9.13412 82.8184
9.31318 84.2995
9.49226 85.0419
9.67134 95.889
9.85047 101.429
10.0296 380.815
10.2088 369.804
10.388 106.533
10.5672 517.614
10.7465 87.1051
10.9257 78.0753
11.105 71.6646
11.2844 69.0255
11.4637 65.1447
11.6431 63.5148
11.8225 62.8352
12.002 64.803
12.1814 155.532
12.3609 67.6191
12.5405 64.9314
12.72 69.1533
12.8996 71.6356
13.0792 81.0045
13.2589 252.074
13.4386 121.413
13.6183 254.47
13.7981 96.3889
13.9779 76.5546
14.1577 72.4879
14.3376 70.9803
14.5175 69.4094
14.6974 71.1714
14.8774 116.096
15.0574 142.681
15.2374 70.1318
15.4175 66.8327
15.5976 66.5372
15.7778 99.0959
15.958 150.614
16.1382 61.9187
16.3185 58.1113
16.4988 55.6919
16.6792 54.7407
16.8596 55.4757
17.04 56.4152
17.2205 67.9073
17.401 70.7404
17.5815 59.5262
17.7622 61.7925
17.9428 75.5525
18.1237 140.902
18.3044 92.0345
18.4852 76.9525
18.666 60.5622
18.8469 58.2959
19.0278 57.3458
19.2088 59.9834
19.3898 75.9171
19.5709 54.4722
19.752 53.6866
19.9332 56.7629
20.1144 70.0198
20.2957 64.1584
20.477 53.5397
20.6586 49.9246
20.84 49.2062
21.0215 49.0075
21.203 51.2086
21.3846 49.0725
21.5662 49.4485
21.7479 53.409
21.9297 65.0402
22.1115 56.425
22.2933 50.011
22.4753 49.0212
22.6572 49.3601
22.8393 52.5259
23.0214 57.3616
23.2037 49.1221
23.3859 50.2099
23.5682 57.2258
23.7505 48.3087
23.9329 45.5531
24.1154 44.3592
24.2979 43.5729
24.4805 43.2416
24.6631 43.0767
24.8458 42.5392
25.0286 43.2784
25.2114 44.9978
25.3943 44.7829
25.5773 41.1225
25.7605 40.6314
25.9436 41.1574
26.1268 41.8622
26.31 40.4122
26.4933 41.0699
26.6767 42.5264
26.8601 40.6302
27.0437 39.1788
27.2272 38.8248
27.4109 38.6808
27.5946 38.5964
27.7784 38.1211
27.9623 38.6655
28.1462 39.0779
28.3304 37.3123
28.5145 36.0773
28.6987 35.8356
28.8829 35.5886
29.0673 34.8986
29.2517 34.5931
29.4361 34.3653
29.6207 33.3505
29.8053 33.0979
29.99 32.7296
30.1748 32.6614
30.3597 32.4623
30.5447 32.3628
30.7297 32.4645
30.915 31.8023
31.1002 31.2698
31.2855 30.9916
31.4708 30.9699
31.6563 30.6584
31.8418 30.3352
32.0275 30.0761
32.2132 29.4872
32.399 29.0601
32.5848 28.6971
32.7708 28.4098
32.9569 28.1954
33.143 28.0192
33.3293 27.5993
33.5158 27.1583
33.7022 26.7668
33.8887 26.5663
34.0753 26.1877
34.262 25.7035
34.4488 25.514
34.6357 25.0842
34.8227 24.8599
35.0098 24.5572
35.1969 24.2958
35.3842 24.1912
35.5716 23.8642
35.759 23.5726
35.9468 23.2453
36.1345 23.1127
36.3222 22.7761
36.5101 22.5739
36.6981 22.2729
36.8861 22.0136
37.0743 21.6388
37.2626 21.37
37.451 21.14
37.6395 20.9491
37.8281 20.6773
38.0168 20.328
38.2056 20.0709
38.3945 19.8233
38.5837 19.5424
38.7728 19.3037
38.9621 19.0463
39.1514 18.7776
39.3409 18.6131
39.5304 18.3839
39.7201 18.1528
39.9099 17.8793
40.0999 17.6802
40.2899 17.4717
40.48 17.2054
40.6703 17.001
40.8607 16.866
41.0512 16.5878
41.242 16.3247
41.4327 16.1788
41.6236 15.9453
41.8146 15.7644
42.0057 15.5048
42.1969 15.3034
42.3882 15.1123
42.5797 14.8895
42.7713 14.6688
42.963 14.4214
43.1549 14.27
43.3468 14.0923
43.5389 13.9118
43.7312 13.7356
43.9237 13.4883
44.1162 13.3476
44.3088 13.172
44.5016 12.9493
44.6945 12.8474
44.8875 12.619
45.0806 12.4598
45.2739 12.2758
45.4673 12.094
45.6609 11.8605
45.8546 11.7766
46.0484 11.6573
46.2424 11.4486
46.4365 11.2479
46.631 11.0841
46.8254 10.9139
47.0199 10.7591
47.2146 10.6508
47.4095 10.4498
47.6044 10.2552
47.7996 10.1396
47.9948 9.93594
48.1902 9.83377
48.3858 9.70914
48.5815 9.57699
48.7774 9.40092
48.9734 9.30702
49.1696 9.17773
49.3661 8.98595
49.5626 8.87825
49.7592 8.71866
49.956 8.60232
50.153 8.48508
50.3501 8.31594
50.5474 8.22612
50.7448 8.0965
50.9424 7.98852
51.1402 7.85225
51.3381 7.68774
51.5362 7.56331
51.7344 7.46847
51.9328 7.33404
52.1316 7.19153
52.3304 7.09149
52.5293 6.98229
52.7284 6.85894
52.9276 6.74653
53.1271 6.66595
53.3267 6.5168
53.5265 6.39817
53.7264 6.31759
53.9266 6.22482
54.1269 6.11082
54.3274 5.98693
54.528 5.83735
54.7289 5.69405
54.9301 5.53339
55.1314 5.43024
55.3328 5.22401
55.5344 4.97045
55.7361 4.85522

File: Ni3Fe_FD0584.xy
TT I
1.27165 7.59446
1.45013 6.7527
1.62863 5.22374
1.80712 4.50756
1.98562 4.91925
2.16411 4.55619
2.34263 5.11498
2.52115 5.63717
2.69965 8.09168
2.87818 8.88034
3.05672 10.7071
3.23527 15.1022
3.4138 18.5781
3.59237 22.8165
3.77094 26.1588
3.9495 29.5851
4.12809 34.52
4.30669 119.182
4.4853 56.0868
4.6639 55.976
4.84253 68.0122
5.02118 88.6317
5.19981 473.657
5.37848 199.424
5.55716 102.819
5.73586 93.8839
5.91455 97.1377
6.09328 4404.25
6.27201 81.8338
6.45075 68.7716
6.62952 62.373
6.8083 58.9041
6.98711 55.5483
7.16591 55.6734
7.34475 71.3826
7.5236 54.5224
7.70247 56.488
7.88135 57.8288
8.06026 62.8033
8.23919 69.7594
8.41812 85.1625
8.59709 1259.46
8.77609 99.6948
8.9551 89.7368
9.13412 82.8333
9.31318 84.6482
9.49226 85.1583
9.67134 95.4014
9.85047 101.591
10.0296 380.425
10.2088 372.097
10.388 106.802
10.5672 517.82
10.7465 86.6707
10.9257 78.0835
11.105 72.1287
11.2844 69.1024
11.4637 65.2539
11.6431 63.8526
11.8225 62.5817
12.002 64.9316
12.1814 155.578
12.3609 67.7786
12.5405 64.9474
12.72 68.8245
12.8996 71.737
13.0792 81.252
13.2589 252.465
13.4386 121.856
13.6183 253.955
13.7981 96.4176
13.9779 76.1812
14.1577 72.4628
14.3376 70.9096
14.5175 69.2697
14.6974 71.5132
14.8774 116.07
15.0574 143.414
15.2374 70.1562
15.4175 66.4997
15.5976 66.5854
15.7778 99.0603
15.958 150.325
16.1382 61.8606
16.3185 58.2905
16.4988 55.9308
16.6792 54.8833
16.8596 55.2062
17.04 56.5321
17.2205 67.6953
17.401 70.6216
17.5815 59.5695
17.7622 61.9854
17.9428 75.7326
18.1237 141.11
18.3044 91.8256
18.4852 77.033
18.666 60.5661
18.8469 58.3316
19.0278 57.3505
19.2088 59.8882
19.3898 76.0259
19.5709 54.5503
19.752 53.6263
19.9332 56.9079
20.1144 70.1264
20.2957 64.1881
20.477 53.318
20.6586 49.8212
20.84 49.1923
21.0215 48.9793
21.203 51.1659
21.3846 49.069
21.5662 49.2631
21.7479 53.4355
21.9297 64.9156
22.1115 56.2495
22.2933 49.9933
22.4753 49.0978
22.6572 49.4515
22.8393 52.6221
23.0214 57.3655
23.2037 49.1385
23.3859 50.2065
23.5682 57.1912
23.7505 48.4468
23.9329 45.3735
24.1154 44.3361
24.2979 43.6163
24.4805 43.2359
24.6631 43.0419
24.8458 42.3534
25.0286 43.1972
25.2114 45.0529
25.3943 44.927
25.5773 41.2209
25.7605 40.6792
25.9436 41.1324
26.1268 42.0178
26.31 40.2974
26.4933 41.0158
26.6767 42.396
26.8601 40.545
27.0437 39.1689
27.2272 38.7183
27.4109 38.684
27.5946 38.5531
27.7784 38.0758
27.9623 38.7032
28.1462 39.1408
28.3304 37.4132
28.5145 36.1917
28.6987 35.7895
28.8829 35.6742
29.0673 34.9524
29.2517 34.58
29.4361 34.335
29.6207 33.4515
29.8053 33.0183
29.99 32.7544
30.1748 32.5865
30.3597 32.4954
30.5447 32.3281
30.7297 32.3961
30.915 31.8251
31.1002 31.3425
31.2855 30.9956
31.4708 31.0557
31.6563 30.6083
31.8418 30.4016
32.0275 30.0576
32.2132 29.5545
32.399 29.0562
32.5848 28.7103
32.7708 28.3308
32.9569 28.194
33.143 28.0083
33.3293 27.5316
33.5158 27.2113
33.7022 26.8121
33.8887 26.4897
34.0753 26.1169
34.262 25.7479
34.4488 25.5143
34.6357 25.1034
34.8227 24.8439
35.0098 24.6256
35.1969 24.3185
35.3842 24.1152
35.5716 23.8853
35.759 23.5721
35.9468 23.3034
36.1345 23.0209
36.3222 22.7887
36.5101 22.4775
36.6981 22.2617
36.8861 21.888
37.0743 21.6379
37.2626 21.3496
37.451 21.0487
37.6395 20.9276
37.8281 20.5988
38.0168 20.3748
38.2056 20.0912
38.3945 19.7915
38.5837 19.617
38.7728 19.2665
38.9621 19.0452
39.1514 18.8529
39.3409 18.559
39.5304 18.3612
39.7201 18.1323
39.9099 17.9267
40.0999 17.6438
40.2899 17.4693
40.48 17.25
40.6703 17.045
40.8607 16.8199
41.0512 16.6292
41.242 16.3474
41.4327 16.1228
41.6236 15.9018
41.8146 15.7545
42.0057 15.5387
42.1969 15.2469
42.3882 15.1661
42.5797 14.8657
42.7713 14.7065
42.963 14.4959
43.1549 14.3055
43.3468 14.0488
43.5389 13.8734
43.7312 13.7353
43.9237 13.5239
44.1162 13.3499
44.3088 13.1237
44.5016 12.9634
44.6945 12.8364
44.8875 12.6012
45.0806 12.4316
45.2739 12.3081
45.4673 12.1092
45.6609 11.8901
45.8546 11.768
46.0484 11.6156
46.2424 11.404
46.4365 11.2524
46.631 11.0964
46.8254 10.8684
47.0199 10.7387
47.2146 10.627
47.4095 10.4468
47.6044 10.2743
47.7996 10.1016
47.9948 9.98178
48.1902 9.83671
48.3858 9.70638
48.5815 9.54614
48.7774 9.46651
48.9734 9.27614
49.1696 9.12658
49.3661 9.01421
49.5626 8.87939
49.7592 8.76329
49.956 8.59339
50.153 8.46132
50.3501 8.34864
50.5474 8.21808
50.7448 8.05746
50.9424 7.95294
51.1402 7.81903
51.3381 7.68101
51.5362 7.6174
51.7344 7.45643
51.9328 7.32104
52.1316 7.21233
52.3304 7.10508
52.5293 6.98215
52.7284 6.88784
52.9276 6.80859
53.1271 6.66653
53.3267 6.53749
53.5265 6.42439
53.7264 6.32138
53.9266 6.15161
54.1269 6.08536
54.3274 5.98446
54.528 5.80274
54.7289 5.69419
54.9301 5.50685
55.1314 5.3591
55.3328 5.13106
55.5344 5.02194
55.7361 4.83807