Folder: NiFe_MOF_catalyst_paper/XRD (part 112)

File: Ni3Fe_FD0607.xy
TT I
1.27165 7.72624
1.45013 6.51023
1.62863 5.29924
1.80712 4.96167
1.98562 4.91693
2.16411 4.91428
2.34263 5.90796
2.52115 6.32327
2.69965 8.52861
2.87818 9.02374
3.05672 11.0329
3.23527 15.4006
3.4138 18.8865
3.59237 23.2773
3.77094 26.1039
3.9495 29.9525
4.12809 34.4251
4.30669 169.523
4.4853 61.1054
4.6639 55.7809
4.84253 67.8561
5.02118 87.8745
5.19981 381.634
5.37848 196.271
5.55716 103.883
5.73586 93.4297
5.91455 95.9205
6.09328 4284.06
6.27201 83.2732
6.45075 67.7765
6.62952 63.0594
6.8083 59.1329
6.98711 55.8773
7.16591 55.5935
7.34475 82.048
7.5236 55.1965
7.70247 56.5834
7.88135 58.1777
8.06026 62.7135
8.23919 69.7445
8.41812 85.7661
8.59709 1224.83
8.77609 100.558
8.9551 90.5064
9.13412 82.6853
9.31318 83.4648
9.49226 85.4007
9.67134 97.3074
9.85047 101.088
10.0296 360.713
10.2088 415.451
10.388 105.217
10.5672 504.974
10.7465 87.2557
10.9257 78.7386
11.105 72.2162
11.2844 70.1326
11.4637 65.4822
11.6431 64.0849
11.8225 63.0058
12.002 63.9477
12.1814 154.325
12.3609 70.1688
12.5405 64.695
12.72 69.5095
12.8996 71.4039
13.0792 79.5891
13.2589 248.096
13.4386 128.94
13.6183 252.246
13.7981 100.71
13.9779 76.486
14.1577 72.8606
14.3376 71.8451
14.5175 69.3705
14.6974 70.9708
14.8774 113.961
15.0574 151.038
15.2374 71.1582
15.4175 66.8366
15.5976 66.294
15.7778 97.5504
15.958 154.839
16.1382 62.6321
16.3185 58.9573
16.4988 56.0176
16.6792 55.0557
16.8596 55.5471
17.04 56.4021
17.2205 67.555
17.401 72.7194
17.5815 59.6979
17.7622 61.6709
17.9428 74.6759
18.1237 137.848
18.3044 92.0783
18.4852 79.4438
18.666 61.1059
18.8469 58.2486
19.0278 57.2826
19.2088 60.0413
19.3898 75.9603
19.5709 54.8201
19.752 53.8053
19.9332 56.9212
20.1144 69.5239
20.2957 63.9953
20.477 54.1764
20.6586 50.0258
20.84 49.2375
21.0215 48.9724
21.203 51.1257
21.3846 49.442
21.5662 49.0947
21.7479 53.1626
21.9297 64.3664
22.1115 56.329
22.2933 50.253
22.4753 49.2005
22.6572 49.2833
22.8393 52.426
23.0214 57.285
23.2037 49.0852
23.3859 50.2149
23.5682 56.8932
23.7505 48.9983
23.9329 45.5147
24.1154 44.3984
24.2979 43.7608
24.4805 43.2967
24.6631 43.1053
24.8458 42.3779
25.0286 43.1774
25.2114 45.1306
25.3943 44.7532
25.5773 41.2132
25.7605 40.6593
25.9436 41.1456
26.1268 41.9696
26.31 40.3209
26.4933 41.0197
26.6767 42.3772
26.8601 40.7388
27.0437 39.0875
27.2272 38.7543
27.4109 38.8544
27.5946 38.6326
27.7784 38.1374
27.9623 38.7091
28.1462 39.1066
28.3304 37.371
28.5145 36.28
28.6987 35.8974
28.8829 35.5958
29.0673 34.8933
29.2517 34.5489
29.4361 34.3642
29.6207 33.4719
29.8053 33.0317
29.99 32.7761
30.1748 32.6072
30.3597 32.4741
30.5447 32.4817
30.7297 32.3911
30.915 31.7505
31.1002 31.3378
31.2855 31.1554
31.4708 30.9725
31.6563 30.5678
31.8418 30.4203
32.0275 30.2404
32.2132 29.6411
32.399 29.1786
32.5848 28.7088
32.7708 28.3575
32.9569 28.191
33.143 28.0353
33.3293 27.5855
33.5158 27.1628
33.7022 26.8858
33.8887 26.5225
34.0753 26.2625
34.262 25.796
34.4488 25.448
34.6357 25.1085
34.8227 24.8887
35.0098 24.6103
35.1969 24.4006
35.3842 24.1781
35.5716 23.9785
35.759 23.684
35.9468 23.296
36.1345 22.9863
36.3222 22.8389
36.5101 22.6883
36.6981 22.2922
36.8861 22.0181
37.0743 21.6663
37.2626 21.4425
37.451 21.123
37.6395 20.9602
37.8281 20.5962
38.0168 20.3499
38.2056 20.116
38.3945 19.7611
38.5837 19.5569
38.7728 19.3269
38.9621 19.0471
39.1514 18.8595
39.3409 18.5591
39.5304 18.3902
39.7201 18.1589
39.9099 17.9507
40.0999 17.6975
40.2899 17.5452
40.48 17.2583
40.6703 17.0294
40.8607 16.8718
41.0512 16.6122
41.242 16.3352
41.4327 16.1581
41.6236 15.9598
41.8146 15.7719
42.0057 15.5202
42.1969 15.319
42.3882 15.1217
42.5797 14.9214
42.7713 14.737
42.963 14.4775
43.1549 14.3147
43.3468 14.1161
43.5389 13.9344
43.7312 13.7549
43.9237 13.5759
44.1162 13.3693
44.3088 13.1889
44.5016 13.0224
44.6945 12.7943
44.8875 12.6316
45.0806 12.4255
45.2739 12.2887
45.4673 12.1088
45.6609 11.9117
45.8546 11.7698
46.0484 11.6033
46.2424 11.4266
46.4365 11.3044
46.631 11.0953
46.8254 10.9281
47.0199 10.7666
47.2146 10.6593
47.4095 10.4762
47.6044 10.3176
47.7996 10.1621
47.9948 10.0072
48.1902 9.87243
48.3858 9.7543
48.5815 9.56391
48.7774 9.46423
48.9734 9.31922
49.1696 9.16166
49.3661 9.03448
49.5626 8.86823
49.7592 8.75632
49.956 8.65096
50.153 8.49617
50.3501 8.35118
50.5474 8.24955
50.7448 8.11595
50.9424 7.97941
51.1402 7.84202
51.3381 7.70708
51.5362 7.61325
51.7344 7.49883
51.9328 7.33499
52.1316 7.18579
52.3304 7.10771
52.5293 6.9788
52.7284 6.91071
52.9276 6.80134
53.1271 6.65275
53.3267 6.5359
53.5265 6.4251
53.7264 6.31041
53.9266 6.18363
54.1269 6.08818
54.3274 6.00198
54.528 5.7893
54.7289 5.66972
54.9301 5.50544
55.1314 5.34476
55.3328 5.15133
55.5344 4.96825
55.7361 4.80309

File: Ni3Fe_FD0608.xy
TT I
1.27165 7.64534
1.45013 5.95789
1.62863 6.0249
1.80712 4.77894
1.98562 5.02687
2.16411 4.63815
2.34263 5.4134
2.52115 6.47106
2.69965 8.16609
2.87818 9.04089
3.05672 11.935
3.23527 15.1179
3.4138 18.8003
3.59237 24.0126
3.77094 26.2087
3.9495 29.9763
4.12809 34.9922
4.30669 174.389
4.4853 61.8992
4.6639 56.425
4.84253 68.3154
5.02118 87.9198
5.19981 380.244
5.37848 195.614
5.55716 103.278
5.73586 93.2607
5.91455 95.5249
6.09328 4294.75
6.27201 83.6309
6.45075 67.9217
6.62952 63.0334
6.8083 58.7676
6.98711 56.4067
7.16591 55.5309
7.34475 82.634
7.5236 55.1826
7.70247 56.6876
7.88135 58.1719
8.06026 63.0156
8.23919 69.9442
8.41812 85.9018
8.59709 1227.01
8.77609 100.568
8.9551 91.1923
9.13412 82.6484
9.31318 83.3742
9.49226 85.6074
9.67134 97.7651
9.85047 100.892
10.0296 359.842
10.2088 413.752
10.388 105.732
10.5672 510.755
10.7465 87.41
10.9257 78.8685
11.105 72.3259
11.2844 70.6077
11.4637 65.6069
11.6431 64.0832
11.8225 63.0514
12.002 64.0831
12.1814 154.64
12.3609 69.98
12.5405 65.0521
12.72 69.7301
12.8996 71.6168
13.0792 79.8987
13.2589 247.961
13.4386 128.398
13.6183 252.717
13.7981 100.056
13.9779 76.6594
14.1577 72.9835
14.3376 71.9151
14.5175 69.6733
14.6974 71.1414
14.8774 113.92
15.0574 150.836
15.2374 71.1471
15.4175 67.216
15.5976 66.3606
15.7778 97.0671
15.958 154.198
16.1382 62.6488
16.3185 58.949
16.4988 56.0169
16.6792 55.0492
16.8596 55.7042
17.04 56.3074
17.2205 67.7248
17.401 72.5691
17.5815 59.8906
17.7622 61.8905
17.9428 74.7654
18.1237 138.276
18.3044 92.2137
18.4852 79.0022
18.666 60.9901
18.8469 58.6084
19.0278 57.2732
19.2088 60.0859
19.3898 75.8069
19.5709 54.6082
19.752 53.7642
19.9332 56.8804
20.1144 69.7505
20.2957 64.0725
20.477 54.2422
20.6586 50.2107
20.84 49.3763
21.0215 49.0048
21.203 51.1232
21.3846 49.3921
21.5662 48.9181
21.7479 53.2681
21.9297 64.2513
22.1115 56.3648
22.2933 50.1368
22.4753 49.3805
22.6572 49.2163
22.8393 52.333
23.0214 57.5345
23.2037 49.1522
23.3859 50.2168
23.5682 56.9625
23.7505 48.8604
23.9329 45.5957
24.1154 44.522
24.2979 43.7691
24.4805 43.0712
24.6631 43.2479
24.8458 42.5723
25.0286 43.2824
25.2114 44.8541
25.3943 44.661
25.5773 41.1594
25.7605 40.7851
25.9436 41.205
26.1268 41.9081
26.31 40.3598
26.4933 41.0645
26.6767 42.1994
26.8601 40.7356
27.0437 39.0491
27.2272 38.8278
27.4109 38.6608
27.5946 38.6185
27.7784 38.2104
27.9623 38.6695
28.1462 39.0617
28.3304 37.4672
28.5145 36.1828
28.6987 35.8941
28.8829 35.6905
29.0673 34.9387
29.2517 34.5919
29.4361 34.3785
29.6207 33.4569
29.8053 33.2249
29.99 32.8192
30.1748 32.7264
30.3597 32.5155
30.5447 32.4042
30.7297 32.3941
30.915 31.8675
31.1002 31.319
31.2855 31.1226
31.4708 30.8885
31.6563 30.6632
31.8418 30.443
32.0275 30.0998
32.2132 29.5992
32.399 29.1169
32.5848 28.7289
32.7708 28.382
32.9569 28.2375
33.143 27.9634
33.3293 27.6042
33.5158 27.2263
33.7022 26.8083
33.8887 26.4917
34.0753 26.1564
34.262 25.852
34.4488 25.4377
34.6357 25.1084
34.8227 24.9032
35.0098 24.5524
35.1969 24.3836
35.3842 24.2225
35.5716 23.8927
35.759 23.6164
35.9468 23.2778
36.1345 23.0696
36.3222 22.8147
36.5101 22.5961
36.6981 22.2951
36.8861 21.9978
37.0743 21.6198
37.2626 21.389
37.451 21.1381
37.6395 20.9698
37.8281 20.6494
38.0168 20.3502
38.2056 20.0888
38.3945 19.86
38.5837 19.5897
38.7728 19.3491
38.9621 19.1353
39.1514 18.8474
39.3409 18.5803
39.5304 18.4209
39.7201 18.1731
39.9099 17.9664
40.0999 17.7649
40.2899 17.4737
40.48 17.3045
40.6703 17.0101
40.8607 16.8445
41.0512 16.578
41.242 16.3776
41.4327 16.2346
41.6236 15.9928
41.8146 15.7545
42.0057 15.4607
42.1969 15.3239
42.3882 15.18
42.5797 14.9504
42.7713 14.7072
42.963 14.5484
43.1549 14.3415
43.3468 14.0842
43.5389 13.9643
43.7312 13.7112
43.9237 13.5514
44.1162 13.3304
44.3088 13.165
44.5016 12.953
44.6945 12.7761
44.8875 12.6743
45.0806 12.4987
45.2739 12.3268
45.4673 12.1379
45.6609 11.9163
45.8546 11.7364
46.0484 11.6298
46.2424 11.4349
46.4365 11.273
46.631 11.074
46.8254 10.9327
47.0199 10.774
47.2146 10.6088
47.4095 10.4819
47.6044 10.3179
47.7996 10.1786
47.9948 10.0206
48.1902 9.88672
48.3858 9.69799
48.5815 9.59914
48.7774 9.46008
48.9734 9.3197
49.1696 9.16273
49.3661 9.03432
49.5626 8.87191
49.7592 8.78053
49.956 8.61705
50.153 8.48343
50.3501 8.38746
50.5474 8.25027
50.7448 8.12276
50.9424 7.98774
51.1402 7.88165
51.3381 7.68526
51.5362 7.59777
51.7344 7.51323
51.9328 7.34425
52.1316 7.21161
52.3304 7.12287
52.5293 6.99608
52.7284 6.88021
52.9276 6.79271
53.1271 6.65297
53.3267 6.52594
53.5265 6.4072
53.7264 6.32866
53.9266 6.20431
54.1269 6.04824
54.3274 5.96206
54.528 5.83262
54.7289 5.6741
54.9301 5.51092
55.1314 5.39161
55.3328 5.21291
55.5344 5.02292
55.7361 4.89706

File: Ni3Fe_FD0609.xy
TT I
1.27165 7.12358
1.45013 6.41089
1.62863 5.14342
1.80712 4.76465
1.98562 4.5114
2.16411 4.819
2.34263 4.71636
2.52115 7.33254
2.69965 7.99586
2.87818 8.46902
3.05672 11.2366
3.23527 15.1143
3.4138 18.8043
3.59237 23.8327
3.77094 26.6454
3.9495 30.1223
4.12809 35.1171
4.30669 179.008
4.4853 62.3723
4.6639 55.7872
4.84253 67.6933
5.02118 87.3214
5.19981 372.035
5.37848 195.744
5.55716 103.291
5.73586 93.1767
5.91455 95.6173
6.09328 4303.04
6.27201 82.8497
6.45075 67.7749
6.62952 62.69
6.8083 58.657
6.98711 55.6996
7.16591 55.3142
7.34475 84.286
7.5236 55.05
7.70247 56.3846
7.88135 58.4271
8.06026 62.443
8.23919 69.6866
8.41812 85.6327
8.59709 1221.16
8.77609 100.495
8.9551 91.2182
9.13412 82.1365
9.31318 83.286
9.49226 84.7942
9.67134 97.5809
9.85047 100.62
10.0296 356.534
10.2088 417.593
10.388 105.194
10.5672 503.294
10.7465 87.0524
10.9257 78.4211
11.105 72.1206
11.2844 70.1606
11.4637 65.5122
11.6431 64.0201
11.8225 62.9672
12.002 64.1205
12.1814 154.186
12.3609 70.0815
12.5405 64.8709
12.72 69.754
12.8996 71.3115
13.0792 79.7845
13.2589 245.837
13.4386 128.736
13.6183 252.397
13.7981 100.576
13.9779 76.4363
14.1577 72.8848
14.3376 71.8513
14.5175 69.387
14.6974 70.8315
14.8774 113.445
15.0574 152.46
15.2374 71.1549
15.4175 66.8616
15.5976 66.2542
15.7778 96.8106
15.958 155.243
16.1382 62.8341
16.3185 58.9408
16.4988 55.8989
16.6792 54.8681
16.8596 55.6296
17.04 56.397
17.2205 67.4146
17.401 72.906
17.5815 59.6158
17.7622 61.6464
17.9428 74.749
18.1237 137.999
18.3044 91.7284
18.4852 79.4714
18.666 60.8946
18.8469 58.4429
19.0278 57.3713
19.2088 59.997
19.3898 75.9404
19.5709 54.6362
19.752 53.6457
19.9332 56.8403
20.1144 69.5218
20.2957 64.0852
20.477 54.2628
20.6586 50.1501
20.84 49.0939
21.0215 48.8633
21.203 51.1846
21.3846 49.3685
21.5662 49.0203
21.7479 53.0763
21.9297 64.3828
22.1115 56.3738
22.2933 50.4304
22.4753 49.0364
22.6572 49.2306
22.8393 52.287
23.0214 57.5458
23.2037 49.0462
23.3859 50.1179
23.5682 56.9138
23.7505 48.7143
23.9329 45.466
24.1154 44.4221
24.2979 43.6523
24.4805 43.1709
24.6631 43.0446
24.8458 42.5485
25.0286 43.0502
25.2114 45.1187
25.3943 44.7889
25.5773 41.2442
25.7605 40.8469
25.9436 41.1097
26.1268 41.9217
26.31 40.4198
26.4933 41.0964
26.6767 42.3175
26.8601 40.6914
27.0437 39.1079
27.2272 38.6944
27.4109 38.6688
27.5946 38.6124
27.7784 38.1574
27.9623 38.7185
28.1462 39.0261
28.3304 37.4556
28.5145 36.2262
28.6987 35.8971
28.8829 35.6916
29.0673 34.8496
29.2517 34.6595
29.4361 34.4125
29.6207 33.3487
29.8053 33.1015
29.99 32.8463
30.1748 32.6482
30.3597 32.4749
30.5447 32.4724
30.7297 32.4332
30.915 31.8357
31.1002 31.3609
31.2855 31.12
31.4708 30.9899
31.6563 30.6567
31.8418 30.4104
32.0275 30.1498
32.2132 29.5492
32.399 29.1867
32.5848 28.6821
32.7708 28.2981
32.9569 28.1475
33.143 27.9709
33.3293 27.4815
33.5158 27.2862
33.7022 26.8551
33.8887 26.4588
34.0753 26.1662
34.262 25.8858
34.4488 25.4281
34.6357 25.1374
34.8227 24.9136
35.0098 24.6378
35.1969 24.4285
35.3842 24.2026
35.5716 23.8754
35.759 23.6885
35.9468 23.2519
36.1345 23.056
36.3222 22.8067
36.5101 22.5555
36.6981 22.3028
36.8861 21.8932
37.0743 21.5766
37.2626 21.4847
37.451 21.1658
37.6395 20.9626
37.8281 20.5919
38.0168 20.3144
38.2056 20.0632
38.3945 19.8267
38.5837 19.5004
38.7728 19.304
38.9621 19.1733
39.1514 18.8182
39.3409 18.5949
39.5304 18.3962
39.7201 18.1895
39.9099 18.0058
40.0999 17.6615
40.2899 17.4232
40.48 17.2448
40.6703 17.0188
40.8607 16.8215
41.0512 16.5768
41.242 16.3554
41.4327 16.1499
41.6236 15.9497
41.8146 15.6776
42.0057 15.49
42.1969 15.3389
42.3882 15.1299
42.5797 14.9347
42.7713 14.7619
42.963 14.5296
43.1549 14.2876
43.3468 14.1244
43.5389 13.9275
43.7312 13.7298
43.9237 13.5293
44.1162 13.363
44.3088 13.1598
44.5016 12.9355
44.6945 12.7881
44.8875 12.6186
45.0806 12.4484
45.2739 12.2558
45.4673 12.1293
45.6609 11.9108
45.8546 11.7601
46.0484 11.6331
46.2424 11.4181
46.4365 11.2805
46.631 11.1238
46.8254 10.9385
47.0199 10.7763
47.2146 10.6157
47.4095 10.5032
47.6044 10.3068
47.7996 10.1651
47.9948 9.96373
48.1902 9.85036
48.3858 9.74006
48.5815 9.60092
48.7774 9.48961
48.9734 9.3003
49.1696 9.18344
49.3661 9.00663
49.5626 8.86449
49.7592 8.73868
49.956 8.60617
50.153 8.48735
50.3501 8.35941
50.5474 8.1957
50.7448 8.11285
50.9424 7.99161
51.1402 7.82374
51.3381 7.68602
51.5362 7.58896
51.7344 7.48961
51.9328 7.3368
52.1316 7.22791
52.3304 7.12362
52.5293 7.01094
52.7284 6.8927
52.9276 6.7314
53.1271 6.65091
53.3267 6.54698
53.5265 6.41784
53.7264 6.32563
53.9266 6.20976
54.1269 6.11716
54.3274 6.01284
54.528 5.87213
54.7289 5.69634
54.9301 5.51651
55.1314 5.38311
55.3328 5.23688
55.5344 4.99767
55.7361 4.90882

File: Ni3Fe_FD0610.xy
TT I
1.27165 7.16023
1.45013 6.13264
1.62863 5.30241
1.80712 5.13812
1.98562 4.55744
2.16411 4.96038
2.34263 5.3295
2.52115 6.23582
2.69965 8.29165
2.87818 8.5606
3.05672 11.1711
3.23527 15.2675
3.4138 18.9059
3.59237 24.2715
3.77094 26.4895
3.9495 29.591
4.12809 34.9285
4.30669 183.429
4.4853 62.5497
4.6639 55.7
4.84253 67.775
5.02118 87.602
5.19981 367.438
5.37848 196.13
5.55716 103.33
5.73586 92.8281
5.91455 95.3532
6.09328 4355.63
6.27201 83.1441
6.45075 67.8059
6.62952 63.2778
6.8083 58.5828
6.98711 56.324
7.16591 55.2403
7.34475 85.3201
7.5236 55.0353
7.70247 56.2118
7.88135 58.248
8.06026 62.5786
8.23919 69.8561
8.41812 85.3169
8.59709 1212.16
8.77609 100.526
8.9551 90.9195
9.13412 82.5932
9.31318 83.0081
9.49226 85.2228
9.67134 97.9398
9.85047 100.493
10.0296 351.398
10.2088 419.5
10.388 105.388
10.5672 504.579
10.7465 87.2548
10.9257 78.6239
11.105 72.3172
11.2844 70.386
11.4637 65.2602
11.6431 63.9659
11.8225 62.8199
12.002 64.0963
12.1814 154.49
12.3609 70.2404
12.5405 64.7363
12.72 69.7819
12.8996 71.2711
13.0792 79.235
13.2589 244.2
13.4386 128.861
13.6183 250.307
13.7981 100.637
13.9779 76.3157
14.1577 72.8758
14.3376 71.8092
14.5175 69.384
14.6974 70.6015
14.8774 112.976
15.0574 153.146
15.2374 71.1471
15.4175 66.7738
15.5976 66.0826
15.7778 96.7272
15.958 155.436
16.1382 62.8799
16.3185 58.849
16.4988 55.8814
16.6792 54.8393
16.8596 55.456
17.04 56.1979
17.2205 67.1798
17.401 72.8479
17.5815 59.5288
17.7622 61.813
17.9428 74.3593
18.1237 138.352
18.3044 91.4277
18.4852 79.4065
18.666 61.0512
18.8469 58.3641
19.0278 57.2942
19.2088 59.9006
19.3898 76.1824
19.5709 54.6591
19.752 53.7522
19.9332 56.5839
20.1144 69.7412
20.2957 64.2755
20.477 54.2296
20.6586 50.0196
20.84 49.0659
21.0215 48.7863
21.203 50.9526
21.3846 49.2419
21.5662 49.0477
21.7479 53.1214
21.9297 64.3831
22.1115 56.3661
22.2933 50.2566
22.4753 49.1448
22.6572 48.8828
22.8393 52.4087
23.0214 57.4306
23.2037 49.0386
23.3859 49.9955
23.5682 57.0942
23.7505 48.7127
23.9329 45.604
24.1154 44.3942
24.2979 43.8245
24.4805 43.1981
24.6631 43.0145
24.8458 42.5138
25.0286 43.1451
25.2114 44.8868
25.3943 44.8762
25.5773 41.2218
25.7605 40.5482
25.9436 41.178
26.1268 41.8453
26.31 40.4272
26.4933 41.0376
26.6767 42.3477
26.8601 40.685
27.0437 39.0724
27.2272 38.6936
27.4109 38.6418
27.5946 38.6382
27.7784 38.2028
27.9623 38.6415
28.1462 39.0121
28.3304 37.3345
28.5145 36.0929
28.6987 35.7802
28.8829 35.6361
29.0673 34.8444
29.2517 34.5424
29.4361 34.3723
29.6207 33.3938
29.8053 33.1926
29.99 32.7887
30.1748 32.6257
30.3597 32.4211
30.5447 32.3886
30.7297 32.2893
30.915 31.8718
31.1002 31.2569
31.2855 31.1468
31.4708 30.9668
31.6563 30.5606
31.8418 30.3627
32.0275 30.1088
32.2132 29.6251
32.399 29.2202
32.5848 28.5899
32.7708 28.351
32.9569 28.2138
33.143 27.9447
33.3293 27.524
33.5158 27.2667
33.7022 26.7155
33.8887 26.5464
34.0753 26.2723
34.262 25.8615
34.4488 25.4845
34.6357 25.1572
34.8227 24.8667
35.0098 24.6481
35.1969 24.3812
35.3842 24.1693
35.5716 23.9434
35.759 23.6005
35.9468 23.2239
36.1345 23.0565
36.3222 22.8105
36.5101 22.5565
36.6981 22.3373
36.8861 21.9391
37.0743 21.7022
37.2626 21.3631
37.451 21.1053
37.6395 20.91
37.8281 20.6289
38.0168 20.3318
38.2056 20.1373
38.3945 19.7598
38.5837 19.5907
38.7728 19.3667
38.9621 19.0913
39.1514 18.8646
39.3409 18.5609
39.5304 18.3835
39.7201 18.23
39.9099 18.0037
40.0999 17.6865
40.2899 17.4931
40.48 17.2378
40.6703 17.0538
40.8607 16.8569
41.0512 16.6462
41.242 16.3458
41.4327 16.1302
41.6236 15.9538
41.8146 15.729
42.0057 15.4865
42.1969 15.2887
42.3882 15.0955
42.5797 14.8868
42.7713 14.7854
42.963 14.5017
43.1549 14.3031
43.3468 14.0724
43.5389 13.9071
43.7312 13.6924
43.9237 13.5539
44.1162 13.3464
44.3088 13.1764
44.5016 12.9648
44.6945 12.7929
44.8875 12.5768
45.0806 12.4566
45.2739 12.2688
45.4673 12.1546
45.6609 11.9529
45.8546 11.7526
46.0484 11.6422
46.2424 11.4436
46.4365 11.2893
46.631 11.0729
46.8254 10.8968
47.0199 10.754
47.2146 10.6144
47.4095 10.4585
47.6044 10.3303
47.7996 10.1404
47.9948 9.97292
48.1902 9.8608
48.3858 9.70609
48.5815 9.59212
48.7774 9.46795
48.9734 9.30262
49.1696 9.1423
49.3661 8.96301
49.5626 8.85
49.7592 8.75504
49.956 8.6034
50.153 8.45317
50.3501 8.31382
50.5474 8.24187
50.7448 8.11517
50.9424 7.97484
51.1402 7.81937
51.3381 7.73153
51.5362 7.60914
51.7344 7.47434
51.9328 7.35054
52.1316 7.22565
52.3304 7.12586
52.5293 6.98323
52.7284 6.9292
52.9276 6.75689
53.1271 6.66576
53.3267 6.54359
53.5265 6.40805
53.7264 6.29786
53.9266 6.18777
54.1269 6.07867
54.3274 5.98675
54.528 5.81966
54.7289 5.6694
54.9301 5.50827
55.1314 5.43216
55.3328 5.1729
55.5344 4.96614
55.7361 4.82639

File: Ni3Fe_FD0611.xy
TT I
1.27165 6.75343
1.45013 6.66299
1.62863 5.9353
1.80712 5.36123
1.98562 4.79887
2.16411 5.26362
2.34263 5.51566
2.52115 7.1457
2.69965 7.96813
2.87818 8.42419
3.05672 10.8628
3.23527 14.8297
3.4138 18.7463
3.59237 24.1559
3.77094 26.4395
3.9495 30.0229
4.12809 35.4274
4.30669 185.369
4.4853 62.5951
4.6639 55.8648
4.84253 67.8533
5.02118 87.9651
5.19981 369.551
5.37848 194.21
5.55716 102.995
5.73586 93.0664
5.91455 95.4361
6.09328 4369.63
6.27201 83.4201
6.45075 67.9477
6.62952 63.1966
6.8083 59.1702
6.98711 56.0175
7.16591 55.5792
7.34475 85.2655
7.5236 55.1729
7.70247 56.3439
7.88135 58.4256
8.06026 62.6844
8.23919 69.8998
8.41812 85.6424
8.59709 1224.11
8.77609 100.822
8.9551 91.0729
9.13412 82.5983
9.31318 83.1096
9.49226 85.4771
9.67134 98.1875
9.85047 100.839
10.0296 353.453
10.2088 409.522
10.388 105.425
10.5672 506.04
10.7465 87.2861
10.9257 78.8916
11.105 72.5784
11.2844 70.4914
11.4637 65.3584
11.6431 64.257
11.8225 62.8506
12.002 64.073
12.1814 154.628
12.3609 70.5974
12.5405 65.0559
12.72 69.9255
12.8996 71.6316
13.0792 79.7975
13.2589 246.35
13.4386 127.585
13.6183 252.705
13.7981 99.9474
13.9779 76.3961
14.1577 73.2725
14.3376 72.0272
14.5175 69.2055
14.6974 70.8892
14.8774 113.214
15.0574 150.729
15.2374 71.3615
15.4175 66.9703
15.5976 66.4347
15.7778 96.9666
15.958 154.006
16.1382 62.9997
16.3185 59.1275
16.4988 56.002
16.6792 55.0111
16.8596 55.6392
17.04 56.282
17.2205 67.3983
17.401 72.3501
17.5815 59.7141
17.7622 61.7346
17.9428 74.5414
18.1237 137.854
18.3044 91.8896
18.4852 78.7674
18.666 60.9394
18.8469 58.4319
19.0278 57.4026
19.2088 60.0048
19.3898 76.0117
19.5709 54.6826
19.752 53.6104
19.9332 56.6728
20.1144 69.4296
20.2957 64.1434
20.477 54.2466
20.6586 50.2294
20.84 49.2707
21.0215 49.011
21.203 51.3072
21.3846 49.2727
21.5662 49.056
21.7479 52.942
21.9297 64.3814
22.1115 56.2748
22.2933 50.1387
22.4753 49.1422
22.6572 49.123
22.8393 52.342
23.0214 57.5143
23.2037 49.1811
23.3859 50.0855
23.5682 57.0845
23.7505 48.6893
23.9329 45.5628
24.1154 44.4031
24.2979 43.8067
24.4805 43.2559
24.6631 43.0885
24.8458 42.5917
25.0286 43.1258
25.2114 44.9868
25.3943 44.7141
25.5773 41.2607
25.7605 40.624
25.9436 41.2105
26.1268 41.8916
26.31 40.3966
26.4933 41.003
26.6767 42.3466
26.8601 40.793
27.0437 39.1877
27.2272 38.7593
27.4109 38.6581
27.5946 38.5731
27.7784 38.1565
27.9623 38.5862
28.1462 39.199
28.3304 37.3988
28.5145 36.05
28.6987 35.8791
28.8829 35.5759
29.0673 34.9815
29.2517 34.5948
29.4361 34.3158
29.6207 33.3755
29.8053 33.1402
29.99 32.7766
30.1748 32.6671
30.3597 32.4163
30.5447 32.3885
30.7297 32.3832
30.915 31.9086
31.1002 31.4349
31.2855 30.9824
31.4708 31.0315
31.6563 30.6027
31.8418 30.3318
32.0275 30.1563
32.2132 29.5651
32.399 29.1334
32.5848 28.8118
32.7708 28.334
32.9569 28.1428
33.143 28.0054
33.3293 27.5377
33.5158 27.163
33.7022 26.7967
33.8887 26.4556
34.0753 26.1581
34.262 25.7643
34.4488 25.4577
34.6357 25.1615
34.8227 24.8261
35.0098 24.6803
35.1969 24.3519
35.3842 24.13
35.5716 23.9435
35.759 23.6382
35.9468 23.278
36.1345 23.0197
36.3222 22.826
36.5101 22.5648
36.6981 22.2816
36.8861 22.0181
37.0743 21.6224
37.2626 21.4617
37.451 21.1675
37.6395 20.9508
37.8281 20.6294
38.0168 20.3495
38.2056 20.0638
38.3945 19.8299
38.5837 19.5796
38.7728 19.3149
38.9621 19.0932
39.1514 18.8666
39.3409 18.5665
39.5304 18.3939
39.7201 18.157
39.9099 17.9354
40.0999 17.7259
40.2899 17.4738
40.48 17.2412
40.6703 17.0018
40.8607 16.8497
41.0512 16.6693
41.242 16.3488
41.4327 16.1403
41.6236 15.9462
41.8146 15.7379
42.0057 15.4757
42.1969 15.3261
42.3882 15.1647
42.5797 14.9463
42.7713 14.7241
42.963 14.5325
43.1549 14.3631
43.3468 14.0896
43.5389 13.954
43.7312 13.7432
43.9237 13.5383
44.1162 13.3763
44.3088 13.1671
44.5016 12.955
44.6945 12.8325
44.8875 12.6226
45.0806 12.4503
45.2739 12.266
45.4673 12.0967
45.6609 11.9625
45.8546 11.7774
46.0484 11.5844
46.2424 11.3932
46.4365 11.2844
46.631 11.1063
46.8254 10.934
47.0199 10.7739
47.2146 10.6148
47.4095 10.4405
47.6044 10.3548
47.7996 10.1256
47.9948 9.98586
48.1902 9.86498
48.3858 9.72489
48.5815 9.58073
48.7774 9.47008
48.9734 9.30157
49.1696 9.18249
49.3661 9.01733
49.5626 8.86509
49.7592 8.7945
49.956 8.60565
50.153 8.50291
50.3501 8.37085
50.5474 8.24076
50.7448 8.09908
50.9424 7.95539
51.1402 7.87271
51.3381 7.71748
51.5362 7.59361
51.7344 7.47414
51.9328 7.31724
52.1316 7.20814
52.3304 7.14216
52.5293 6.95557
52.7284 6.87123
52.9276 6.81262
53.1271 6.70169
53.3267 6.50589
53.5265 6.43398
53.7264 6.30103
53.9266 6.21811
54.1269 6.08745
54.3274 6.0196
54.528 5.84004
54.7289 5.71516
54.9301 5.50736
55.1314 5.42267
55.3328 5.16315
55.5344 5.01116
55.7361 4.83122