Folder: NiFe_MOF_catalyst_paper/XRD (part 172)

File: Ni3Fe_FD0934.xy
TT I
1.27165 7.07449
1.45013 6.02797
1.62863 6.02804
1.80712 4.66493
1.98562 4.98753
2.16411 4.80431
2.34263 5.9361
2.52115 7.59838
2.69965 8.59706
2.87818 9.10758
3.05672 10.7706
3.23527 15.1461
3.4138 18.7358
3.59237 23.3671
3.77094 25.6394
3.9495 29.3764
4.12809 34.0368
4.30669 91.9643
4.4853 52.3539
4.6639 55.3468
4.84253 67.7276
5.02118 86.3131
5.19981 369.821
5.37848 195.826
5.55716 101.01
5.73586 91.9402
5.91455 93.9229
6.09328 4657.2
6.27201 78.6898
6.45075 69.7927
6.62952 62.4451
6.8083 59.2488
6.98711 54.905
7.16591 55.978
7.34475 64.7174
7.5236 53.4342
7.70247 56.4021
7.88135 56.4851
8.06026 62.0048
8.23919 68.5313
8.41812 82.1516
8.59709 1204.73
8.77609 96.1884
8.9551 88.821
9.13412 82.2241
9.31318 84.2004
9.49226 83.5447
9.67134 94.7462
9.85047 100.579
10.0296 329.383
10.2088 325.759
10.388 103.333
10.5672 544.967
10.7465 84.9153
10.9257 76.9724
11.105 70.3651
11.2844 67.1767
11.4637 63.5535
11.6431 62.4384
11.8225 61.8921
12.002 63.6887
12.1814 158.784
12.3609 65.5521
12.5405 64.1731
12.72 66.769
12.8996 70.4601
13.0792 79.6762
13.2589 246.098
13.4386 114.247
13.6183 259.609
13.7981 91.7105
13.9779 74.6444
14.1577 70.5323
14.3376 68.8604
14.5175 68.0055
14.6974 69.4751
14.8774 110.451
15.0574 136.64
15.2374 68.1213
15.4175 65.4617
15.5976 64.8141
15.7778 94.0026
15.958 145.748
16.1382 60.1866
16.3185 56.7409
16.4988 54.4222
16.6792 53.5661
16.8596 54.0887
17.04 55.1911
17.2205 66.3603
17.401 67.5383
17.5815 58.3591
17.7622 60.3762
17.9428 72.1966
18.1237 140.798
18.3044 90.7188
18.4852 72.8329
18.666 59.4088
18.8469 57.059
19.0278 55.8711
19.2088 58.2797
19.3898 74.9908
19.5709 53.1757
19.752 52.4115
19.9332 55.4003
20.1144 69.4919
20.2957 64.1283
20.477 51.6196
20.6586 48.8552
20.84 48.0963
21.0215 47.6594
21.203 50.2563
21.3846 47.9748
21.5662 48.1528
21.7479 51.8549
21.9297 64.1595
22.1115 55.4119
22.2933 48.6626
22.4753 47.8927
22.6572 48.1205
22.8393 51.3258
23.0214 56.0234
23.2037 47.9649
23.3859 48.9424
23.5682 56.9941
23.7505 46.8789
23.9329 44.3964
24.1154 43.2671
24.2979 42.7531
24.4805 42.1576
24.6631 42.0563
24.8458 41.5173
25.0286 42.1512
25.2114 43.9465
25.3943 43.7455
25.5773 40.2682
25.7605 39.6846
25.9436 40.0907
26.1268 41.1657
26.31 39.3751
26.4933 40.1285
26.6767 41.5836
26.8601 39.8393
27.0437 38.2505
27.2272 37.8084
27.4109 37.7561
27.5946 37.6496
27.7784 37.3647
27.9623 37.9209
28.1462 38.0835
28.3304 36.4881
28.5145 35.201
28.6987 35.0836
28.8829 34.8616
29.0673 34.1266
29.2517 33.7995
29.4361 33.5431
29.6207 32.573
29.8053 32.3628
29.99 31.9952
30.1748 31.884
30.3597 31.7655
30.5447 31.6548
30.7297 31.6274
30.915 31.1437
31.1002 30.5034
31.2855 30.3791
31.4708 30.335
31.6563 29.8678
31.8418 29.628
32.0275 29.4093
32.2132 28.8434
32.399 28.4642
32.5848 27.9707
32.7708 27.6201
32.9569 27.5273
33.143 27.2801
33.3293 26.9318
33.5158 26.6147
33.7022 26.1208
33.8887 25.8118
34.0753 25.5333
34.262 25.1431
34.4488 24.871
34.6357 24.4963
34.8227 24.3292
35.0098 24.0933
35.1969 23.7625
35.3842 23.592
35.5716 23.4103
35.759 23.0435
35.9468 22.7832
36.1345 22.5548
36.3222 22.2575
36.5101 22.039
36.6981 21.6899
36.8861 21.4292
37.0743 21.1034
37.2626 20.8658
37.451 20.6063
37.6395 20.4627
37.8281 20.1169
38.0168 19.8354
38.2056 19.5707
38.3945 19.3308
38.5837 19.0944
38.7728 18.8726
38.9621 18.6548
39.1514 18.4129
39.3409 18.133
39.5304 17.8816
39.7201 17.767
39.9099 17.5461
40.0999 17.301
40.2899 16.9752
40.48 16.8379
40.6703 16.6429
40.8607 16.4796
41.0512 16.2422
41.242 15.9869
41.4327 15.7742
41.6236 15.5187
41.8146 15.3668
42.0057 15.2085
42.1969 14.9613
42.3882 14.7725
42.5797 14.5776
42.7713 14.4033
42.963 14.1643
43.1549 14.002
43.3468 13.7647
43.5389 13.5957
43.7312 13.3358
43.9237 13.2344
44.1162 13.0123
44.3088 12.8752
44.5016 12.697
44.6945 12.5279
44.8875 12.3471
45.0806 12.1663
45.2739 11.976
45.4673 11.7814
45.6609 11.644
45.8546 11.5318
46.0484 11.3188
46.2424 11.1536
46.4365 11.0242
46.631 10.853
46.8254 10.6949
47.0199 10.5244
47.2146 10.3819
47.4095 10.2233
47.6044 10.0494
47.7996 9.89374
47.9948 9.77433
48.1902 9.65971
48.3858 9.51262
48.5815 9.36801
48.7774 9.23974
48.9734 9.11652
49.1696 8.97248
49.3661 8.80262
49.5626 8.62031
49.7592 8.54752
49.956 8.42942
50.153 8.29138
50.3501 8.14059
50.5474 8.05093
50.7448 7.89796
50.9424 7.84076
51.1402 7.68602
51.3381 7.55737
51.5362 7.42032
51.7344 7.33431
51.9328 7.16144
52.1316 7.06609
52.3304 6.96574
52.5293 6.83349
52.7284 6.75167
52.9276 6.625
53.1271 6.54478
53.3267 6.42498
53.5265 6.27639
53.7264 6.17215
53.9266 6.01496
54.1269 5.98453
54.3274 5.85773
54.528 5.71791
54.7289 5.52013
54.9301 5.34477
55.1314 5.27626
55.3328 5.05173
55.5344 4.86703
55.7361 4.73242

File: Ni3Fe_FD0935.xy
TT I
1.27165 6.66261
1.45013 6.06275
1.62863 5.33847
1.80712 4.82704
1.98562 5.2059
2.16411 4.72869
2.34263 5.6311
2.52115 7.47702
2.69965 8.86344
2.87818 8.38465
3.05672 11.5863
3.23527 15.1777
3.4138 18.6231
3.59237 23.2068
3.77094 25.4811
3.9495 29.4836
4.12809 33.8425
4.30669 90.6843
4.4853 52.5072
4.6639 54.9254
4.84253 68.2879
5.02118 86.1995
5.19981 372.891
5.37848 195.883
5.55716 101.45
5.73586 92.2156
5.91455 94.2871
6.09328 4692.58
6.27201 78.9952
6.45075 70.2096
6.62952 62.5279
6.8083 59.6003
6.98711 54.74
7.16591 55.7989
7.34475 64.5353
7.5236 53.7119
7.70247 56.3939
7.88135 56.6645
8.06026 61.694
8.23919 68.505
8.41812 82.369
8.59709 1209.96
8.77609 95.8617
8.9551 88.9747
9.13412 82.3657
9.31318 84.7978
9.49226 83.3502
9.67134 94.8853
9.85047 101.038
10.0296 330.623
10.2088 320.474
10.388 103.428
10.5672 551.369
10.7465 85.1343
10.9257 77.2776
11.105 70.2561
11.2844 67.144
11.4637 63.9263
11.6431 62.2118
11.8225 61.7969
12.002 63.7792
12.1814 158.935
12.3609 65.4174
12.5405 64.0972
12.72 66.9791
12.8996 70.4178
13.0792 79.6239
13.2589 247.597
13.4386 114.214
13.6183 259.807
13.7981 91.7132
13.9779 74.7425
14.1577 70.9209
14.3376 68.9722
14.5175 68.0543
14.6974 69.4759
14.8774 110.829
15.0574 135.416
15.2374 68.2659
15.4175 65.1464
15.5976 64.6943
15.7778 94.1825
15.958 144.679
16.1382 60.2664
16.3185 56.8209
16.4988 54.627
16.6792 53.6054
16.8596 53.9071
17.04 55.0601
17.2205 66.2879
17.401 67.4074
17.5815 58.1229
17.7622 60.3235
17.9428 72.1656
18.1237 140.448
18.3044 90.9586
18.4852 72.7144
18.666 59.2425
18.8469 56.9874
19.0278 56.019
19.2088 58.4328
19.3898 74.7255
19.5709 53.1599
19.752 52.482
19.9332 55.2431
20.1144 69.3229
20.2957 64.2415
20.477 51.6677
20.6586 48.7755
20.84 47.929
21.0215 47.8347
21.203 50.277
21.3846 47.8155
21.5662 48.3406
21.7479 51.9432
21.9297 64.1698
22.1115 55.7289
22.2933 48.8352
22.4753 47.7654
22.6572 48.1367
22.8393 51.3205
23.0214 56.0787
23.2037 47.8921
23.3859 48.9358
23.5682 56.8348
23.7505 47.039
23.9329 44.4338
24.1154 43.394
24.2979 42.6753
24.4805 42.277
24.6631 41.9449
24.8458 41.54
25.0286 42.174
25.2114 43.9665
25.3943 43.8176
25.5773 40.2857
25.7605 39.8234
25.9436 40.242
26.1268 41.0799
26.31 39.4382
26.4933 40.2654
26.6767 41.567
26.8601 39.7788
27.0437 38.1583
27.2272 37.8316
27.4109 37.8373
27.5946 37.655
27.7784 37.1612
27.9623 37.836
28.1462 38.0727
28.3304 36.5504
28.5145 35.3635
28.6987 35.0626
28.8829 34.7928
29.0673 34.0362
29.2517 33.7164
29.4361 33.6539
29.6207 32.6093
29.8053 32.3006
29.99 32.2328
30.1748 31.9397
30.3597 31.7636
30.5447 31.6804
30.7297 31.7335
30.915 31.0847
31.1002 30.5342
31.2855 30.3377
31.4708 30.3495
31.6563 29.7556
31.8418 29.6986
32.0275 29.3373
32.2132 28.9087
32.399 28.4944
32.5848 28.0209
32.7708 27.6461
32.9569 27.4644
33.143 27.2809
33.3293 26.9293
33.5158 26.6237
33.7022 26.128
33.8887 25.8181
34.0753 25.5606
34.262 25.1968
34.4488 24.8872
34.6357 24.5411
34.8227 24.3215
35.0098 24.0505
35.1969 23.8219
35.3842 23.6112
35.5716 23.3321
35.759 23.142
35.9468 22.7526
36.1345 22.5165
36.3222 22.256
36.5101 22.0164
36.6981 21.7167
36.8861 21.4755
37.0743 21.1551
37.2626 20.9419
37.451 20.644
37.6395 20.5034
37.8281 20.1629
38.0168 19.8984
38.2056 19.6559
38.3945 19.3867
38.5837 19.1142
38.7728 18.9004
38.9621 18.6079
39.1514 18.323
39.3409 18.2021
39.5304 17.9184
39.7201 17.6918
39.9099 17.5378
40.0999 17.3044
40.2899 17.0662
40.48 16.8105
40.6703 16.628
40.8607 16.462
41.0512 16.2118
41.242 15.9866
41.4327 15.7831
41.6236 15.5693
41.8146 15.3623
42.0057 15.0985
42.1969 14.9502
42.3882 14.7694
42.5797 14.5729
42.7713 14.3971
42.963 14.1913
43.1549 13.9796
43.3468 13.7675
43.5389 13.5831
43.7312 13.413
43.9237 13.254
44.1162 13.0347
44.3088 12.879
44.5016 12.625
44.6945 12.5287
44.8875 12.3453
45.0806 12.1593
45.2739 12.0187
45.4673 11.8021
45.6609 11.6729
45.8546 11.4987
46.0484 11.334
46.2424 11.173
46.4365 11.0045
46.631 10.8767
46.8254 10.6849
47.0199 10.5058
47.2146 10.3821
47.4095 10.2125
47.6044 10.085
47.7996 9.92802
47.9948 9.79869
48.1902 9.64211
48.3858 9.47527
48.5815 9.37516
48.7774 9.22134
48.9734 9.07372
49.1696 8.94724
49.3661 8.81313
49.5626 8.64496
49.7592 8.54385
49.956 8.42695
50.153 8.29905
50.3501 8.1533
50.5474 8.06325
50.7448 7.92701
50.9424 7.81312
51.1402 7.66251
51.3381 7.51625
51.5362 7.42297
51.7344 7.27388
51.9328 7.18445
52.1316 7.04074
52.3304 6.92183
52.5293 6.82046
52.7284 6.7492
52.9276 6.6064
53.1271 6.5097
53.3267 6.41639
53.5265 6.28783
53.7264 6.16683
53.9266 6.02943
54.1269 5.95333
54.3274 5.89896
54.528 5.73194
54.7289 5.51593
54.9301 5.38145
55.1314 5.26927
55.3328 5.0501
55.5344 4.89881
55.7361 4.71678

File: Ni3Fe_FD0936.xy
TT I
1.27165 7.21974
1.45013 5.78058
1.62863 5.08869
1.80712 4.45356
1.98562 4.21124
2.16411 4.63813
2.34263 5.12747
2.52115 7.53637
2.69965 8.5611
2.87818 9.34133
3.05672 11.2248
3.23527 15.0918
3.4138 18.5521
3.59237 22.9574
3.77094 25.3433
3.9495 29.09
4.12809 33.6533
4.30669 90.3183
4.4853 52.2567
4.6639 55.2586
4.84253 67.9411
5.02118 86.0771
5.19981 370.008
5.37848 196.074
5.55716 100.878
5.73586 92.1709
5.91455 94.2144
6.09328 4642.8
6.27201 78.4137
6.45075 69.7918
6.62952 62.383
6.8083 58.999
6.98711 54.9292
7.16591 55.7546
7.34475 64.2113
7.5236 53.4399
7.70247 56.611
7.88135 56.7712
8.06026 61.7012
8.23919 68.4759
8.41812 82.1805
8.59709 1203.91
8.77609 95.7857
8.9551 88.9699
9.13412 81.9617
9.31318 84.4047
9.49226 83.9796
9.67134 94.5629
9.85047 100.711
10.0296 328.795
10.2088 325.341
10.388 103.42
10.5672 544.717
10.7465 84.7736
10.9257 76.975
11.105 70.3345
11.2844 67.1285
11.4637 63.6559
11.6431 62.1811
11.8225 61.8956
12.002 63.3575
12.1814 159.625
12.3609 65.2279
12.5405 64.0815
12.72 66.764
12.8996 70.7182
13.0792 79.5075
13.2589 246.108
13.4386 114.229
13.6183 258.824
13.7981 91.973
13.9779 74.5938
14.1577 70.7092
14.3376 68.9498
14.5175 67.7924
14.6974 69.4851
14.8774 111.164
15.0574 136.324
15.2374 68.169
15.4175 65.3267
15.5976 64.8679
15.7778 94.0607
15.958 144.982
16.1382 60.1454
16.3185 56.6682
16.4988 54.5245
16.6792 53.4342
16.8596 53.8352
17.04 55.0657
17.2205 66.2478
17.401 67.5507
17.5815 58.2399
17.7622 60.2646
17.9428 72.3562
18.1237 140.98
18.3044 90.4279
18.4852 72.7658
18.666 59.2649
18.8469 57.0685
19.0278 55.5393
19.2088 58.1584
19.3898 75.0584
19.5709 53.1305
19.752 52.2787
19.9332 55.1208
20.1144 69.5343
20.2957 64.2269
20.477 51.6733
20.6586 48.9043
20.84 47.9462
21.0215 47.6504
21.203 50.0341
21.3846 47.9321
21.5662 48.3918
21.7479 51.8654
21.9297 64.1917
22.1115 55.6296
22.2933 48.7526
22.4753 47.7328
22.6572 48.2747
22.8393 51.2136
23.0214 55.9786
23.2037 47.8742
23.3859 48.9508
23.5682 57.0925
23.7505 46.9098
23.9329 44.4324
24.1154 43.2411
24.2979 42.6658
24.4805 42.2452
24.6631 42.0453
24.8458 41.5938
25.0286 42.2513
25.2114 43.9849
25.3943 43.8601
25.5773 40.1728
25.7605 39.6126
25.9436 40.172
26.1268 41.0606
26.31 39.4436
26.4933 39.9473
26.6767 41.4285
26.8601 39.7482
27.0437 38.2724
27.2272 37.8506
27.4109 37.7742
27.5946 37.6996
27.7784 37.2226
27.9623 37.8248
28.1462 38.1997
28.3304 36.4281
28.5145 35.3748
28.6987 35.0966
28.8829 34.7979
29.0673 34.0112
29.2517 33.7946
29.4361 33.4891
29.6207 32.5692
29.8053 32.2969
29.99 32.0683
30.1748 31.8992
30.3597 31.6149
30.5447 31.6762
30.7297 31.6189
30.915 31.0137
31.1002 30.6221
31.2855 30.2909
31.4708 30.4017
31.6563 29.8207
31.8418 29.5584
32.0275 29.4207
32.2132 28.8382
32.399 28.4237
32.5848 27.9817
32.7708 27.6244
32.9569 27.4685
33.143 27.3035
33.3293 26.9256
33.5158 26.4896
33.7022 26.0471
33.8887 25.8084
34.0753 25.4941
34.262 25.2214
34.4488 24.8616
34.6357 24.5075
34.8227 24.3653
35.0098 24.0765
35.1969 23.7609
35.3842 23.579
35.5716 23.4147
35.759 23.1073
35.9468 22.7384
36.1345 22.4208
36.3222 22.2467
36.5101 21.9921
36.6981 21.7413
36.8861 21.4115
37.0743 21.1163
37.2626 20.8889
37.451 20.5825
37.6395 20.4329
37.8281 20.1007
38.0168 19.8209
38.2056 19.6594
38.3945 19.3501
38.5837 19.0491
38.7728 18.8403
38.9621 18.6277
39.1514 18.437
39.3409 18.1605
39.5304 17.8931
39.7201 17.7539
39.9099 17.5508
40.0999 17.2421
40.2899 17.0338
40.48 16.7976
40.6703 16.6278
40.8607 16.4092
41.0512 16.2338
41.242 15.9461
41.4327 15.7337
41.6236 15.5614
41.8146 15.3471
42.0057 15.1286
42.1969 14.898
42.3882 14.7996
42.5797 14.5874
42.7713 14.3401
42.963 14.1352
43.1549 13.9571
43.3468 13.706
43.5389 13.5937
43.7312 13.4139
43.9237 13.2176
44.1162 13.0406
44.3088 12.8417
44.5016 12.6679
44.6945 12.4647
44.8875 12.3293
45.0806 12.1329
45.2739 12.0027
45.4673 11.8177
45.6609 11.633
45.8546 11.5018
46.0484 11.3048
46.2424 11.1695
46.4365 11.0756
46.631 10.8244
46.8254 10.6584
47.0199 10.5517
47.2146 10.3757
47.4095 10.1999
47.6044 10.0285
47.7996 9.89862
47.9948 9.69758
48.1902 9.61297
48.3858 9.47243
48.5815 9.36259
48.7774 9.23426
48.9734 9.10613
49.1696 8.9675
49.3661 8.79317
49.5626 8.6812
49.7592 8.53353
49.956 8.41775
50.153 8.26661
50.3501 8.15278
50.5474 8.05374
50.7448 7.89948
50.9424 7.79692
51.1402 7.68693
51.3381 7.56146
51.5362 7.44253
51.7344 7.28632
51.9328 7.17946
52.1316 7.03444
52.3304 6.97361
52.5293 6.80743
52.7284 6.72839
52.9276 6.60533
53.1271 6.48773
53.3267 6.40827
53.5265 6.23463
53.7264 6.17455
53.9266 6.09025
54.1269 5.9442
54.3274 5.78364
54.528 5.70406
54.7289 5.56338
54.9301 5.38269
55.1314 5.2975
55.3328 5.03928
55.5344 4.89156
55.7361 4.75745

File: Ni3Fe_FD0937.xy
TT I
1.27165 7.15601
1.45013 6.11232
1.62863 4.84673
1.80712 4.69995
1.98562 4.2954
2.16411 4.10068
2.34263 5.59353
2.52115 7.24088
2.69965 8.98918
2.87818 9.21915
3.05672 11.2456
3.23527 15.166
3.4138 18.8942
3.59237 23.0097
3.77094 25.707
3.9495 29.3824
4.12809 34.0054
4.30669 89.2096
4.4853 52.2255
4.6639 54.3512
4.84253 68.3003
5.02118 86.0604
5.19981 372.38
5.37848 196.711
5.55716 101.131
5.73586 92.2159
5.91455 94.4071
6.09328 4692.49
6.27201 78.6207
6.45075 70.0977
6.62952 62.5501
6.8083 59.4172
6.98711 55.0245
7.16591 56.2974
7.34475 64.075
7.5236 53.5431
7.70247 56.3217
7.88135 56.6532
8.06026 62.202
8.23919 68.5703
8.41812 82.3232
8.59709 1208.03
8.77609 95.5638
8.9551 88.9453
9.13412 82.0653
9.31318 84.5475
9.49226 83.2375
9.67134 94.6367
9.85047 100.679
10.0296 330.373
10.2088 323.295
10.388 103.414
10.5672 550.838
10.7465 84.7801
10.9257 76.8758
11.105 70.4998
11.2844 67.2135
11.4637 63.8657
11.6431 62.4648
11.8225 61.8915
12.002 63.4073
12.1814 159.541
12.3609 65.314
12.5405 64.1515
12.72 66.7627
12.8996 70.7741
13.0792 79.5217
13.2589 246.834
13.4386 113.8
13.6183 260.049
13.7981 91.5066
13.9779 74.5367
14.1577 70.6825
14.3376 69.0651
14.5175 68.0488
14.6974 69.595
14.8774 110.783
15.0574 135.59
15.2374 68.3637
15.4175 65.3006
15.5976 64.6681
15.7778 94.1703
15.958 144.01
16.1382 60.1564
16.3185 56.9174
16.4988 54.4009
16.6792 53.5239
16.8596 53.9978
17.04 55.05
17.2205 66.207
17.401 67.5831
17.5815 58.4228
17.7622 60.3608
17.9428 72.4076
18.1237 140.597
18.3044 90.7762
18.4852 72.624
18.666 59.1985
18.8469 57.0271
19.0278 55.7814
19.2088 58.4239
19.3898 74.7578
19.5709 53.2108
19.752 52.2732
19.9332 55.214
20.1144 69.5359
20.2957 64.1406
20.477 51.8083
20.6586 48.7516
20.84 47.8859
21.0215 47.6341
21.203 50.0376
21.3846 48.0899
21.5662 48.1246
21.7479 51.948
21.9297 64.0344
22.1115 55.3787
22.2933 48.6009
22.4753 47.87
22.6572 48.1584
22.8393 51.2513
23.0214 56.0536
23.2037 48.0441
23.3859 48.9192
23.5682 56.976
23.7505 47.0548
23.9329 44.5893
24.1154 43.4484
24.2979 42.6002
24.4805 42.2678
24.6631 42.0242
24.8458 41.5198
25.0286 42.1199
25.2114 43.8168
25.3943 43.7031
25.5773 40.1
25.7605 39.7469
25.9436 40.1501
26.1268 41.2142
26.31 39.4908
26.4933 40.097
26.6767 41.5984
26.8601 39.7477
27.0437 38.1728
27.2272 37.8209
27.4109 37.7968
27.5946 37.7386
27.7784 37.2403
27.9623 37.8842
28.1462 38.0647
28.3304 36.475
28.5145 35.4147
28.6987 34.9982
28.8829 34.7765
29.0673 34.0332
29.2517 33.8309
29.4361 33.5451
29.6207 32.5141
29.8053 32.3544
29.99 32.1445
30.1748 31.9149
30.3597 31.7808
30.5447 31.5774
30.7297 31.7464
30.915 30.9642
31.1002 30.5421
31.2855 30.4045
31.4708 30.4031
31.6563 29.8651
31.8418 29.731
32.0275 29.3929
32.2132 28.8768
32.399 28.3911
32.5848 28.0565
32.7708 27.7377
32.9569 27.5231
33.143 27.3459
33.3293 26.9686
33.5158 26.5158
33.7022 26.0755
33.8887 25.8891
34.0753 25.5635
34.262 25.2166
34.4488 24.7585
34.6357 24.5481
34.8227 24.2816
35.0098 24.1234
35.1969 23.7622
35.3842 23.6285
35.5716 23.3231
35.759 23.0272
35.9468 22.7783
36.1345 22.488
36.3222 22.2894
36.5101 22.0507
36.6981 21.7787
36.8861 21.4473
37.0743 21.1044
37.2626 20.9291
37.451 20.6087
37.6395 20.4477
37.8281 20.1424
38.0168 19.917
38.2056 19.5891
38.3945 19.3055
38.5837 19.0872
38.7728 18.9478
38.9621 18.6096
39.1514 18.3343
39.3409 18.15
39.5304 17.8866
39.7201 17.7029
39.9099 17.5362
40.0999 17.3028
40.2899 17.0479
40.48 16.866
40.6703 16.6722
40.8607 16.4507
41.0512 16.275
41.242 15.9395
41.4327 15.7789
41.6236 15.5661
41.8146 15.3867
42.0057 15.1994
42.1969 14.9485
42.3882 14.7871
42.5797 14.5325
42.7713 14.3544
42.963 14.1694
43.1549 13.9955
43.3468 13.7626
43.5389 13.5824
43.7312 13.3645
43.9237 13.2497
44.1162 13.008
44.3088 12.8629
44.5016 12.7266
44.6945 12.527
44.8875 12.345
45.0806 12.1087
45.2739 11.9946
45.4673 11.8339
45.6609 11.6302
45.8546 11.4721
46.0484 11.335
46.2424 11.1641
46.4365 11.0204
46.631 10.8159
46.8254 10.6507
47.0199 10.5773
47.2146 10.3895
47.4095 10.2152
47.6044 10.0333
47.7996 9.89899
47.9948 9.76324
48.1902 9.61586
48.3858 9.48478
48.5815 9.35123
48.7774 9.23422
48.9734 9.08229
49.1696 8.96523
49.3661 8.79017
49.5626 8.66756
49.7592 8.52002
49.956 8.41283
50.153 8.28644
50.3501 8.13629
50.5474 8.0044
50.7448 7.9084
50.9424 7.79153
51.1402 7.65781
51.3381 7.4994
51.5362 7.43266
51.7344 7.31044
51.9328 7.15456
52.1316 7.03191
52.3304 6.95768
52.5293 6.85562
52.7284 6.70003
52.9276 6.59986
53.1271 6.4773
53.3267 6.34988
53.5265 6.30687
53.7264 6.14412
53.9266 6.01291
54.1269 5.95645
54.3274 5.84675
54.528 5.70869
54.7289 5.53544
54.9301 5.39785
55.1314 5.23485
55.3328 5.02969
55.5344 4.87636
55.7361 4.74371

File: Ni3Fe_FD0938.xy
TT I
1.27165 6.62148
1.45013 5.82458
1.62863 4.71514
1.80712 5.13276
1.98562 4.44072
2.16411 4.58218
2.34263 6.00235
2.52115 7.23777
2.69965 8.10694
2.87818 8.8596
3.05672 10.8266
3.23527 15.5286
3.4138 18.6941
3.59237 22.8032
3.77094 25.5744
3.9495 29.1951
4.12809 33.9403
4.30669 88.3612
4.4853 52.0395
4.6639 54.8398
4.84253 67.8666
5.02118 86.0648
5.19981 373.024
5.37848 196.593
5.55716 101.284
5.73586 92.1352
5.91455 94.0781
6.09328 4695.51
6.27201 78.4047
6.45075 69.833
6.62952 62.2319
6.8083 59.5272
6.98711 54.9521
7.16591 56.0204
7.34475 63.9245
7.5236 53.57
7.70247 56.7232
7.88135 56.8048
8.06026 62.1286
8.23919 68.6097
8.41812 82.057
8.59709 1209.51
8.77609 95.3758
8.9551 88.8233
9.13412 82.2341
9.31318 84.7552
9.49226 83.7633
9.67134 94.3892
9.85047 101.056
10.0296 331.264
10.2088 321.781
10.388 103.501
10.5672 552.375
10.7465 84.9442
10.9257 76.9639
11.105 70.5256
11.2844 67.0132
11.4637 63.7957
11.6431 62.4097
11.8225 61.8655
12.002 63.5521
12.1814 159.645
12.3609 65.4456
12.5405 64.3236
12.72 66.6843
12.8996 70.733
13.0792 79.7594
13.2589 247.392
13.4386 114.094
13.6183 259.679
13.7981 91.67
13.9779 74.4509
14.1577 70.5917
14.3376 69.1724
14.5175 67.9396
14.6974 69.5473
14.8774 110.936
15.0574 135.094
15.2374 68.3177
15.4175 65.3943
15.5976 64.9355
15.7778 93.9484
15.958 144.058
16.1382 60.0715
16.3185 56.7839
16.4988 54.4132
16.6792 53.3833
16.8596 53.8618
17.04 55.1318
17.2205 66.1245
17.401 67.4765
17.5815 58.1338
17.7622 60.2871
17.9428 72.4739
18.1237 140.602
18.3044 90.9515
18.4852 72.5109
18.666 59.2852
18.8469 57.0722
19.0278 55.6502
19.2088 58.2248
19.3898 74.7554
19.5709 53.3159
19.752 52.5191
19.9332 55.2523
20.1144 69.4218
20.2957 64.254
20.477 51.6661
20.6586 48.6473
20.84 47.9522
21.0215 47.8148
21.203 50.483
21.3846 47.8826
21.5662 48.0871
21.7479 51.9611
21.9297 64.1238
22.1115 55.3969
22.2933 48.654
22.4753 47.7987
22.6572 48.219
22.8393 51.2859
23.0214 56.0373
23.2037 47.8861
23.3859 48.869
23.5682 56.9623
23.7505 46.8571
23.9329 44.4103
24.1154 43.3488
24.2979 42.6537
24.4805 42.262
24.6631 42.0976
24.8458 41.5572
25.0286 42.0025
25.2114 43.9484
25.3943 43.6811
25.5773 40.0391
25.7605 39.6311
25.9436 40.1601
26.1268 41.0275
26.31 39.3268
26.4933 40.0667
26.6767 41.5159
26.8601 39.8044
27.0437 38.2545
27.2272 37.8003
27.4109 37.8054
27.5946 37.8099
27.7784 37.2584
27.9623 37.8451
28.1462 38.1568
28.3304 36.4835
28.5145 35.3738
28.6987 35.0908
28.8829 34.9065
29.0673 34.0658
29.2517 33.7596
29.4361 33.6669
29.6207 32.5442
29.8053 32.2914
29.99 31.9872
30.1748 31.8328
30.3597 31.7773
30.5447 31.6074
30.7297 31.7368
30.915 31.0572
31.1002 30.6527
31.2855 30.3476
31.4708 30.3751
31.6563 29.7626
31.8418 29.6046
32.0275 29.361
32.2132 28.8508
32.399 28.4523
32.5848 28.0071
32.7708 27.7028
32.9569 27.5899
33.143 27.362
33.3293 26.8567
33.5158 26.6248
33.7022 26.1955
33.8887 25.9324
34.0753 25.4649
34.262 25.2438
34.4488 24.8671
34.6357 24.5646
34.8227 24.3415
35.0098 24.0737
35.1969 23.7082
35.3842 23.6447
35.5716 23.3151
35.759 23.0425
35.9468 22.7692
36.1345 22.5063
36.3222 22.2765
36.5101 22.0574
36.6981 21.7787
36.8861 21.481
37.0743 21.1692
37.2626 20.8722
37.451 20.6389
37.6395 20.4655
37.8281 20.155
38.0168 19.8995
38.2056 19.5794
38.3945 19.4006
38.5837 19.0873
38.7728 18.9271
38.9621 18.6118
39.1514 18.3872
39.3409 18.1499
39.5304 17.9284
39.7201 17.711
39.9099 17.5032
40.0999 17.3066
40.2899 17.0374
40.48 16.7612
40.6703 16.7069
40.8607 16.3854
41.0512 16.173
41.242 15.9768
41.4327 15.7882
41.6236 15.5485
41.8146 15.406
42.0057 15.1984
42.1969 14.9883
42.3882 14.8331
42.5797 14.5932
42.7713 14.3739
42.963 14.1825
43.1549 14.0119
43.3468 13.7951
43.5389 13.5829
43.7312 13.398
43.9237 13.2064
44.1162 13.0063
44.3088 12.8269
44.5016 12.6991
44.6945 12.4791
44.8875 12.3246
45.0806 12.1193
45.2739 12.0014
45.4673 11.8201
45.6609 11.6355
45.8546 11.5093
46.0484 11.3105
46.2424 11.1665
46.4365 10.9801
46.631 10.7703
46.8254 10.7123
47.0199 10.5245
47.2146 10.3574
47.4095 10.1679
47.6044 10.052
47.7996 9.91593
47.9948 9.75264
48.1902 9.61888
48.3858 9.50712
48.5815 9.32383
48.7774 9.21485
48.9734 9.08398
49.1696 8.9293
49.3661 8.76346
49.5626 8.6731
49.7592 8.51486
49.956 8.40118
50.153 8.28595
50.3501 8.12689
50.5474 8.04611
50.7448 7.91705
50.9424 7.77029
51.1402 7.67538
51.3381 7.53921
51.5362 7.40856
51.7344 7.28885
51.9328 7.17052
52.1316 7.04107
52.3304 6.95996
52.5293 6.8358
52.7284 6.73379
52.9276 6.63399
53.1271 6.53349
53.3267 6.38022
53.5265 6.22792
53.7264 6.19102
53.9266 6.07033
54.1269 5.96237
54.3274 5.84251
54.528 5.6713
54.7289 5.54549
54.9301 5.4009
55.1314 5.29019
55.3328 5.03909
55.5344 4.83904
55.7361 4.76969