Folder: NiFe_MOF_catalyst_paper/XRD (part 95)

File: Ni3Fe_FD0513.xy
TT I
1.27165 8.13476
1.45013 6.29395
1.62863 5.22722
1.80712 4.79743
1.98562 4.46268
2.16411 5.21375
2.34263 5.53445
2.52115 6.70877
2.69965 7.23119
2.87818 8.92652
3.05672 11.353
3.23527 15.133
3.4138 18.8463
3.59237 24.0995
3.77094 26.3363
3.9495 30.2496
4.12809 35.5004
4.30669 232.795
4.4853 67.9804
4.6639 56.4352
4.84253 68.2533
5.02118 88.3688
5.19981 389.503
5.37848 204.86
5.55716 103.813
5.73586 93.8071
5.91455 96.1821
6.09328 4083.63
6.27201 84.5727
6.45075 68.5304
6.62952 63.9945
6.8083 59.5941
6.98711 56.4923
7.16591 56.5121
7.34475 95.9233
7.5236 55.5509
7.70247 56.8429
7.88135 58.6442
8.06026 62.7559
8.23919 70.5841
8.41812 86.2852
8.59709 1140.82
8.77609 102.023
8.9551 93.0578
9.13412 82.6054
9.31318 83.4776
9.49226 85.2613
9.67134 100.365
9.85047 100.946
10.0296 351.14
10.2088 449.178
10.388 106.189
10.5672 494.026
10.7465 88.0487
10.9257 79.6428
11.105 72.5934
11.2844 71.5368
11.4637 65.6461
11.6431 64.4356
11.8225 63.5991
12.002 64.3642
12.1814 153.767
12.3609 72.3964
12.5405 65.5758
12.72 71.3234
12.8996 71.8477
13.0792 79.7979
13.2589 234.427
13.4386 131.77
13.6183 241.074
13.7981 103.326
13.9779 76.8985
14.1577 73.279
14.3376 72.6467
14.5175 69.7266
14.6974 71.3853
14.8774 110.901
15.0574 155.439
15.2374 72.2618
15.4175 67.3834
15.5976 66.5493
15.7778 95.6417
15.958 161.315
16.1382 63.8025
16.3185 59.6778
16.4988 56.4216
16.6792 55.2503
16.8596 56.0225
17.04 56.6768
17.2205 67.1479
17.401 72.5072
17.5815 60.1153
17.7622 62.1846
17.9428 74.7836
18.1237 137.417
18.3044 90.7208
18.4852 80.7931
18.666 61.3656
18.8469 58.7759
19.0278 57.8153
19.2088 60.4043
19.3898 76.8632
19.5709 55.0167
19.752 53.9408
19.9332 56.8308
20.1144 70.3694
20.2957 64.0063
20.477 54.8209
20.6586 50.3007
20.84 49.4944
21.0215 49.2009
21.203 51.5108
21.3846 49.6333
21.5662 49.3743
21.7479 53.2124
21.9297 64.967
22.1115 56.3786
22.2933 50.6234
22.4753 49.5701
22.6572 49.5891
22.8393 52.3758
23.0214 58.316
23.2037 49.458
23.3859 50.4283
23.5682 57.0108
23.7505 49.4327
23.9329 45.8366
24.1154 44.6838
24.2979 44.0828
24.4805 43.5624
24.6631 43.58
24.8458 42.7794
25.0286 43.4166
25.2114 45.2319
25.3943 45.2015
25.5773 41.4643
25.7605 41.0301
25.9436 41.345
26.1268 42.1179
26.31 40.718
26.4933 41.3133
26.6767 42.6638
26.8601 40.9505
27.0437 39.4418
27.2272 39.0739
27.4109 39.0051
27.5946 38.83
27.7784 38.3298
27.9623 38.9373
28.1462 39.3053
28.3304 37.6158
28.5145 36.4147
28.6987 36.1848
28.8829 35.9116
29.0673 35.0981
29.2517 34.7865
29.4361 34.6837
29.6207 33.6688
29.8053 33.3095
29.99 32.9672
30.1748 32.8492
30.3597 32.6634
30.5447 32.5949
30.7297 32.6725
30.915 32.0195
31.1002 31.5251
31.2855 31.1507
31.4708 31.1948
31.6563 30.8036
31.8418 30.5809
32.0275 30.3156
32.2132 29.7719
32.399 29.2954
32.5848 28.876
32.7708 28.449
32.9569 28.3457
33.143 28.1386
33.3293 27.8275
33.5158 27.3127
33.7022 26.9875
33.8887 26.6065
34.0753 26.3539
34.262 25.9445
34.4488 25.6011
34.6357 25.2495
34.8227 25.0655
35.0098 24.8558
35.1969 24.492
35.3842 24.2853
35.5716 24.1099
35.759 23.7801
35.9468 23.4745
36.1345 23.1433
36.3222 23.0052
36.5101 22.7825
36.6981 22.4161
36.8861 22.0556
37.0743 21.8617
37.2626 21.5291
37.451 21.2971
37.6395 21.0852
37.8281 20.7761
38.0168 20.4362
38.2056 20.2131
38.3945 19.9027
38.5837 19.738
38.7728 19.4653
38.9621 19.2538
39.1514 19.0239
39.3409 18.732
39.5304 18.5468
39.7201 18.3126
39.9099 18.0319
40.0999 17.8512
40.2899 17.5802
40.48 17.3603
40.6703 17.1163
40.8607 16.9438
41.0512 16.765
41.242 16.4641
41.4327 16.2596
41.6236 16.0758
41.8146 15.8503
42.0057 15.6666
42.1969 15.4024
42.3882 15.1984
42.5797 15.0644
42.7713 14.7918
42.963 14.5801
43.1549 14.4205
43.3468 14.184
43.5389 14.0208
43.7312 13.833
43.9237 13.5952
44.1162 13.4185
44.3088 13.2644
44.5016 13.0789
44.6945 12.8859
44.8875 12.7103
45.0806 12.5422
45.2739 12.3733
45.4673 12.1913
45.6609 12.0101
45.8546 11.8586
46.0484 11.6654
46.2424 11.5084
46.4365 11.3198
46.631 11.1852
46.8254 11.0327
47.0199 10.8409
47.2146 10.7023
47.4095 10.4929
47.6044 10.4043
47.7996 10.2407
47.9948 10.0644
48.1902 9.941
48.3858 9.79912
48.5815 9.66584
48.7774 9.53596
48.9734 9.3401
49.1696 9.23374
49.3661 9.06911
49.5626 8.95085
49.7592 8.79047
49.956 8.68332
50.153 8.55588
50.3501 8.41309
50.5474 8.2948
50.7448 8.20137
50.9424 8.04696
51.1402 7.89638
51.3381 7.77826
51.5362 7.65702
51.7344 7.5495
51.9328 7.41622
52.1316 7.27914
52.3304 7.18247
52.5293 7.0688
52.7284 6.94712
52.9276 6.8492
53.1271 6.70953
53.3267 6.61764
53.5265 6.48513
53.7264 6.34678
53.9266 6.25849
54.1269 6.13536
54.3274 6.01368
54.528 5.88469
54.7289 5.72631
54.9301 5.57642
55.1314 5.46744
55.3328 5.25667
55.5344 5.01216
55.7361 4.85257

File: Ni3Fe_FD0514.xy
TT I
1.27165 7.82037
1.45013 6.13193
1.62863 5.16875
1.80712 4.61562
1.98562 4.78782
2.16411 5.3667
2.34263 5.68147
2.52115 6.69828
2.69965 8.18671
2.87818 8.69871
3.05672 11.1541
3.23527 15.0912
3.4138 19.2665
3.59237 24.3281
3.77094 26.9952
3.9495 30.116
4.12809 35.5944
4.30669 235.246
4.4853 67.8974
4.6639 56.1911
4.84253 68.1717
5.02118 87.8622
5.19981 388.002
5.37848 205.289
5.55716 103.489
5.73586 93.2884
5.91455 95.5149
6.09328 4080.38
6.27201 85.6246
6.45075 68.176
6.62952 63.8535
6.8083 59.5169
6.98711 56.538
7.16591 56.298
7.34475 96.6859
7.5236 55.5777
7.70247 56.7696
7.88135 58.8833
8.06026 62.9943
8.23919 70.5863
8.41812 86.8943
8.59709 1135.78
8.77609 101.845
8.9551 93.3461
9.13412 82.6178
9.31318 83.4992
9.49226 85.5375
9.67134 100.318
9.85047 101.086
10.0296 349.45
10.2088 449.76
10.388 106.623
10.5672 495.119
10.7465 88.255
10.9257 79.5006
11.105 72.9325
11.2844 71.6911
11.4637 65.9828
11.6431 64.734
11.8225 63.4357
12.002 64.467
12.1814 152.294
12.3609 72.4282
12.5405 65.2052
12.72 71.2733
12.8996 71.7262
13.0792 79.6183
13.2589 233.502
13.4386 132.015
13.6183 240.486
13.7981 102.988
13.9779 76.815
14.1577 73.474
14.3376 72.9562
14.5175 69.6355
14.6974 71.2543
14.8774 111.344
15.0574 155.27
15.2374 72.2266
15.4175 67.2108
15.5976 66.614
15.7778 95.2901
15.958 161.446
16.1382 63.8356
16.3185 59.9262
16.4988 56.2557
16.6792 55.3201
16.8596 55.9854
17.04 56.493
17.2205 67.29
17.401 72.688
17.5815 60.0419
17.7622 62.0003
17.9428 74.5174
18.1237 137.395
18.3044 90.4217
18.4852 80.6439
18.666 61.2004
18.8469 58.9462
19.0278 57.8804
19.2088 60.2444
19.3898 76.958
19.5709 54.9558
19.752 53.9626
19.9332 57.0972
20.1144 70.2235
20.2957 64.0279
20.477 54.8505
20.6586 50.5222
20.84 49.3953
21.0215 49.2845
21.203 51.3749
21.3846 49.6483
21.5662 49.2463
21.7479 53.1762
21.9297 64.9204
22.1115 56.5111
22.2933 50.6366
22.4753 49.5775
22.6572 49.5
22.8393 52.4862
23.0214 58.1834
23.2037 49.5259
23.3859 50.2107
23.5682 57.1792
23.7505 49.1495
23.9329 45.9269
24.1154 44.7877
24.2979 43.9704
24.4805 43.577
24.6631 43.305
24.8458 42.7568
25.0286 43.3598
25.2114 45.2188
25.3943 45.1049
25.5773 41.5352
25.7605 41.0025
25.9436 41.325
26.1268 42.2152
26.31 40.7064
26.4933 41.1039
26.6767 42.5845
26.8601 41.0483
27.0437 39.3854
27.2272 39.1282
27.4109 38.9998
27.5946 38.7986
27.7784 38.4119
27.9623 38.8387
28.1462 39.3623
28.3304 37.8077
28.5145 36.4508
28.6987 36.0252
28.8829 35.8497
29.0673 35.1478
29.2517 34.7757
29.4361 34.7181
29.6207 33.6709
29.8053 33.4149
29.99 33.0555
30.1748 32.7971
30.3597 32.6775
30.5447 32.5299
30.7297 32.6538
30.915 31.9267
31.1002 31.4793
31.2855 31.2644
31.4708 31.3046
31.6563 30.7812
31.8418 30.541
32.0275 30.3377
32.2132 29.8046
32.399 29.2209
32.5848 28.7968
32.7708 28.51
32.9569 28.3942
33.143 28.1406
33.3293 27.7178
33.5158 27.4182
33.7022 26.9081
33.8887 26.6855
34.0753 26.3783
34.262 25.9202
34.4488 25.7143
34.6357 25.3345
34.8227 24.9955
35.0098 24.7999
35.1969 24.5625
35.3842 24.3967
35.5716 24.0549
35.759 23.7547
35.9468 23.3687
36.1345 23.2265
36.3222 22.9527
36.5101 22.6944
36.6981 22.334
36.8861 22.0484
37.0743 21.7421
37.2626 21.5223
37.451 21.2463
37.6395 21.0859
37.8281 20.7986
38.0168 20.5205
38.2056 20.1929
38.3945 19.9288
38.5837 19.6926
38.7728 19.5056
38.9621 19.2674
39.1514 18.9324
39.3409 18.7057
39.5304 18.4895
39.7201 18.322
39.9099 18.1065
40.0999 17.8263
40.2899 17.5987
40.48 17.3466
40.6703 17.1261
40.8607 17.008
41.0512 16.7186
41.242 16.4531
41.4327 16.3008
41.6236 16.0251
41.8146 15.8131
42.0057 15.6312
42.1969 15.3932
42.3882 15.2289
42.5797 15.0228
42.7713 14.7939
42.963 14.5994
43.1549 14.4005
43.3468 14.2523
43.5389 14.0621
43.7312 13.7464
43.9237 13.6823
44.1162 13.4437
44.3088 13.2233
44.5016 13.0255
44.6945 12.8981
44.8875 12.6973
45.0806 12.5122
45.2739 12.3933
45.4673 12.193
45.6609 12.0135
45.8546 11.8519
46.0484 11.6901
46.2424 11.4961
46.4365 11.3591
46.631 11.15
46.8254 10.9851
47.0199 10.8729
47.2146 10.7188
47.4095 10.5672
47.6044 10.3944
47.7996 10.21
47.9948 10.0911
48.1902 9.94379
48.3858 9.78439
48.5815 9.6797
48.7774 9.53264
48.9734 9.3715
49.1696 9.23054
49.3661 9.08006
49.5626 8.92506
49.7592 8.80335
49.956 8.66802
50.153 8.54373
50.3501 8.41002
50.5474 8.28042
50.7448 8.15463
50.9424 8.0245
51.1402 7.91428
51.3381 7.74649
51.5362 7.64667
51.7344 7.51741
51.9328 7.40572
52.1316 7.2697
52.3304 7.17582
52.5293 7.05082
52.7284 6.92319
52.9276 6.79994
53.1271 6.71466
53.3267 6.58852
53.5265 6.45113
53.7264 6.39101
53.9266 6.26207
54.1269 6.16812
54.3274 6.02052
54.528 5.94609
54.7289 5.71586
54.9301 5.54426
55.1314 5.47326
55.3328 5.23146
55.5344 5.04634
55.7361 4.90584

File: Ni3Fe_FD0515.xy
TT I
1.27165 7.58214
1.45013 6.22239
1.62863 5.82198
1.80712 5.44861
1.98562 4.93359
2.16411 4.92988
2.34263 4.94681
2.52115 6.67603
2.69965 7.68566
2.87818 8.57334
3.05672 11.6664
3.23527 14.8951
3.4138 19.2787
3.59237 24.4358
3.77094 26.473
3.9495 30.2685
4.12809 35.0418
4.30669 240.069
4.4853 68.0811
4.6639 56.284
4.84253 67.7033
5.02118 88.3301
5.19981 384.949
5.37848 205.745
5.55716 103.362
5.73586 93.5204
5.91455 95.753
6.09328 4121.49
6.27201 85.2967
6.45075 68.3272
6.62952 64.0785
6.8083 59.6921
6.98711 56.873
7.16591 55.9991
7.34475 97.1755
7.5236 55.6947
7.70247 56.8059
7.88135 58.2673
8.06026 62.896
8.23919 70.1052
8.41812 86.4463
8.59709 1133.13
8.77609 102.398
8.9551 93.3729
9.13412 82.6857
9.31318 83.3837
9.49226 85.5541
9.67134 100.655
9.85047 100.851
10.0296 347.402
10.2088 450.651
10.388 106.878
10.5672 491.096
10.7465 87.7307
10.9257 79.5661
11.105 72.8619
11.2844 71.404
11.4637 65.5657
11.6431 64.5731
11.8225 63.27
12.002 64.1039
12.1814 149.867
12.3609 72.7535
12.5405 65.2639
12.72 71.551
12.8996 71.705
13.0792 79.635
13.2589 232.57
13.4386 132.152
13.6183 239.518
13.7981 103.17
13.9779 76.7651
14.1577 73.6912
14.3376 72.9208
14.5175 69.4996
14.6974 71.4526
14.8774 110.702
15.0574 156.447
15.2374 72.3107
15.4175 67.2858
15.5976 66.596
15.7778 95.2859
15.958 161.972
16.1382 64.0099
16.3185 59.5466
16.4988 56.1706
16.6792 55.0485
16.8596 55.8423
17.04 56.4672
17.2205 66.9989
17.401 72.7296
17.5815 60.0434
17.7622 62.0132
17.9428 74.6985
18.1237 137.623
18.3044 90.4865
18.4852 80.9724
18.666 61.1391
18.8469 58.8976
19.0278 57.7326
19.2088 60.4924
19.3898 76.928
19.5709 54.8912
19.752 53.9079
19.9332 57.1696
20.1144 70.3835
20.2957 63.9515
20.477 54.8634
20.6586 50.3736
20.84 49.359
21.0215 49.2872
21.203 51.369
21.3846 49.6811
21.5662 49.5414
21.7479 53.2312
21.9297 64.945
22.1115 56.3394
22.2933 50.705
22.4753 49.6124
22.6572 49.5251
22.8393 52.2871
23.0214 57.919
23.2037 49.3881
23.3859 50.4279
23.5682 57.11
23.7505 49.5029
23.9329 45.7673
24.1154 44.681
24.2979 44.0395
24.4805 43.4867
24.6631 43.2768
24.8458 42.786
25.0286 43.1675
25.2114 45.0191
25.3943 45.2003
25.5773 41.6055
25.7605 40.9009
25.9436 41.3811
26.1268 42.1105
26.31 40.631
26.4933 41.2788
26.6767 42.7632
26.8601 40.9682
27.0437 39.4428
27.2272 39.0717
27.4109 38.8754
27.5946 38.9607
27.7784 38.3365
27.9623 38.8451
28.1462 39.3877
28.3304 37.7328
28.5145 36.4068
28.6987 36.0687
28.8829 35.8517
29.0673 35.0832
29.2517 34.7661
29.4361 34.4551
29.6207 33.5655
29.8053 33.3224
29.99 32.9797
30.1748 32.9042
30.3597 32.6359
30.5447 32.5011
30.7297 32.6119
30.915 32.0609
31.1002 31.5263
31.2855 31.1785
31.4708 31.1849
31.6563 30.8309
31.8418 30.5769
32.0275 30.3157
32.2132 29.729
32.399 29.2886
32.5848 28.8184
32.7708 28.4815
32.9569 28.4406
33.143 28.1948
33.3293 27.8322
33.5158 27.4053
33.7022 26.9508
33.8887 26.6759
34.0753 26.3581
34.262 26.0701
34.4488 25.5809
34.6357 25.2817
34.8227 25.1075
35.0098 24.838
35.1969 24.572
35.3842 24.2789
35.5716 24.064
35.759 23.7857
35.9468 23.4087
36.1345 23.2183
36.3222 22.9481
36.5101 22.7901
36.6981 22.4174
36.8861 22.1712
37.0743 21.765
37.2626 21.5041
37.451 21.285
37.6395 21.0942
37.8281 20.7108
38.0168 20.4606
38.2056 20.215
38.3945 19.9357
38.5837 19.7094
38.7728 19.4873
38.9621 19.2074
39.1514 18.9801
39.3409 18.7328
39.5304 18.4793
39.7201 18.3206
39.9099 18.0379
40.0999 17.7977
40.2899 17.5945
40.48 17.3808
40.6703 17.107
40.8607 16.9721
41.0512 16.7476
41.242 16.4865
41.4327 16.3031
41.6236 16.0184
41.8146 15.8238
42.0057 15.6495
42.1969 15.4062
42.3882 15.2405
42.5797 14.9981
42.7713 14.7794
42.963 14.6117
43.1549 14.3945
43.3468 14.1834
43.5389 14.0545
43.7312 13.8298
43.9237 13.6197
44.1162 13.4364
44.3088 13.257
44.5016 13.0467
44.6945 12.8753
44.8875 12.7541
45.0806 12.517
45.2739 12.3556
45.4673 12.1678
45.6609 12.0145
45.8546 11.8329
46.0484 11.7215
46.2424 11.525
46.4365 11.3688
46.631 11.1961
46.8254 11.0083
47.0199 10.882
47.2146 10.6682
47.4095 10.5394
47.6044 10.3684
47.7996 10.2446
47.9948 10.078
48.1902 9.95085
48.3858 9.82682
48.5815 9.6787
48.7774 9.497
48.9734 9.35293
49.1696 9.24042
49.3661 9.11852
49.5626 8.9402
49.7592 8.83734
49.956 8.70467
50.153 8.55169
50.3501 8.38392
50.5474 8.30524
50.7448 8.17658
50.9424 8.04513
51.1402 7.92361
51.3381 7.80498
51.5362 7.66648
51.7344 7.51792
51.9328 7.40124
52.1316 7.2752
52.3304 7.18963
52.5293 7.00212
52.7284 6.93654
52.9276 6.80198
53.1271 6.71201
53.3267 6.59473
53.5265 6.4477
53.7264 6.38069
53.9266 6.24033
54.1269 6.12063
54.3274 6.01317
54.528 5.9107
54.7289 5.69071
54.9301 5.56935
55.1314 5.41339
55.3328 5.20157
55.5344 5.01691
55.7361 4.91717

File: Ni3Fe_FD0516.xy
TT I
1.27165 7.54522
1.45013 6.05287
1.62863 5.34069
1.80712 4.99053
1.98562 4.68523
2.16411 5.29512
2.34263 5.7522
2.52115 6.49081
2.69965 7.83858
2.87818 9.68533
3.05672 11.4218
3.23527 14.9367
3.4138 19.173
3.59237 24.7684
3.77094 26.3651
3.9495 30.5224
4.12809 35.7898
4.30669 239.403
4.4853 68.335
4.6639 55.9479
4.84253 67.9259
5.02118 87.3868
5.19981 386.373
5.37848 204.918
5.55716 104.109
5.73586 93.2218
5.91455 95.4983
6.09328 4095.55
6.27201 85.4199
6.45075 68.3176
6.62952 63.8483
6.8083 59.5928
6.98711 56.6147
7.16591 56.0717
7.34475 97.3471
7.5236 55.8976
7.70247 56.5641
7.88135 58.7517
8.06026 63.0961
8.23919 70.3804
8.41812 86.0372
8.59709 1133.7
8.77609 101.975
8.9551 93.501
9.13412 82.8171
9.31318 84.0394
9.49226 85.0279
9.67134 100.498
9.85047 101.097
10.0296 346.902
10.2088 449.867
10.388 106.363
10.5672 492.882
10.7465 87.8809
10.9257 79.8846
11.105 73.0268
11.2844 71.9307
11.4637 65.6353
11.6431 64.5456
11.8225 63.1143
12.002 64.1614
12.1814 150.536
12.3609 72.428
12.5405 65.3779
12.72 71.491
12.8996 71.6648
13.0792 79.7612
13.2589 232.497
13.4386 131.907
13.6183 239.467
13.7981 102.978
13.9779 76.8614
14.1577 73.4137
14.3376 73.0609
14.5175 69.6742
14.6974 71.268
14.8774 110.579
15.0574 156.277
15.2374 72.0855
15.4175 67.0437
15.5976 66.4691
15.7778 95.1819
15.958 161.333
16.1382 63.9379
16.3185 59.603
16.4988 56.2717
16.6792 55.2764
16.8596 55.8916
17.04 56.4029
17.2205 66.9575
17.401 72.5763
17.5815 60.0048
17.7622 61.8468
17.9428 74.6575
18.1237 137.574
18.3044 90.2764
18.4852 80.6407
18.666 61.2114
18.8469 58.8088
19.0278 57.7542
19.2088 60.1988
19.3898 76.9793
19.5709 55.0113
19.752 53.9633
19.9332 56.768
20.1144 70.2385
20.2957 63.8825
20.477 54.7459
20.6586 50.2957
20.84 49.5286
21.0215 49.3561
21.203 51.2077
21.3846 49.7373
21.5662 49.4433
21.7479 53.2844
21.9297 64.9646
22.1115 56.4204
22.2933 50.7674
22.4753 49.6063
22.6572 49.383
22.8393 52.5351
23.0214 58.1178
23.2037 49.3876
23.3859 50.4109
23.5682 56.9794
23.7505 49.2077
23.9329 45.8467
24.1154 44.7055
24.2979 44.0554
24.4805 43.3839
24.6631 43.5184
24.8458 42.7238
25.0286 43.2839
25.2114 45.2063
25.3943 45.2265
25.5773 41.4204
25.7605 40.8716
25.9436 41.4932
26.1268 42.2609
26.31 40.6844
26.4933 41.3618
26.6767 42.6959
26.8601 41.0256
27.0437 39.4891
27.2272 39.016
27.4109 38.8315
27.5946 38.9284
27.7784 38.4414
27.9623 38.8034
28.1462 39.3364
28.3304 37.7461
28.5145 36.4055
28.6987 36.1081
28.8829 35.9536
29.0673 34.9833
29.2517 34.8552
29.4361 34.528
29.6207 33.5638
29.8053 33.2092
29.99 32.9539
30.1748 32.7993
30.3597 32.6127
30.5447 32.5568
30.7297 32.671
30.915 32.1085
31.1002 31.5427
31.2855 31.306
31.4708 31.2212
31.6563 30.7492
31.8418 30.55
32.0275 30.3058
32.2132 29.7276
32.399 29.194
32.5848 28.8972
32.7708 28.542
32.9569 28.349
33.143 28.127
33.3293 27.7924
33.5158 27.3647
33.7022 26.93
33.8887 26.6447
34.0753 26.301
34.262 25.9746
34.4488 25.6651
34.6357 25.3119
34.8227 24.9608
35.0098 24.792
35.1969 24.4423
35.3842 24.3058
35.5716 24.1235
35.759 23.7778
35.9468 23.4163
36.1345 23.1798
36.3222 22.9557
36.5101 22.6867
36.6981 22.4579
36.8861 22.1198
37.0743 21.7467
37.2626 21.4985
37.451 21.2791
37.6395 21.0602
37.8281 20.7827
38.0168 20.4658
38.2056 20.2149
38.3945 19.958
38.5837 19.723
38.7728 19.4652
38.9621 19.2349
39.1514 18.9629
39.3409 18.7223
39.5304 18.4468
39.7201 18.2984
39.9099 18.0491
40.0999 17.82
40.2899 17.6471
40.48 17.3751
40.6703 17.1346
40.8607 16.9591
41.0512 16.7106
41.242 16.4985
41.4327 16.3002
41.6236 16.0687
41.8146 15.8478
42.0057 15.6074
42.1969 15.4207
42.3882 15.2389
42.5797 15.0499
42.7713 14.8144
42.963 14.6298
43.1549 14.3923
43.3468 14.181
43.5389 14.0005
43.7312 13.8034
43.9237 13.6124
44.1162 13.4602
44.3088 13.2647
44.5016 13.0451
44.6945 12.8739
44.8875 12.693
45.0806 12.5325
45.2739 12.3494
45.4673 12.1915
45.6609 12.0354
45.8546 11.843
46.0484 11.6696
46.2424 11.4801
46.4365 11.369
46.631 11.1307
46.8254 10.9853
47.0199 10.8144
47.2146 10.6874
47.4095 10.5263
47.6044 10.3725
47.7996 10.2019
47.9948 10.0492
48.1902 9.89893
48.3858 9.7478
48.5815 9.60061
48.7774 9.47593
48.9734 9.38343
49.1696 9.23056
49.3661 9.07705
49.5626 8.94003
49.7592 8.80292
49.956 8.69194
50.153 8.56465
50.3501 8.41653
50.5474 8.28587
50.7448 8.17071
50.9424 8.05829
51.1402 7.88844
51.3381 7.74118
51.5362 7.6155
51.7344 7.53997
51.9328 7.41036
52.1316 7.297
52.3304 7.18858
52.5293 7.02591
52.7284 6.90212
52.9276 6.8323
53.1271 6.68634
53.3267 6.58089
53.5265 6.42093
53.7264 6.39794
53.9266 6.25311
54.1269 6.12418
54.3274 5.98952
54.528 5.87973
54.7289 5.71661
54.9301 5.60635
55.1314 5.39479
55.3328 5.20388
55.5344 5.00882
55.7361 4.8495

File: Ni3Fe_FD0517.xy
TT I
1.27165 7.47784
1.45013 6.35157
1.62863 5.70717
1.80712 4.84967
1.98562 4.64628
2.16411 5.00259
2.34263 5.43003
2.52115 5.90281
2.69965 7.17545
2.87818 8.69272
3.05672 11.8515
3.23527 14.7455
3.4138 19.0887
3.59237 24.1846
3.77094 26.4107
3.9495 30.2443
4.12809 35.6116
4.30669 241.719
4.4853 68.3339
4.6639 56.0222
4.84253 67.7741
5.02118 87.9046
5.19981 384.138
5.37848 205.213
5.55716 103.848
5.73586 93.1167
5.91455 95.7869
6.09328 4089.48
6.27201 85.0847
6.45075 68.5372
6.62952 63.5516
6.8083 59.4902
6.98711 56.3883
7.16591 56.412
7.34475 97.6074
7.5236 55.4878
7.70247 56.9077
7.88135 58.4618
8.06026 62.8644
8.23919 70.3408
8.41812 86.568
8.59709 1129.29
8.77609 102.467
8.9551 93.4613
9.13412 82.4408
9.31318 83.3232
9.49226 85.2584
9.67134 101.105
9.85047 100.827
10.0296 345.267
10.2088 449.219
10.388 106.525
10.5672 492.424
10.7465 87.9207
10.9257 79.6591
11.105 72.8144
11.2844 71.5664
11.4637 65.7303
11.6431 64.1479
11.8225 63.4363
12.002 64.2336
12.1814 150.242
12.3609 72.6126
12.5405 65.2105
12.72 71.455
12.8996 71.9342
13.0792 79.5267
13.2589 231.653
13.4386 132.145
13.6183 239.449
13.7981 102.824
13.9779 76.5146
14.1577 73.4916
14.3376 72.4917
14.5175 69.6966
14.6974 71.1761
14.8774 110.081
15.0574 156.403
15.2374 72.2427
15.4175 67.3223
15.5976 66.4724
15.7778 95.2056
15.958 161.805
16.1382 64.0363
16.3185 59.8067
16.4988 56.2032
16.6792 55.3213
16.8596 56.0821
17.04 56.4133
17.2205 67.2538
17.401 72.7491
17.5815 60.071
17.7622 61.8263
17.9428 74.4399
18.1237 137.878
18.3044 90.3325
18.4852 80.6083
18.666 61.2661
18.8469 58.7629
19.0278 57.6043
19.2088 60.2812
19.3898 76.9567
19.5709 54.9942
19.752 54.0062
19.9332 56.8935
20.1144 70.3342
20.2957 64.0388
20.477 54.7961
20.6586 50.2235
20.84 49.4271
21.0215 49.2288
21.203 51.1805
21.3846 49.821
21.5662 49.2777
21.7479 53.234
21.9297 64.9047
22.1115 56.3692
22.2933 50.651
22.4753 49.4084
22.6572 49.4562
22.8393 52.2788
23.0214 58.2164
23.2037 49.3752
23.3859 50.3084
23.5682 57.004
23.7505 49.2803
23.9329 45.6635
24.1154 44.6153
24.2979 44.1404
24.4805 43.4493
24.6631 43.4395
24.8458 42.8727
25.0286 43.4528
25.2114 45.0357
25.3943 45.2391
25.5773 41.5099
25.7605 40.8824
25.9436 41.3943
26.1268 42.1943
26.31 40.6661
26.4933 41.1911
26.6767 42.753
26.8601 41.004
27.0437 39.3293
27.2272 39.0412
27.4109 38.9596
27.5946 38.8624
27.7784 38.3657
27.9623 38.809
28.1462 39.3663
28.3304 37.7726
28.5145 36.3894
28.6987 36.0473
28.8829 35.9379
29.0673 35.0681
29.2517 34.6612
29.4361 34.617
29.6207 33.5175
29.8053 33.3213
29.99 32.992
30.1748 32.9043
30.3597 32.6222
30.5447 32.5702
30.7297 32.5635
30.915 31.9836
31.1002 31.5503
31.2855 31.3029
31.4708 31.1813
31.6563 30.795
31.8418 30.4085
32.0275 30.3445
32.2132 29.7941
32.399 29.2723
32.5848 28.9809
32.7708 28.5976
32.9569 28.3632
33.143 28.1422
33.3293 27.7637
33.5158 27.38
33.7022 26.9424
33.8887 26.6309
34.0753 26.3001
34.262 25.9236
34.4488 25.6909
34.6357 25.3141
34.8227 25.014
35.0098 24.7752
35.1969 24.4622
35.3842 24.3253
35.5716 24.1211
35.759 23.7509
35.9468 23.4119
36.1345 23.1916
36.3222 23.0107
36.5101 22.6699
36.6981 22.4123
36.8861 22.0309
37.0743 21.742
37.2626 21.6094
37.451 21.2782
37.6395 21.0647
37.8281 20.8172
38.0168 20.4483
38.2056 20.2199
38.3945 20.023
38.5837 19.6268
38.7728 19.4625
38.9621 19.1461
39.1514 18.9231
39.3409 18.6905
39.5304 18.5124
39.7201 18.2466
39.9099 18.0605
40.0999 17.7632
40.2899 17.6647
40.48 17.3374
40.6703 17.1346
40.8607 17.0141
41.0512 16.7128
41.242 16.4117
41.4327 16.2663
41.6236 16.0505
41.8146 15.8723
42.0057 15.6458
42.1969 15.4042
42.3882 15.2238
42.5797 15.0183
42.7713 14.7996
42.963 14.6354
43.1549 14.4114
43.3468 14.193
43.5389 14.0528
43.7312 13.7898
43.9237 13.6562
44.1162 13.4578
44.3088 13.2394
44.5016 13.052
44.6945 12.8589
44.8875 12.7148
45.0806 12.5126
45.2739 12.3682
45.4673 12.226
45.6609 12.0427
45.8546 11.8352
46.0484 11.6775
46.2424 11.4663
46.4365 11.3395
46.631 11.1328
46.8254 10.9623
47.0199 10.831
47.2146 10.6832
47.4095 10.5461
47.6044 10.3597
47.7996 10.226
47.9948 10.0764
48.1902 9.91939
48.3858 9.78732
48.5815 9.65943
48.7774 9.53498
48.9734 9.32844
49.1696 9.21446
49.3661 9.06449
49.5626 8.93358
49.7592 8.80387
49.956 8.69448
50.153 8.52387
50.3501 8.42089
50.5474 8.30505
50.7448 8.15464
50.9424 8.03202
51.1402 7.89008
51.3381 7.77145
51.5362 7.68057
51.7344 7.52805
51.9328 7.41239
52.1316 7.28231
52.3304 7.13388
52.5293 7.03106
52.7284 6.937
52.9276 6.83314
53.1271 6.68463
53.3267 6.59034
53.5265 6.47309
53.7264 6.36801
53.9266 6.25754
54.1269 6.15464
54.3274 6.04801
54.528 5.86355
54.7289 5.71914
54.9301 5.54489
55.1314 5.4375
55.3328 5.22636
55.5344 5.08045
55.7361 4.87985