Folder: NiFe_MOF_catalyst_paper/XRD (part 154)

File: Ni3Fe_FD0835.xy
TT I
1.27165 7.1015
1.45013 5.9848
1.62863 5.3879
1.80712 4.58001
1.98562 4.81421
2.16411 4.81609
2.34263 5.37482
2.52115 7.14288
2.69965 8.4869
2.87818 8.81445
3.05672 11.1222
3.23527 15.2509
3.4138 18.6038
3.59237 23.3128
3.77094 25.6136
3.9495 29.675
4.12809 34.6587
4.30669 137.479
4.4853 57.4023
4.6639 55.6288
4.84253 67.3582
5.02118 87.2935
5.19981 336.518
5.37848 187.034
5.55716 101.851
5.73586 91.859
5.91455 93.5458
6.09328 4343.6
6.27201 80.7844
6.45075 68.3415
6.62952 62.405
6.8083 58.5994
6.98711 55.5513
7.16591 55.5567
7.34475 74.2476
7.5236 54.0804
7.70247 56.1145
7.88135 57.3256
8.06026 62.2545
8.23919 68.9376
8.41812 83.6722
8.59709 1187.24
8.77609 97.745
8.9551 89.3053
9.13412 82.1953
9.31318 82.7686
9.49226 84.142
9.67134 95.4906
9.85047 100.072
10.0296 337.267
10.2088 399.483
10.388 102.81
10.5672 524.283
10.7465 85.5123
10.9257 77.4864
11.105 70.9807
11.2844 68.5396
11.4637 64.2205
11.6431 62.8916
11.8225 62.1087
12.002 63.144
12.1814 156.313
12.3609 67.6467
12.5405 64.0276
12.72 68.007
12.8996 70.4423
13.0792 78.4874
13.2589 245.244
13.4386 122.552
13.6183 252.199
13.7981 96.3464
13.9779 75.218
14.1577 71.4067
14.3376 69.9956
14.5175 68.2663
14.6974 69.5989
14.8774 110.957
15.0574 145.27
15.2374 69.2151
15.4175 65.846
15.5976 65.0937
15.7778 95.1703
15.958 150.85
16.1382 61.2279
16.3185 57.3332
16.4988 54.8944
16.6792 53.9803
16.8596 54.5133
17.04 55.382
17.2205 66.6263
17.401 69.7184
17.5815 58.6925
17.7622 60.8069
17.9428 72.9796
18.1237 137.691
18.3044 91.0694
18.4852 75.948
18.666 59.6936
18.8469 57.4063
19.0278 55.9931
19.2088 58.7907
19.3898 74.4775
19.5709 53.6201
19.752 52.7077
19.9332 55.7855
20.1144 69.2043
20.2957 63.7256
20.477 53.091
20.6586 49.1751
20.84 48.3064
21.0215 47.9183
21.203 50.4573
21.3846 48.4349
21.5662 48.4455
21.7479 52.1266
21.9297 63.6583
22.1115 55.4713
22.2933 49.3493
22.4753 48.1721
22.6572 48.3697
22.8393 51.5981
23.0214 56.506
23.2037 48.2816
23.3859 49.207
23.5682 56.5783
23.7505 47.7842
23.9329 44.875
24.1154 43.6635
24.2979 42.9077
24.4805 42.4387
24.6631 42.4136
24.8458 41.7167
25.0286 42.6758
25.2114 44.071
25.3943 44.0485
25.5773 40.5632
25.7605 39.9997
25.9436 40.3545
26.1268 41.2485
26.31 39.6874
26.4933 40.3805
26.6767 41.6588
26.8601 39.9103
27.0437 38.4705
27.2272 38.1804
27.4109 37.9661
27.5946 38.0103
27.7784 37.4749
27.9623 38.0566
28.1462 38.4752
28.3304 36.7748
28.5145 35.6997
28.6987 35.3502
28.8829 34.9361
29.0673 34.3184
29.2517 34.0378
29.4361 33.8646
29.6207 32.8114
29.8053 32.5088
29.99 32.2116
30.1748 32.141
30.3597 31.9447
30.5447 31.8822
30.7297 31.9521
30.915 31.3252
31.1002 30.7712
31.2855 30.5601
31.4708 30.5215
31.6563 30.0653
31.8418 29.824
32.0275 29.6235
32.2132 29.1045
32.399 28.6453
32.5848 28.0954
32.7708 27.8311
32.9569 27.8056
33.143 27.5509
33.3293 27.0642
33.5158 26.7177
33.7022 26.2847
33.8887 25.9675
34.0753 25.7112
34.262 25.3739
34.4488 25.0257
34.6357 24.7578
34.8227 24.4741
35.0098 24.1591
35.1969 24.0176
35.3842 23.7636
35.5716 23.5424
35.759 23.2329
35.9468 22.9058
36.1345 22.6205
36.3222 22.4636
36.5101 22.1862
36.6981 21.8425
36.8861 21.5755
37.0743 21.2071
37.2626 21.0276
37.451 20.7388
37.6395 20.6001
37.8281 20.277
38.0168 19.9885
38.2056 19.7108
38.3945 19.5138
38.5837 19.2679
38.7728 18.9864
38.9621 18.7579
39.1514 18.5471
39.3409 18.2486
39.5304 18.0827
39.7201 17.8498
39.9099 17.6852
40.0999 17.3551
40.2899 17.184
40.48 16.9277
40.6703 16.7536
40.8607 16.5401
41.0512 16.3036
41.242 16.0683
41.4327 15.9029
41.6236 15.6518
41.8146 15.497
42.0057 15.2564
42.1969 15.0674
42.3882 14.8794
42.5797 14.6615
42.7713 14.4784
42.963 14.2839
43.1549 14.0812
43.3468 13.8616
43.5389 13.7025
43.7312 13.4633
43.9237 13.2897
44.1162 13.1398
44.3088 12.9698
44.5016 12.7653
44.6945 12.6074
44.8875 12.4395
45.0806 12.2453
45.2739 12.0397
45.4673 11.972
45.6609 11.7143
45.8546 11.578
46.0484 11.4136
46.2424 11.2168
46.4365 11.0906
46.631 10.9492
46.8254 10.7547
47.0199 10.6271
47.2146 10.4724
47.4095 10.3061
47.6044 10.1261
47.7996 9.97642
47.9948 9.85864
48.1902 9.69423
48.3858 9.5946
48.5815 9.43831
48.7774 9.29797
48.9734 9.14717
49.1696 8.97453
49.3661 8.89434
49.5626 8.68088
49.7592 8.59387
49.956 8.49665
50.153 8.32733
50.3501 8.20134
50.5474 8.09304
50.7448 7.98394
50.9424 7.8444
51.1402 7.71758
51.3381 7.57681
51.5362 7.48226
51.7344 7.3473
51.9328 7.19953
52.1316 7.09167
52.3304 6.96883
52.5293 6.86813
52.7284 6.74948
52.9276 6.6239
53.1271 6.53569
53.3267 6.45152
53.5265 6.34292
53.7264 6.1594
53.9266 6.09868
54.1269 5.99249
54.3274 5.88848
54.528 5.69618
54.7289 5.55043
54.9301 5.42499
55.1314 5.30057
55.3328 5.08954
55.5344 4.91506
55.7361 4.74657

File: Ni3Fe_FD0836.xy
TT I
1.27165 7.079
1.45013 6.19654
1.62863 5.3929
1.80712 4.40026
1.98562 4.87432
2.16411 4.79524
2.34263 4.88574
2.52115 6.79289
2.69965 8.19023
2.87818 9.05288
3.05672 11.3352
3.23527 15.6848
3.4138 18.6698
3.59237 23.8225
3.77094 26.0631
3.9495 29.4912
4.12809 34.6998
4.30669 146.575
4.4853 58.0497
4.6639 54.938
4.84253 67.2343
5.02118 86.2477
5.19981 333.26
5.37848 184.836
5.55716 100.972
5.73586 91.5583
5.91455 93.2434
6.09328 4362.62
6.27201 80.5997
6.45075 67.7862
6.62952 62.1838
6.8083 58.3527
6.98711 55.1103
7.16591 55.4526
7.34475 75.4661
7.5236 53.8679
7.70247 55.9874
7.88135 57.1192
8.06026 61.7285
8.23919 68.798
8.41812 83.5166
8.59709 1187.89
8.77609 97.7563
8.9551 89.2058
9.13412 81.657
9.31318 82.7024
9.49226 83.9509
9.67134 95.1306
9.85047 99.3709
10.0296 332.583
10.2088 402.697
10.388 103.062
10.5672 523.039
10.7465 85.3225
10.9257 77.0841
11.105 71.1768
11.2844 68.7041
11.4637 64.1652
11.6431 62.9392
11.8225 61.8735
12.002 62.8142
12.1814 157.066
12.3609 67.7975
12.5405 64.3617
12.72 68.0797
12.8996 70.4411
13.0792 78.2949
13.2589 244.659
13.4386 122.671
13.6183 251.584
13.7981 96.3569
13.9779 75.015
14.1577 71.3526
14.3376 70.1975
14.5175 68.1225
14.6974 69.6172
14.8774 110.801
15.0574 145.23
15.2374 69.3619
15.4175 65.7572
15.5976 64.9347
15.7778 94.801
15.958 150.859
16.1382 61.1866
16.3185 57.5833
16.4988 54.7708
16.6792 53.8691
16.8596 54.4803
17.04 55.1544
17.2205 66.5964
17.401 69.7045
17.5815 58.4154
17.7622 60.5179
17.9428 72.7175
18.1237 137.607
18.3044 91.3193
18.4852 75.9886
18.666 59.7751
18.8469 57.6279
19.0278 56.1986
19.2088 58.5586
19.3898 74.9124
19.5709 53.6703
19.752 52.6836
19.9332 55.7335
20.1144 69.1957
20.2957 63.725
20.477 53.1063
20.6586 48.9753
20.84 48.3478
21.0215 47.9495
21.203 50.46
21.3846 48.574
21.5662 48.4163
21.7479 52.2017
21.9297 63.5458
22.1115 55.4995
22.2933 49.3212
22.4753 48.1326
22.6572 48.3377
22.8393 51.6294
23.0214 56.3482
23.2037 48.2655
23.3859 49.1228
23.5682 56.4497
23.7505 47.8496
23.9329 44.797
24.1154 43.5527
24.2979 42.9516
24.4805 42.6149
24.6631 42.3463
24.8458 41.8287
25.0286 42.4902
25.2114 44.2275
25.3943 44.1597
25.5773 40.4943
25.7605 39.9007
25.9436 40.54
26.1268 41.2015
26.31 39.6406
26.4933 40.4419
26.6767 41.6263
26.8601 40.0896
27.0437 38.5153
27.2272 38.1741
27.4109 37.9853
27.5946 37.9314
27.7784 37.4809
27.9623 38.1082
28.1462 38.4118
28.3304 36.7293
28.5145 35.4837
28.6987 35.2919
28.8829 35.1401
29.0673 34.3032
29.2517 33.9721
29.4361 33.6919
29.6207 32.7839
29.8053 32.4913
29.99 32.2307
30.1748 32.0725
30.3597 32.0133
30.5447 31.7914
30.7297 31.8285
30.915 31.3424
31.1002 30.8253
31.2855 30.492
31.4708 30.5328
31.6563 30.0538
31.8418 29.8319
32.0275 29.6591
32.2132 29.0953
32.399 28.6159
32.5848 28.2085
32.7708 27.8146
32.9569 27.7943
33.143 27.4493
33.3293 27.0897
33.5158 26.78
33.7022 26.2989
33.8887 26.0962
34.0753 25.6462
34.262 25.4131
34.4488 25.0418
34.6357 24.698
34.8227 24.5224
35.0098 24.2063
35.1969 23.9562
35.3842 23.7199
35.5716 23.5018
35.759 23.1869
35.9468 22.8796
36.1345 22.6508
36.3222 22.455
36.5101 22.1781
36.6981 21.8693
36.8861 21.5893
37.0743 21.2394
37.2626 21.0569
37.451 20.8097
37.6395 20.6376
37.8281 20.2025
38.0168 19.9505
38.2056 19.6974
38.3945 19.4428
38.5837 19.2077
38.7728 19.0413
38.9621 18.7713
39.1514 18.5165
39.3409 18.2854
39.5304 18.0321
39.7201 17.8716
39.9099 17.6659
40.0999 17.3877
40.2899 17.1375
40.48 16.952
40.6703 16.735
40.8607 16.5617
41.0512 16.3005
41.242 16.0517
41.4327 15.928
41.6236 15.7147
41.8146 15.491
42.0057 15.2443
42.1969 15.0659
42.3882 14.8778
42.5797 14.6616
42.7713 14.4761
42.963 14.2604
43.1549 14.0812
43.3468 13.8682
43.5389 13.682
43.7312 13.4237
43.9237 13.2844
44.1162 13.1337
44.3088 12.9335
44.5016 12.7453
44.6945 12.5399
44.8875 12.3896
45.0806 12.2254
45.2739 12.0982
45.4673 11.892
45.6609 11.7274
45.8546 11.5954
46.0484 11.3924
46.2424 11.2141
46.4365 11.0762
46.631 10.932
46.8254 10.7634
47.0199 10.5785
47.2146 10.4357
47.4095 10.2639
47.6044 10.1355
47.7996 10.0378
47.9948 9.81503
48.1902 9.68795
48.3858 9.54657
48.5815 9.44043
48.7774 9.29849
48.9734 9.13169
49.1696 9.00487
49.3661 8.87098
49.5626 8.71008
49.7592 8.59806
49.956 8.517
50.153 8.34464
50.3501 8.22713
50.5474 8.09211
50.7448 7.94533
50.9424 7.85169
51.1402 7.70755
51.3381 7.60099
51.5362 7.4757
51.7344 7.37699
51.9328 7.2301
52.1316 7.11145
52.3304 6.99713
52.5293 6.88167
52.7284 6.76957
52.9276 6.63694
53.1271 6.57786
53.3267 6.41221
53.5265 6.30704
53.7264 6.20583
53.9266 6.10272
54.1269 6.01072
54.3274 5.89387
54.528 5.75631
54.7289 5.65013
54.9301 5.409
55.1314 5.32311
55.3328 5.09695
55.5344 4.88328
55.7361 4.78131

File: Ni3Fe_FD0837.xy
TT I
1.27165 7.22226
1.45013 6.50924
1.62863 5.27489
1.80712 4.72734
1.98562 4.58214
2.16411 4.54996
2.34263 5.2942
2.52115 7.19368
2.69965 7.86788
2.87818 8.2945
3.05672 10.9744
3.23527 15.4383
3.4138 18.5499
3.59237 23.5852
3.77094 25.9511
3.9495 29.5992
4.12809 34.6212
4.30669 153.154
4.4853 58.6912
4.6639 55.1693
4.84253 67.1959
5.02118 86.2055
5.19981 329.076
5.37848 182.873
5.55716 101.141
5.73586 91.8398
5.91455 93.5261
6.09328 4394.4
6.27201 80.5247
6.45075 67.3792
6.62952 62.2085
6.8083 58.3893
6.98711 55.1803
7.16591 55.0432
7.34475 76.5592
7.5236 54.1731
7.70247 55.8309
7.88135 57.1452
8.06026 61.9508
8.23919 69.1011
8.41812 83.5438
8.59709 1190.69
8.77609 97.1254
8.9551 89.6481
9.13412 81.261
9.31318 82.7822
9.49226 83.9626
9.67134 95.1337
9.85047 99.5395
10.0296 331.369
10.2088 396.002
10.388 102.954
10.5672 525.41
10.7465 85.5746
10.9257 77.7371
11.105 71.2418
11.2844 68.847
11.4637 64.1454
11.6431 63.0671
11.8225 61.9904
12.002 63.2939
12.1814 155.985
12.3609 67.8278
12.5405 64.0894
12.72 68.0452
12.8996 70.3808
13.0792 78.4308
13.2589 245.474
13.4386 122.417
13.6183 252.574
13.7981 96.0965
13.9779 75.258
14.1577 71.2229
14.3376 70.196
14.5175 68.3075
14.6974 69.6177
14.8774 110.68
15.0574 144.252
15.2374 69.4365
15.4175 65.7485
15.5976 65.0351
15.7778 94.859
15.958 149.732
16.1382 61.2798
16.3185 57.8096
16.4988 54.8456
16.6792 53.9238
16.8596 54.5828
17.04 55.3526
17.2205 66.6978
17.401 69.6349
17.5815 58.4686
17.7622 60.5972
17.9428 72.5061
18.1237 137.648
18.3044 91.2337
18.4852 75.7387
18.666 59.9916
18.8469 57.3926
19.0278 56.2269
19.2088 58.786
19.3898 74.6309
19.5709 53.5746
19.752 52.9801
19.9332 55.3906
20.1144 69.0607
20.2957 63.7304
20.477 52.89
20.6586 49.2494
20.84 48.3351
21.0215 48.2339
21.203 50.2881
21.3846 48.2445
21.5662 48.2849
21.7479 52.1217
21.9297 63.6124
22.1115 55.3718
22.2933 49.2106
22.4753 48.4342
22.6572 48.2759
22.8393 51.5835
23.0214 56.3396
23.2037 48.3182
23.3859 49.4039
23.5682 56.4648
23.7505 47.7773
23.9329 44.8572
24.1154 43.6454
24.2979 42.8966
24.4805 42.5603
24.6631 42.4608
24.8458 41.7178
25.0286 42.4391
25.2114 44.1038
25.3943 44.0725
25.5773 40.4607
25.7605 39.8813
25.9436 40.4126
26.1268 41.326
26.31 39.6187
26.4933 40.3403
26.6767 41.7009
26.8601 39.9981
27.0437 38.4827
27.2272 38.0724
27.4109 37.9475
27.5946 37.9706
27.7784 37.4159
27.9623 38.1344
28.1462 38.4526
28.3304 36.6747
28.5145 35.6184
28.6987 35.1991
28.8829 35.0235
29.0673 34.2427
29.2517 33.9283
29.4361 33.7091
29.6207 32.8519
29.8053 32.4198
29.99 32.3195
30.1748 32.0435
30.3597 32.0073
30.5447 31.7694
30.7297 31.8505
30.915 31.3245
31.1002 30.8157
31.2855 30.4913
31.4708 30.5838
31.6563 30.0601
31.8418 29.8279
32.0275 29.5945
32.2132 28.9686
32.399 28.5992
32.5848 28.1339
32.7708 27.8158
32.9569 27.7578
33.143 27.5165
33.3293 27.1994
33.5158 26.7773
33.7022 26.3043
33.8887 25.9854
34.0753 25.6415
34.262 25.35
34.4488 24.9935
34.6357 24.6965
34.8227 24.4474
35.0098 24.2436
35.1969 24.0621
35.3842 23.7714
35.5716 23.5208
35.759 23.2357
35.9468 22.8866
36.1345 22.6142
36.3222 22.4794
36.5101 22.1702
36.6981 21.911
36.8861 21.6412
37.0743 21.2463
37.2626 21.0394
37.451 20.7429
37.6395 20.6243
37.8281 20.2679
38.0168 19.9011
38.2056 19.7549
38.3945 19.5308
38.5837 19.3127
38.7728 18.9772
38.9621 18.7594
39.1514 18.5313
39.3409 18.2373
39.5304 18.0552
39.7201 17.8885
39.9099 17.664
40.0999 17.3778
40.2899 17.162
40.48 16.9236
40.6703 16.746
40.8607 16.5234
41.0512 16.3023
41.242 16.1367
41.4327 15.8704
41.6236 15.7167
41.8146 15.4817
42.0057 15.2729
42.1969 15.0708
42.3882 14.8475
42.5797 14.6442
42.7713 14.4576
42.963 14.2168
43.1549 14.0983
43.3468 13.8767
43.5389 13.653
43.7312 13.4654
43.9237 13.3226
44.1162 13.1006
44.3088 12.98
44.5016 12.7728
44.6945 12.5819
44.8875 12.4224
45.0806 12.2228
45.2739 12.0662
45.4673 11.9009
45.6609 11.7142
45.8546 11.5533
46.0484 11.3675
46.2424 11.2172
46.4365 11.1054
46.631 10.9268
46.8254 10.7722
47.0199 10.5747
47.2146 10.4671
47.4095 10.2582
47.6044 10.1263
47.7996 9.9667
47.9948 9.84258
48.1902 9.66868
48.3858 9.58342
48.5815 9.43862
48.7774 9.32136
48.9734 9.13753
49.1696 9.01813
49.3661 8.86995
49.5626 8.70583
49.7592 8.59067
49.956 8.51442
50.153 8.3391
50.3501 8.1994
50.5474 8.08179
50.7448 7.97235
50.9424 7.85419
51.1402 7.70148
51.3381 7.55798
51.5362 7.49096
51.7344 7.37749
51.9328 7.23445
52.1316 7.08746
52.3304 7.01653
52.5293 6.86065
52.7284 6.7199
52.9276 6.66206
53.1271 6.57803
53.3267 6.43911
53.5265 6.33131
53.7264 6.20538
53.9266 6.11091
54.1269 5.99343
54.3274 5.84262
54.528 5.73285
54.7289 5.58366
54.9301 5.45904
55.1314 5.32142
55.3328 5.09278
55.5344 4.92169
55.7361 4.78065

File: Ni3Fe_FD0838.xy
TT I
1.27165 7.3446
1.45013 6.59738
1.62863 5.29132
1.80712 4.79379
1.98562 4.7192
2.16411 5.23652
2.34263 5.37526
2.52115 7.46855
2.69965 8.64753
2.87818 8.58183
3.05672 11.4794
3.23527 15.2393
3.4138 18.792
3.59237 23.9335
3.77094 26.3386
3.9495 29.4694
4.12809 35.0475
4.30669 159.461
4.4853 59.3498
4.6639 55.1493
4.84253 66.8515
5.02118 86.4209
5.19981 327.847
5.37848 181.335
5.55716 101.314
5.73586 91.5751
5.91455 93.1679
6.09328 4360.13
6.27201 80.8622
6.45075 67.6158
6.62952 62.2913
6.8083 58.1716
6.98711 54.846
7.16591 55.1298
7.34475 78.165
7.5236 54.0784
7.70247 55.7035
7.88135 57.1116
8.06026 61.7916
8.23919 68.8569
8.41812 84.0316
8.59709 1190.78
8.77609 97.602
8.9551 89.3969
9.13412 81.2895
9.31318 82.5888
9.49226 84.1241
9.67134 95.5091
9.85047 99.5248
10.0296 331.457
10.2088 395.901
10.388 103.036
10.5672 524.53
10.7465 85.2944
10.9257 77.4755
11.105 71.0424
11.2844 68.7501
11.4637 63.992
11.6431 63.0771
11.8225 61.9595
12.002 63.0469
12.1814 155.727
12.3609 68.1682
12.5405 63.8889
12.72 68.1685
12.8996 70.6368
13.0792 78.3186
13.2589 245.453
13.4386 121.441
13.6183 252.557
13.7981 96.0077
13.9779 75.1949
14.1577 71.494
14.3376 70.2422
14.5175 68.2515
14.6974 69.5
14.8774 110.279
15.0574 144.193
15.2374 69.6368
15.4175 65.7526
15.5976 65.2178
15.7778 94.374
15.958 148.944
16.1382 61.2179
16.3185 57.8438
16.4988 54.9872
16.6792 54.0374
16.8596 54.4919
17.04 55.1882
17.2205 66.4771
17.401 69.5797
17.5815 58.5649
17.7622 60.6385
17.9428 72.7507
18.1237 137.386
18.3044 91.2465
18.4852 75.7693
18.666 59.7197
18.8469 57.4078
19.0278 56.2097
19.2088 58.5013
19.3898 74.5762
19.5709 53.6572
19.752 52.6051
19.9332 55.6624
20.1144 69.0074
20.2957 63.6275
20.477 52.9597
20.6586 49.2572
20.84 48.1989
21.0215 48.085
21.203 50.4104
21.3846 48.4945
21.5662 48.3186
21.7479 52.0285
21.9297 63.5391
22.1115 55.5268
22.2933 49.1979
22.4753 48.2797
22.6572 48.4314
22.8393 51.5936
23.0214 56.3355
23.2037 48.2993
23.3859 49.2497
23.5682 56.5237
23.7505 47.7736
23.9329 44.7464
24.1154 43.605
24.2979 42.9241
24.4805 42.3344
24.6631 42.4189
24.8458 41.8202
25.0286 42.4634
25.2114 44.1496
25.3943 44.1651
25.5773 40.5003
25.7605 40.06
25.9436 40.4046
26.1268 41.1604
26.31 39.6619
26.4933 40.3759
26.6767 41.6656
26.8601 40.0485
27.0437 38.5231
27.2272 38.1583
27.4109 38.0197
27.5946 37.9483
27.7784 37.4645
27.9623 38.055
28.1462 38.5183
28.3304 36.8457
28.5145 35.5736
28.6987 35.2573
28.8829 35.011
29.0673 34.2938
29.2517 33.9523
29.4361 33.7694
29.6207 32.7033
29.8053 32.5942
29.99 32.1986
30.1748 32.1171
30.3597 31.9241
30.5447 31.704
30.7297 31.9713
30.915 31.2769
31.1002 30.805
31.2855 30.5786
31.4708 30.4205
31.6563 30.0223
31.8418 29.7256
32.0275 29.6232
32.2132 29.0663
32.399 28.675
32.5848 28.2688
32.7708 27.8562
32.9569 27.7067
33.143 27.4829
33.3293 27.1781
33.5158 26.7903
33.7022 26.3256
33.8887 26.0154
34.0753 25.734
34.262 25.3734
34.4488 25.0019
34.6357 24.6968
34.8227 24.4749
35.0098 24.1883
35.1969 23.9513
35.3842 23.8214
35.5716 23.4978
35.759 23.2188
35.9468 22.9556
36.1345 22.6334
36.3222 22.4448
36.5101 22.1926
36.6981 21.9324
36.8861 21.5402
37.0743 21.2799
37.2626 21.0031
37.451 20.8076
37.6395 20.6533
37.8281 20.2993
38.0168 19.9964
38.2056 19.7153
38.3945 19.5565
38.5837 19.2833
38.7728 19.0247
38.9621 18.802
39.1514 18.559
39.3409 18.2619
39.5304 18.0771
39.7201 17.8657
39.9099 17.6519
40.0999 17.4047
40.2899 17.2088
40.48 16.9317
40.6703 16.7181
40.8607 16.5533
41.0512 16.3246
41.242 16.1242
41.4327 15.9231
41.6236 15.7007
41.8146 15.4997
42.0057 15.2907
42.1969 15.0712
42.3882 14.8746
42.5797 14.6644
42.7713 14.5168
42.963 14.2139
43.1549 14.0523
43.3468 13.8705
43.5389 13.6205
43.7312 13.5027
43.9237 13.2878
44.1162 13.1352
44.3088 12.9841
44.5016 12.758
44.6945 12.5731
44.8875 12.4431
45.0806 12.2034
45.2739 12.0626
45.4673 11.8834
45.6609 11.7475
45.8546 11.5942
46.0484 11.4625
46.2424 11.2509
46.4365 11.105
46.631 10.9026
46.8254 10.7143
47.0199 10.5875
47.2146 10.4188
47.4095 10.2885
47.6044 10.1362
47.7996 10.0193
47.9948 9.83448
48.1902 9.70369
48.3858 9.59047
48.5815 9.43959
48.7774 9.27079
48.9734 9.13637
49.1696 9.00739
49.3661 8.86638
49.5626 8.73311
49.7592 8.56208
49.956 8.49106
50.153 8.37134
50.3501 8.20834
50.5474 8.1051
50.7448 7.9595
50.9424 7.83784
51.1402 7.71639
51.3381 7.60589
51.5362 7.46107
51.7344 7.34937
51.9328 7.23085
52.1316 7.10677
52.3304 7.01251
52.5293 6.93615
52.7284 6.7192
52.9276 6.65799
53.1271 6.5896
53.3267 6.40349
53.5265 6.34521
53.7264 6.17362
53.9266 6.10744
54.1269 6.01023
54.3274 5.91178
54.528 5.73415
54.7289 5.56957
54.9301 5.44073
55.1314 5.35653
55.3328 5.0871
55.5344 4.92793
55.7361 4.79759

File: Ni3Fe_FD0839.xy
TT I
1.27165 7.19928
1.45013 6.67586
1.62863 4.76505
1.80712 4.6075
1.98562 5.12677
2.16411 4.71508
2.34263 5.63439
2.52115 6.70845
2.69965 8.57892
2.87818 9.19243
3.05672 11.0462
3.23527 15.2706
3.4138 19.0271
3.59237 23.1908
3.77094 25.5382
3.9495 29.4215
4.12809 34.4602
4.30669 164.957
4.4853 59.8425
4.6639 54.9586
4.84253 66.6969
5.02118 85.9452
5.19981 323.624
5.37848 180.22
5.55716 100.912
5.73586 91.5673
5.91455 92.9413
6.09328 4373.81
6.27201 80.9205
6.45075 67.1558
6.62952 62.3488
6.8083 58.0343
6.98711 55.0439
7.16591 55.011
7.34475 79.6478
7.5236 54.0543
7.70247 55.7614
7.88135 56.8839
8.06026 61.6676
8.23919 68.3763
8.41812 83.6796
8.59709 1188.43
8.77609 97.3856
8.9551 89.5757
9.13412 81.4474
9.31318 82.0572
9.49226 83.8816
9.67134 95.883
9.85047 99.5493
10.0296 327.285
10.2088 400.483
10.388 102.782
10.5672 524.586
10.7465 85.5372
10.9257 77.209
11.105 71.2409
11.2844 68.878
11.4637 64.1519
11.6431 63.0438
11.8225 61.6432
12.002 62.626
12.1814 157.007
12.3609 68.364
12.5405 63.8202
12.72 68.3443
12.8996 70.2941
13.0792 78.2281
13.2589 244.188
13.4386 121.739
13.6183 252.659
13.7981 96.0284
13.9779 75.0803
14.1577 71.5094
14.3376 70.4393
14.5175 68.0885
14.6974 69.5588
14.8774 110.031
15.0574 145.115
15.2374 69.8091
15.4175 65.8467
15.5976 65.16
15.7778 94.4085
15.958 150.591
16.1382 61.4359
16.3185 57.6813
16.4988 54.8298
16.6792 53.9069
16.8596 54.2899
17.04 55.278
17.2205 66.4291
17.401 69.7403
17.5815 58.5796
17.7622 60.6152
17.9428 72.5935
18.1237 137.844
18.3044 91.3306
18.4852 76.0792
18.666 59.6839
18.8469 57.4207
19.0278 56.215
19.2088 58.7675
19.3898 75.1545
19.5709 53.7167
19.752 52.648
19.9332 55.5088
20.1144 69.3103
20.2957 63.6371
20.477 53.0694
20.6586 49.2858
20.84 48.2798
21.0215 48.0258
21.203 50.25
21.3846 48.4573
21.5662 48.4191
21.7479 52.0525
21.9297 63.594
22.1115 55.3898
22.2933 49.4875
22.4753 48.3949
22.6572 48.3784
22.8393 51.5937
23.0214 56.3044
23.2037 48.2668
23.3859 49.2241
23.5682 56.5283
23.7505 47.7516
23.9329 44.7542
24.1154 43.5755
24.2979 42.961
24.4805 42.3717
24.6631 42.2209
24.8458 41.79
25.0286 42.4653
25.2114 44.1866
25.3943 43.9972
25.5773 40.4019
25.7605 39.9095
25.9436 40.3783
26.1268 41.3472
26.31 39.6449
26.4933 40.2559
26.6767 41.5797
26.8601 39.9387
27.0437 38.5733
27.2272 38.0358
27.4109 38.0532
27.5946 37.9806
27.7784 37.4957
27.9623 37.9718
28.1462 38.3702
28.3304 36.6774
28.5145 35.5778
28.6987 35.3529
28.8829 35.115
29.0673 34.3078
29.2517 33.977
29.4361 33.6944
29.6207 32.8448
29.8053 32.5302
29.99 32.3094
30.1748 32.1435
30.3597 31.9358
30.5447 31.8387
30.7297 31.8595
30.915 31.344
31.1002 30.7552
31.2855 30.4924
31.4708 30.5152
31.6563 29.9831
31.8418 29.8306
32.0275 29.5487
32.2132 29.154
32.399 28.616
32.5848 28.196
32.7708 27.8986
32.9569 27.764
33.143 27.4972
33.3293 27.1562
33.5158 26.6741
33.7022 26.3091
33.8887 26.0233
34.0753 25.6834
34.262 25.3286
34.4488 25.0887
34.6357 24.6658
34.8227 24.4804
35.0098 24.2399
35.1969 23.9155
35.3842 23.6884
35.5716 23.5335
35.759 23.2299
35.9468 22.7977
36.1345 22.6697
36.3222 22.3398
36.5101 22.2228
36.6981 21.9108
36.8861 21.6431
37.0743 21.2891
37.2626 21.0202
37.451 20.7889
37.6395 20.6165
37.8281 20.3021
38.0168 19.9514
38.2056 19.7335
38.3945 19.4077
38.5837 19.2568
38.7728 19.0297
38.9621 18.7561
39.1514 18.4964
39.3409 18.2951
39.5304 18.0942
39.7201 17.8343
39.9099 17.6442
40.0999 17.3978
40.2899 17.191
40.48 16.884
40.6703 16.7147
40.8607 16.5787
41.0512 16.3127
41.242 16.1095
41.4327 15.8538
41.6236 15.6973
41.8146 15.4557
42.0057 15.2597
42.1969 15.1042
42.3882 14.9077
42.5797 14.6689
42.7713 14.4898
42.963 14.2571
43.1549 14.0746
43.3468 13.846
43.5389 13.6562
43.7312 13.474
43.9237 13.3125
44.1162 13.129
44.3088 12.9211
44.5016 12.793
44.6945 12.5987
44.8875 12.3946
45.0806 12.2184
45.2739 12.0486
45.4673 11.9036
45.6609 11.7238
45.8546 11.5664
46.0484 11.3833
46.2424 11.2421
46.4365 11.1014
46.631 10.8804
46.8254 10.7151
47.0199 10.6267
47.2146 10.4625
47.4095 10.2944
47.6044 10.1637
47.7996 9.97964
47.9948 9.86748
48.1902 9.67902
48.3858 9.58074
48.5815 9.44137
48.7774 9.29536
48.9734 9.18387
49.1696 9.01663
49.3661 8.85212
49.5626 8.69334
49.7592 8.60511
49.956 8.51258
50.153 8.32768
50.3501 8.2088
50.5474 8.10551
50.7448 7.96206
50.9424 7.83988
51.1402 7.73344
51.3381 7.56943
51.5362 7.4539
51.7344 7.36841
51.9328 7.19706
52.1316 7.07814
52.3304 6.97427
52.5293 6.8558
52.7284 6.7351
52.9276 6.68472
53.1271 6.54302
53.3267 6.41343
53.5265 6.30073
53.7264 6.20306
53.9266 6.06533
54.1269 5.98766
54.3274 5.87078
54.528 5.74745
54.7289 5.57311
54.9301 5.45337
55.1314 5.35991
55.3328 5.12188
55.5344 4.94464
55.7361 4.72347