Folder: NiFe_MOF_catalyst_paper/XRD (part 41)

File: Ni3Fe_FD0210.xy
TT I
1.27165 8.47146
1.45013 6.67543
1.62863 5.92492
1.80712 5.41251
1.98562 4.93632
2.16411 4.59847
2.34263 4.93455
2.52115 5.15969
2.69965 6.10314
2.87818 8.05084
3.05672 11.3914
3.23527 14.6503
3.4138 18.907
3.59237 22.559
3.77094 26.221
3.9495 30.1956
4.12809 35.3191
4.30669 40.1306
4.4853 48.69
4.6639 58.2506
4.84253 71.8838
5.02118 96.8375
5.19981 885.181
5.37848 283.721
5.55716 112.623
5.73586 101.337
5.91455 111.408
6.09328 3561.34
6.27201 90.0502
6.45075 71.1898
6.62952 64.2702
6.8083 60.0092
6.98711 57.5437
7.16591 56.8443
7.34475 56.0055
7.5236 57.0437
7.70247 58.2953
7.88135 60.6752
8.06026 65.29
8.23919 73.5839
8.41812 90.9241
8.59709 1044.26
8.77609 111.716
8.9551 91.1569
9.13412 87.1221
9.31318 88.696
9.49226 89.9131
9.67134 96.1689
9.85047 107.063
10.0296 525.981
10.2088 606.447
10.388 114.886
10.5672 434.537
10.7465 93.0397
10.9257 80.8588
11.105 75.2002
11.2844 71.0462
11.4637 67.8268
11.6431 66.6729
11.8225 65.4902
12.002 68.5269
12.1814 137.141
12.3609 70.5406
12.5405 67.7818
12.72 69.9749
12.8996 74.8513
13.0792 86.0555
13.2589 224.984
13.4386 153.722
13.6183 221.17
13.7981 115.189
13.9779 80.2512
14.1577 75.709
14.3376 73.2423
14.5175 72.9385
14.6974 74.5536
14.8774 119.324
15.0574 177.735
15.2374 72.6686
15.4175 70.0682
15.5976 69.8769
15.7778 103.781
15.958 178.556
16.1382 64.2126
16.3185 60.5457
16.4988 58.286
16.6792 57.3611
16.8596 57.4522
17.04 59.3873
17.2205 68.7694
17.401 78.3897
17.5815 62.4788
17.7622 64.9581
17.9428 83.3115
18.1237 137.247
18.3044 89.9898
18.4852 85.2091
18.666 63.8098
18.8469 61.172
19.0278 59.7701
19.2088 63.0166
19.3898 76.1191
19.5709 57.4641
19.752 56.3759
19.9332 59.6635
20.1144 72.7367
20.2957 64.4906
20.477 57.2568
20.6586 52.2976
20.84 51.4585
21.0215 51.3792
21.203 52.6232
21.3846 51.7713
21.5662 51.9584
21.7479 55.5672
21.9297 66.5889
22.1115 57.8541
22.2933 52.6922
22.4753 51.1389
22.6572 52.034
22.8393 54.2144
23.0214 60.143
23.2037 51.6717
23.3859 52.7397
23.5682 57.5069
23.7505 51.7424
23.9329 47.6209
24.1154 46.3518
24.2979 45.6748
24.4805 44.9587
24.6631 45.0258
24.8458 44.6934
25.0286 45.2362
25.2114 46.7027
25.3943 46.8975
25.5773 43.0987
25.7605 42.7102
25.9436 42.7052
26.1268 43.7265
26.31 42.4128
26.4933 42.6629
26.6767 44.0853
26.8601 42.3302
27.0437 41.0514
27.2272 40.5159
27.4109 40.2441
27.5946 40.32
27.7784 39.817
27.9623 40.0452
28.1462 40.7018
28.3304 39.115
28.5145 37.7564
28.6987 37.3473
28.8829 37.0308
29.0673 36.3951
29.2517 36.0916
29.4361 35.6293
29.6207 34.8067
29.8053 34.5085
29.99 34.1849
30.1748 33.9833
30.3597 33.7835
30.5447 33.6328
30.7297 33.6737
30.915 33.151
31.1002 32.6822
31.2855 32.3482
31.4708 32.4144
31.6563 31.9918
31.8418 31.5061
32.0275 31.3656
32.2132 30.9264
32.399 30.3527
32.5848 29.8461
32.7708 29.5265
32.9569 29.5197
33.143 29.1563
33.3293 28.6984
33.5158 28.4405
33.7022 27.8675
33.8887 27.6234
34.0753 27.2768
34.262 26.8848
34.4488 26.5212
34.6357 26.217
34.8227 25.9512
35.0098 25.6582
35.1969 25.3952
35.3842 25.1642
35.5716 24.9511
35.759 24.5827
35.9468 24.1799
36.1345 24.0043
36.3222 23.749
36.5101 23.4897
36.6981 23.173
36.8861 22.8554
37.0743 22.5765
37.2626 22.289
37.451 21.9961
37.6395 21.8227
37.8281 21.448
38.0168 21.1232
38.2056 20.9338
38.3945 20.6737
38.5837 20.398
38.7728 20.1307
38.9621 19.8197
39.1514 19.5677
39.3409 19.3835
39.5304 19.1318
39.7201 18.9474
39.9099 18.6265
40.0999 18.4214
40.2899 18.1332
40.48 17.9594
40.6703 17.7325
40.8607 17.575
41.0512 17.3481
41.242 17.0523
41.4327 16.7886
41.6236 16.6201
41.8146 16.4123
42.0057 16.1979
42.1969 15.9412
42.3882 15.777
42.5797 15.5103
42.7713 15.3296
42.963 15.0763
43.1549 14.9076
43.3468 14.7114
43.5389 14.4405
43.7312 14.2813
43.9237 14.0922
44.1162 13.9093
44.3088 13.6638
44.5016 13.5187
44.6945 13.3337
44.8875 13.1557
45.0806 12.96
45.2739 12.7602
45.4673 12.6144
45.6609 12.3988
45.8546 12.2865
46.0484 12.0185
46.2424 11.8938
46.4365 11.7496
46.631 11.5172
46.8254 11.3501
47.0199 11.1818
47.2146 11.0086
47.4095 10.8904
47.6044 10.6985
47.7996 10.5682
47.9948 10.3794
48.1902 10.2555
48.3858 10.1387
48.5815 9.97776
48.7774 9.82181
48.9734 9.66352
49.1696 9.50027
49.3661 9.38722
49.5626 9.19725
49.7592 9.09915
49.956 8.95836
50.153 8.79111
50.3501 8.69589
50.5474 8.52782
50.7448 8.41352
50.9424 8.33164
51.1402 8.16701
51.3381 8.0161
51.5362 7.90872
51.7344 7.7388
51.9328 7.64401
52.1316 7.50787
52.3304 7.39456
52.5293 7.23317
52.7284 7.09604
52.9276 7.01057
53.1271 6.91278
53.3267 6.81288
53.5265 6.69183
53.7264 6.55665
53.9266 6.46984
54.1269 6.29874
54.3274 6.15687
54.528 6.02899
54.7289 5.86983
54.9301 5.72945
55.1314 5.55622
55.3328 5.3407
55.5344 5.13222
55.7361 4.99223

File: Ni3Fe_FD0211.xy
TT I
1.27165 7.83918
1.45013 6.91553
1.62863 6.03373
1.80712 5.41449
1.98562 5.05997
2.16411 5.25594
2.34263 4.21869
2.52115 5.3314
2.69965 6.48924
2.87818 7.69283
3.05672 11.192
3.23527 15.1302
3.4138 18.9082
3.59237 22.5634
3.77094 26.2952
3.9495 29.9649
4.12809 35.1643
4.30669 40.6246
4.4853 48.513
4.6639 58.1942
4.84253 71.9391
5.02118 97.2251
5.19981 891.839
5.37848 281.568
5.55716 113.252
5.73586 101.629
5.91455 111.146
6.09328 3564.89
6.27201 89.991
6.45075 71.1881
6.62952 64.2702
6.8083 59.7852
6.98711 57.4664
7.16591 56.6635
7.34475 55.9714
7.5236 56.6329
7.70247 58.5805
7.88135 60.4838
8.06026 65.717
8.23919 73.1797
8.41812 90.8157
8.59709 1047.3
8.77609 112.578
8.9551 91.2424
9.13412 87.3431
9.31318 88.2615
9.49226 90.001
9.67134 96.1043
9.85047 107.119
10.0296 527.116
10.2088 594.726
10.388 115.196
10.5672 437.834
10.7465 92.8519
10.9257 81.0184
11.105 75.443
11.2844 70.9719
11.4637 68.256
11.6431 66.6146
11.8225 65.5942
12.002 68.8033
12.1814 138.031
12.3609 71.2606
12.5405 67.709
12.72 69.783
12.8996 75.347
13.0792 86.5353
13.2589 225.743
13.4386 153.226
13.6183 222.013
13.7981 113.832
13.9779 80.4082
14.1577 75.6795
14.3376 73.2317
14.5175 73.0045
14.6974 74.7978
14.8774 119.391
15.0574 176.853
15.2374 72.66
15.4175 69.9399
15.5976 70.0642
15.7778 103.769
15.958 178.264
16.1382 64.2
16.3185 60.5515
16.4988 58.2972
16.6792 57.17
16.8596 57.4828
17.04 59.5536
17.2205 68.8787
17.401 77.9347
17.5815 62.4971
17.7622 64.8467
17.9428 83.0788
18.1237 137.428
18.3044 90.1208
18.4852 85.1537
18.666 63.7586
18.8469 61.0786
19.0278 59.9495
19.2088 63.0862
19.3898 76.0443
19.5709 57.2281
19.752 56.3416
19.9332 59.6254
20.1144 72.534
20.2957 64.3748
20.477 57.1801
20.6586 52.3178
20.84 51.5028
21.0215 51.5306
21.203 52.5689
21.3846 51.7661
21.5662 51.818
21.7479 55.6316
21.9297 66.68
22.1115 57.8076
22.2933 52.7926
22.4753 51.2201
22.6572 52.0872
22.8393 54.2466
23.0214 60.0324
23.2037 51.6597
23.3859 52.8256
23.5682 57.6023
23.7505 51.6301
23.9329 47.6681
24.1154 46.4052
24.2979 45.6338
24.4805 45.0317
24.6631 44.9511
24.8458 44.6171
25.0286 45.0928
25.2114 46.7914
25.3943 46.5973
25.5773 42.9979
25.7605 42.623
25.9436 42.7452
26.1268 43.6837
26.31 42.3111
26.4933 42.6216
26.6767 44.1494
26.8601 42.4378
27.0437 40.9458
27.2272 40.5525
27.4109 40.3802
27.5946 40.3748
27.7784 39.8896
27.9623 39.9954
28.1462 40.7159
28.3304 39.0275
28.5145 37.7663
28.6987 37.3305
28.8829 37.097
29.0673 36.4876
29.2517 35.9454
29.4361 35.9095
29.6207 34.8368
29.8053 34.531
29.99 34.2459
30.1748 34.0543
30.3597 33.8519
30.5447 33.7395
30.7297 33.6307
30.915 33.2812
31.1002 32.7338
31.2855 32.4159
31.4708 32.311
31.6563 31.9053
31.8418 31.5565
32.0275 31.3579
32.2132 30.8463
32.399 30.3375
32.5848 29.8949
32.7708 29.5664
32.9569 29.3549
33.143 29.1205
33.3293 28.6925
33.5158 28.4019
33.7022 27.9136
33.8887 27.6006
34.0753 27.2764
34.262 26.8664
34.4488 26.5551
34.6357 26.1948
34.8227 25.9173
35.0098 25.696
35.1969 25.3966
35.3842 25.182
35.5716 24.994
35.759 24.6489
35.9468 24.2963
36.1345 23.9686
36.3222 23.7764
36.5101 23.4872
36.6981 23.2096
36.8861 22.9155
37.0743 22.5265
37.2626 22.3201
37.451 22.0517
37.6395 21.849
37.8281 21.5242
38.0168 21.1645
38.2056 20.9014
38.3945 20.6405
38.5837 20.3788
38.7728 20.1849
38.9621 19.8637
39.1514 19.5753
39.3409 19.3884
39.5304 19.1255
39.7201 18.8985
39.9099 18.6908
40.0999 18.4611
40.2899 18.2071
40.48 17.9368
40.6703 17.6914
40.8607 17.5319
41.0512 17.345
41.242 17.0097
41.4327 16.813
41.6236 16.5693
41.8146 16.3935
42.0057 16.1277
42.1969 15.9454
42.3882 15.764
42.5797 15.5232
42.7713 15.3308
42.963 15.0918
43.1549 14.8923
43.3468 14.6761
43.5389 14.4921
43.7312 14.2748
43.9237 14.085
44.1162 13.9101
44.3088 13.699
44.5016 13.4933
44.6945 13.3204
44.8875 13.1236
45.0806 12.9177
45.2739 12.752
45.4673 12.5625
45.6609 12.3584
45.8546 12.2488
46.0484 12.0709
46.2424 11.8478
46.4365 11.7547
46.631 11.5497
46.8254 11.3254
47.0199 11.1617
47.2146 10.9962
47.4095 10.881
47.6044 10.7294
47.7996 10.5708
47.9948 10.3934
48.1902 10.2594
48.3858 10.0787
48.5815 9.95645
48.7774 9.82137
48.9734 9.65394
49.1696 9.54474
49.3661 9.32542
49.5626 9.22689
49.7592 9.13513
49.956 8.94992
50.153 8.78215
50.3501 8.67817
50.5474 8.57406
50.7448 8.42712
50.9424 8.28322
51.1402 8.14924
51.3381 8.04221
51.5362 7.96648
51.7344 7.76335
51.9328 7.63787
52.1316 7.50769
52.3304 7.41367
52.5293 7.23952
52.7284 7.16018
52.9276 7.03287
53.1271 6.93861
53.3267 6.78905
53.5265 6.6645
53.7264 6.5754
53.9266 6.44808
54.1269 6.34639
54.3274 6.17008
54.528 6.05993
54.7289 5.84789
54.9301 5.68191
55.1314 5.51857
55.3328 5.33285
55.5344 5.14685
55.7361 4.97053

File: Ni3Fe_FD0212.xy
TT I
1.27165 7.79228
1.45013 7.02897
1.62863 6.40271
1.80712 5.56408
1.98562 5.33945
2.16411 4.36689
2.34263 4.42315
2.52115 4.90329
2.69965 6.14979
2.87818 7.9329
3.05672 10.8865
3.23527 15.1924
3.4138 19.3544
3.59237 22.5969
3.77094 26.082
3.9495 30.1339
4.12809 34.8441
4.30669 40.705
4.4853 48.7691
4.6639 58.3448
4.84253 72.0243
5.02118 97.1144
5.19981 888.186
5.37848 281.684
5.55716 112.978
5.73586 101.316
5.91455 111.743
6.09328 3578.74
6.27201 89.8078
6.45075 71.5089
6.62952 64.1526
6.8083 60.2008
6.98711 57.5621
7.16591 56.8051
7.34475 55.7402
7.5236 56.7006
7.70247 58.1224
7.88135 60.3938
8.06026 65.3043
8.23919 73.388
8.41812 90.8138
8.59709 1048.16
8.77609 111.846
8.9551 91.0276
9.13412 87.0167
9.31318 88.7187
9.49226 89.8539
9.67134 95.7025
9.85047 107.142
10.0296 525.302
10.2088 593.464
10.388 114.419
10.5672 436.835
10.7465 92.7735
10.9257 80.9666
11.105 74.9197
11.2844 70.8657
11.4637 68.1374
11.6431 66.5034
11.8225 65.4923
12.002 68.7857
12.1814 138.03
12.3609 70.6313
12.5405 67.7817
12.72 69.9687
12.8996 75.0094
13.0792 86.1889
13.2589 225.992
13.4386 152.737
13.6183 222.476
13.7981 114.369
13.9779 80.2184
14.1577 75.6462
14.3376 73.181
14.5175 72.6401
14.6974 74.8853
14.8774 119.323
15.0574 177.375
15.2374 72.4838
15.4175 69.9333
15.5976 70.0341
15.7778 103.838
15.958 178.612
16.1382 64.3105
16.3185 60.4823
16.4988 58.1859
16.6792 57.1623
16.8596 57.6161
17.04 59.3816
17.2205 68.9045
17.401 78.0239
17.5815 62.5235
17.7622 64.6478
17.9428 83.1943
18.1237 137.433
18.3044 90.1119
18.4852 85.3495
18.666 63.582
18.8469 61.0913
19.0278 59.6569
19.2088 63.2777
19.3898 76.3202
19.5709 57.2423
19.752 56.281
19.9332 59.7569
20.1144 72.393
20.2957 64.3533
20.477 57.2107
20.6586 52.0744
20.84 51.4315
21.0215 51.209
21.203 52.7557
21.3846 51.7617
21.5662 51.8209
21.7479 55.5989
21.9297 66.4931
22.1115 57.8321
22.2933 52.8433
22.4753 50.9266
22.6572 52.0431
22.8393 54.2706
23.0214 60.0901
23.2037 51.469
23.3859 52.7787
23.5682 57.3864
23.7505 51.749
23.9329 47.6263
24.1154 46.288
24.2979 45.645
24.4805 44.9995
24.6631 44.9739
24.8458 44.4746
25.0286 45.2518
25.2114 46.5972
25.3943 46.7907
25.5773 43.0491
25.7605 42.6607
25.9436 42.747
26.1268 43.8251
26.31 42.394
26.4933 42.6626
26.6767 43.9846
26.8601 42.4777
27.0437 40.7836
27.2272 40.5559
27.4109 40.2967
27.5946 40.3715
27.7784 39.8851
27.9623 39.9817
28.1462 40.6088
28.3304 38.9868
28.5145 37.7367
28.6987 37.3127
28.8829 36.9814
29.0673 36.4148
29.2517 35.9492
29.4361 35.8351
29.6207 34.7911
29.8053 34.4547
29.99 34.0846
30.1748 33.9713
30.3597 33.8756
30.5447 33.7792
30.7297 33.6522
30.915 33.2001
31.1002 32.6336
31.2855 32.3574
31.4708 32.2738
31.6563 32.0082
31.8418 31.5659
32.0275 31.3569
32.2132 30.8445
32.399 30.3563
32.5848 29.8264
32.7708 29.518
32.9569 29.4489
33.143 29.2095
33.3293 28.7805
33.5158 28.3444
33.7022 27.8792
33.8887 27.6272
34.0753 27.3094
34.262 26.853
34.4488 26.4723
34.6357 26.1636
34.8227 25.926
35.0098 25.5619
35.1969 25.3737
35.3842 25.1251
35.5716 24.9353
35.759 24.5834
35.9468 24.2722
36.1345 24.03
36.3222 23.7411
36.5101 23.4768
36.6981 23.177
36.8861 22.8893
37.0743 22.5322
37.2626 22.2777
37.451 21.9153
37.6395 21.9105
37.8281 21.4207
38.0168 21.1786
38.2056 20.8967
38.3945 20.6744
38.5837 20.3619
38.7728 20.1816
38.9621 19.9025
39.1514 19.6258
39.3409 19.3552
39.5304 19.1223
39.7201 18.948
39.9099 18.6991
40.0999 18.4236
40.2899 18.1943
40.48 17.9658
40.6703 17.688
40.8607 17.5669
41.0512 17.2866
41.242 17.024
41.4327 16.776
41.6236 16.616
41.8146 16.3835
42.0057 16.1538
42.1969 15.9519
42.3882 15.7691
42.5797 15.5452
42.7713 15.3312
42.963 15.0973
43.1549 14.8971
43.3468 14.6737
43.5389 14.4618
43.7312 14.3135
43.9237 14.0578
44.1162 13.8789
44.3088 13.7368
44.5016 13.4775
44.6945 13.3104
44.8875 13.121
45.0806 12.9488
45.2739 12.8027
45.4673 12.6063
45.6609 12.402
45.8546 12.2465
46.0484 12.0425
46.2424 11.8696
46.4365 11.7119
46.631 11.5683
46.8254 11.3336
47.0199 11.1826
47.2146 11.0408
47.4095 10.8808
47.6044 10.7184
47.7996 10.5345
47.9948 10.3895
48.1902 10.2557
48.3858 10.0928
48.5815 9.97537
48.7774 9.80282
48.9734 9.715
49.1696 9.50035
49.3661 9.34747
49.5626 9.21163
49.7592 9.07929
49.956 8.95709
50.153 8.83413
50.3501 8.66816
50.5474 8.52852
50.7448 8.40791
50.9424 8.28457
51.1402 8.17233
51.3381 7.98681
51.5362 7.90325
51.7344 7.78377
51.9328 7.62313
52.1316 7.46131
52.3304 7.42224
52.5293 7.26237
52.7284 7.1537
52.9276 7.03798
53.1271 6.87035
53.3267 6.79173
53.5265 6.67076
53.7264 6.55364
53.9266 6.44339
54.1269 6.32352
54.3274 6.16839
54.528 6.00613
54.7289 5.86126
54.9301 5.70703
55.1314 5.58505
55.3328 5.34688
55.5344 5.13384
55.7361 4.97398

File: Ni3Fe_FD0213.xy
TT I
1.27165 7.79361
1.45013 6.75821
1.62863 5.88964
1.80712 5.58378
1.98562 5.62218
2.16411 4.71823
2.34263 4.81557
2.52115 4.62919
2.69965 6.0632
2.87818 8.20637
3.05672 11.083
3.23527 14.6916
3.4138 19.3286
3.59237 22.1765
3.77094 26.2325
3.9495 30.0817
4.12809 35.1023
4.30669 40.5778
4.4853 48.8187
4.6639 58.4352
4.84253 71.6461
5.02118 97.1077
5.19981 889.587
5.37848 281.122
5.55716 112.764
5.73586 101.739
5.91455 111.307
6.09328 3581.41
6.27201 89.5699
6.45075 71.2498
6.62952 64.2737
6.8083 59.9175
6.98711 57.3592
7.16591 56.5907
7.34475 55.8709
7.5236 56.6748
7.70247 57.8726
7.88135 60.4758
8.06026 65.6701
8.23919 73.069
8.41812 90.6855
8.59709 1047.61
8.77609 111.95
8.9551 90.7771
9.13412 87.3023
9.31318 88.4215
9.49226 89.8773
9.67134 95.5909
9.85047 106.779
10.0296 524.431
10.2088 584.559
10.388 114.598
10.5672 436.066
10.7465 92.769
10.9257 80.6269
11.105 75.168
11.2844 70.6571
11.4637 67.9924
11.6431 66.3963
11.8225 65.3253
12.002 68.5613
12.1814 137.749
12.3609 70.6024
12.5405 67.5258
12.72 69.6713
12.8996 74.9123
13.0792 86.4283
13.2589 225.954
13.4386 152.952
13.6183 222.084
13.7981 114.699
13.9779 80.2472
14.1577 75.4371
14.3376 73.3005
14.5175 72.7062
14.6974 74.6482
14.8774 119.149
15.0574 177.764
15.2374 72.7544
15.4175 69.86
15.5976 69.9444
15.7778 103.712
15.958 178.958
16.1382 63.8566
16.3185 60.3144
16.4988 58.1312
16.6792 57.0032
16.8596 57.4174
17.04 59.3684
17.2205 68.8256
17.401 78.114
17.5815 62.2159
17.7622 64.6207
17.9428 83.1098
18.1237 137.936
18.3044 90.1023
18.4852 85.167
18.666 63.5987
18.8469 61.1859
19.0278 59.8002
19.2088 63.0358
19.3898 76.0584
19.5709 57.2661
19.752 56.1873
19.9332 59.7132
20.1144 72.4465
20.2957 64.4014
20.477 57.2947
20.6586 52.1569
20.84 51.3407
21.0215 51.1982
21.203 52.6399
21.3846 51.6658
21.5662 51.9709
21.7479 55.5608
21.9297 66.6008
22.1115 57.6414
22.2933 52.7966
22.4753 51.0933
22.6572 52.1893
22.8393 54.2173
23.0214 60.081
23.2037 51.5692
23.3859 52.8743
23.5682 57.4511
23.7505 51.6333
23.9329 47.5724
24.1154 46.2261
24.2979 45.4915
24.4805 44.8926
24.6631 44.9817
24.8458 44.4064
25.0286 45.2998
25.2114 46.7209
25.3943 46.8498
25.5773 43.1134
25.7605 42.6044
25.9436 42.744
26.1268 43.7362
26.31 42.3259
26.4933 42.6474
26.6767 44.1311
26.8601 42.5356
27.0437 40.9163
27.2272 40.4187
27.4109 40.1348
27.5946 40.4374
27.7784 39.9798
27.9623 40.0606
28.1462 40.704
28.3304 39.0694
28.5145 37.7629
28.6987 37.3299
28.8829 36.9451
29.0673 36.4448
29.2517 35.9725
29.4361 35.7187
29.6207 34.8305
29.8053 34.5705
29.99 34.1963
30.1748 33.9978
30.3597 33.9753
30.5447 33.721
30.7297 33.7282
30.915 33.1862
31.1002 32.746
31.2855 32.3858
31.4708 32.2724
31.6563 31.8363
31.8418 31.6118
32.0275 31.375
32.2132 30.8671
32.399 30.312
32.5848 29.956
32.7708 29.5415
32.9569 29.2923
33.143 29.0903
33.3293 28.7186
33.5158 28.4064
33.7022 27.8254
33.8887 27.6136
34.0753 27.2123
34.262 26.9406
34.4488 26.5718
34.6357 26.2006
34.8227 25.8769
35.0098 25.6851
35.1969 25.3392
35.3842 25.0875
35.5716 24.9042
35.759 24.5893
35.9468 24.2502
36.1345 24.0177
36.3222 23.8396
36.5101 23.4332
36.6981 23.2341
36.8861 22.8493
37.0743 22.4696
37.2626 22.3724
37.451 22.013
37.6395 21.8359
37.8281 21.5207
38.0168 21.1738
38.2056 20.8937
38.3945 20.5833
38.5837 20.3435
38.7728 20.1359
38.9621 19.9075
39.1514 19.6013
39.3409 19.3295
39.5304 19.1766
39.7201 18.8244
39.9099 18.6942
40.0999 18.4213
40.2899 18.1995
40.48 17.886
40.6703 17.7352
40.8607 17.5408
41.0512 17.2907
41.242 17.0543
41.4327 16.779
41.6236 16.5767
41.8146 16.4085
42.0057 16.1622
42.1969 15.9445
42.3882 15.7161
42.5797 15.4956
42.7713 15.2669
42.963 15.1094
43.1549 14.899
43.3468 14.6778
43.5389 14.474
43.7312 14.2396
43.9237 14.1188
44.1162 13.917
44.3088 13.679
44.5016 13.4756
44.6945 13.2699
44.8875 13.1287
45.0806 12.9663
45.2739 12.7514
45.4673 12.5643
45.6609 12.4022
45.8546 12.2289
46.0484 12.0586
46.2424 11.8972
46.4365 11.6942
46.631 11.5245
46.8254 11.3735
47.0199 11.1811
47.2146 11.0128
47.4095 10.8529
47.6044 10.7151
47.7996 10.5829
47.9948 10.4248
48.1902 10.2503
48.3858 10.0915
48.5815 9.96638
48.7774 9.8287
48.9734 9.63531
49.1696 9.52016
49.3661 9.38923
49.5626 9.20777
49.7592 9.11299
49.956 8.97166
50.153 8.81389
50.3501 8.68352
50.5474 8.56064
50.7448 8.40797
50.9424 8.27478
51.1402 8.16263
51.3381 8.04463
51.5362 7.89893
51.7344 7.70958
51.9328 7.59777
52.1316 7.49425
52.3304 7.38629
52.5293 7.2713
52.7284 7.15698
52.9276 7.02074
53.1271 6.90528
53.3267 6.80308
53.5265 6.68619
53.7264 6.55171
53.9266 6.45072
54.1269 6.30137
54.3274 6.16208
54.528 6.02228
54.7289 5.84577
54.9301 5.69185
55.1314 5.53587
55.3328 5.32566
55.5344 5.15818
55.7361 5.00652

File: Ni3Fe_FD0214.xy
TT I
1.27165 7.66335
1.45013 6.34026
1.62863 6.58141
1.80712 5.04371
1.98562 5.15098
2.16411 4.5129
2.34263 4.65806
2.52115 4.46773
2.69965 6.44649
2.87818 7.52926
3.05672 11.4326
3.23527 15.3027
3.4138 19.3678
3.59237 22.5802
3.77094 25.8029
3.9495 30.3613
4.12809 34.783
4.30669 40.6508
4.4853 48.7566
4.6639 58.2085
4.84253 71.9427
5.02118 97.4393
5.19981 893.483
5.37848 279.931
5.55716 112.887
5.73586 101.468
5.91455 111.442
6.09328 3596.49
6.27201 89.9118
6.45075 71.0282
6.62952 64.2769
6.8083 60.0309
6.98711 57.6131
7.16591 56.3833
7.34475 56.1299
7.5236 56.782
7.70247 58.0464
7.88135 60.2448
8.06026 65.8124
8.23919 73.2126
8.41812 91.2695
8.59709 1053.64
8.77609 111.755
8.9551 91.1748
9.13412 87.4951
9.31318 88.2781
9.49226 90.1334
9.67134 95.9262
9.85047 106.771
10.0296 526.246
10.2088 575.532
10.388 115.125
10.5672 435.671
10.7465 92.8889
10.9257 81.0816
11.105 75.0924
11.2844 70.9052
11.4637 68.019
11.6431 66.5841
11.8225 65.3885
12.002 68.7649
12.1814 138.725
12.3609 70.8758
12.5405 67.4526
12.72 69.9742
12.8996 74.7992
13.0792 86.3645
13.2589 226.493
13.4386 151.775
13.6183 223.366
13.7981 114.152
13.9779 80.335
14.1577 75.7618
14.3376 73.4337
14.5175 72.8461
14.6974 74.5758
14.8774 119.697
15.0574 176.43
15.2374 72.5952
15.4175 70.1919
15.5976 70.1128
15.7778 103.654
15.958 178.667
16.1382 64.161
16.3185 60.2397
16.4988 58.1314
16.6792 57.2619
16.8596 57.4084
17.04 59.4322
17.2205 69.0142
17.401 78.0067
17.5815 62.3752
17.7622 64.9812
17.9428 83.0643
18.1237 137.648
18.3044 90.1611
18.4852 84.7703
18.666 63.7065
18.8469 61.1993
19.0278 59.7998
19.2088 63.2286
19.3898 76.2042
19.5709 57.2053
19.752 56.2549
19.9332 59.7413
20.1144 72.3753
20.2957 64.4166
20.477 57.1332
20.6586 52.1902
20.84 51.4153
21.0215 51.1538
21.203 52.6521
21.3846 51.8203
21.5662 52.0146
21.7479 55.7434
21.9297 66.6644
22.1115 57.7255
22.2933 52.695
22.4753 51.1346
22.6572 52.0445
22.8393 54.4082
23.0214 60.1025
23.2037 51.5586
23.3859 52.9749
23.5682 57.5021
23.7505 51.6387
23.9329 47.5111
24.1154 46.2689
24.2979 45.6673
24.4805 44.96
24.6631 45.0412
24.8458 44.4493
25.0286 45.1891
25.2114 46.4996
25.3943 46.6573
25.5773 42.9978
25.7605 42.6691
25.9436 42.792
26.1268 43.6972
26.31 42.3489
26.4933 42.7966
26.6767 44.0514
26.8601 42.4385
27.0437 40.8311
27.2272 40.489
27.4109 40.2609
27.5946 40.5259
27.7784 39.9029
27.9623 39.9428
28.1462 40.7022
28.3304 39.0817
28.5145 37.7308
28.6987 37.2485
28.8829 37.0982
29.0673 36.4046
29.2517 36.0885
29.4361 35.7647
29.6207 34.8042
29.8053 34.5237
29.99 34.2362
30.1748 33.918
30.3597 33.9394
30.5447 33.6647
30.7297 33.8442
30.915 33.2059
31.1002 32.6203
31.2855 32.3481
31.4708 32.2964
31.6563 31.8872
31.8418 31.6071
32.0275 31.3996
32.2132 30.7916
32.399 30.4008
32.5848 29.9007
32.7708 29.5534
32.9569 29.3745
33.143 29.0094
33.3293 28.7295
33.5158 28.3008
33.7022 27.8301
33.8887 27.668
34.0753 27.2447
34.262 26.8523
34.4488 26.5239
34.6357 26.1141
34.8227 25.9174
35.0098 25.6587
35.1969 25.4192
35.3842 25.1209
35.5716 24.8674
35.759 24.5233
35.9468 24.2373
36.1345 24.0183
36.3222 23.7467
36.5101 23.5167
36.6981 23.2006
36.8861 22.8569
37.0743 22.5265
37.2626 22.3286
37.451 21.9824
37.6395 21.747
37.8281 21.4347
38.0168 21.1203
38.2056 20.8963
38.3945 20.6294
38.5837 20.388
38.7728 20.121
38.9621 19.9268
39.1514 19.5407
39.3409 19.3457
39.5304 19.1035
39.7201 18.8953
39.9099 18.6594
40.0999 18.3813
40.2899 18.1532
40.48 17.9655
40.6703 17.7212
40.8607 17.5151
41.0512 17.3551
41.242 17.084
41.4327 16.7702
41.6236 16.6048
41.8146 16.4453
42.0057 16.1539
42.1969 15.9335
42.3882 15.7128
42.5797 15.4805
42.7713 15.3108
42.963 15.0893
43.1549 14.912
43.3468 14.6762
43.5389 14.4559
43.7312 14.2657
43.9237 14.0973
44.1162 13.8856
44.3088 13.7119
44.5016 13.5004
44.6945 13.324
44.8875 13.143
45.0806 12.9569
45.2739 12.7788
45.4673 12.62
45.6609 12.4111
45.8546 12.2447
46.0484 12.0676
46.2424 11.8731
46.4365 11.7661
46.631 11.5403
46.8254 11.3424
47.0199 11.1884
47.2146 11.0573
47.4095 10.8368
47.6044 10.683
47.7996 10.5326
47.9948 10.383
48.1902 10.2206
48.3858 10.0736
48.5815 9.96899
48.7774 9.836
48.9734 9.67956
49.1696 9.49545
49.3661 9.33818
49.5626 9.20807
49.7592 9.08634
49.956 8.95128
50.153 8.83204
50.3501 8.70787
50.5474 8.52883
50.7448 8.4432
50.9424 8.31023
51.1402 8.14962
51.3381 7.99658
51.5362 7.87619
51.7344 7.78168
51.9328 7.65819
52.1316 7.52237
52.3304 7.37548
52.5293 7.2449
52.7284 7.14539
52.9276 6.99765
53.1271 6.93643
53.3267 6.83113
53.5265 6.67426
53.7264 6.55152
53.9266 6.43448
54.1269 6.31042
54.3274 6.17901
54.528 6.03446
54.7289 5.84578
54.9301 5.7206
55.1314 5.54218
55.3328 5.32589
55.5344 5.09328
55.7361 4.96958