Folder: NiFe_MOF_catalyst_paper/XRD (part 115)

File: Ni3Fe_FD0623.xy
TT I
1.27165 6.96123
1.45013 6.51473
1.62863 5.2844
1.80712 4.38841
1.98562 3.93774
2.16411 4.84209
2.34263 5.24676
2.52115 7.22567
2.69965 7.59517
2.87818 9.14115
3.05672 11.0627
3.23527 15.0021
3.4138 18.9631
3.59237 23.9823
3.77094 26.0735
3.9495 30.2457
4.12809 35.1447
4.30669 218.911
4.4853 65.8395
4.6639 55.6562
4.84253 67.4271
5.02118 87.0881
5.19981 349.267
5.37848 194.507
5.55716 102.826
5.73586 92.8283
5.91455 94.0779
6.09328 4378.0
6.27201 83.6358
6.45075 67.8431
6.62952 63.1567
6.8083 59.2421
6.98711 56.268
7.16591 55.5925
7.34475 92.6981
7.5236 55.18
7.70247 56.6793
7.88135 57.86
8.06026 62.0678
8.23919 69.5909
8.41812 85.7142
8.59709 1171.22
8.77609 100.59
8.9551 92.1627
9.13412 81.9001
9.31318 82.5993
9.49226 84.6711
9.67134 99.5233
9.85047 100.218
10.0296 337.373
10.2088 422.913
10.388 105.218
10.5672 503.822
10.7465 87.2317
10.9257 78.9726
11.105 72.3581
11.2844 70.6657
11.4637 65.3449
11.6431 63.9544
11.8225 62.885
12.002 63.7372
12.1814 152.454
12.3609 71.2473
12.5405 65.0369
12.72 70.4881
12.8996 70.9782
13.0792 79.07
13.2589 236.795
13.4386 128.296
13.6183 247.209
13.7981 100.321
13.9779 76.0462
14.1577 72.7433
14.3376 72.0722
14.5175 69.2255
14.6974 70.5646
14.8774 110.578
15.0574 151.194
15.2374 71.6857
15.4175 66.5725
15.5976 65.888
15.7778 94.6697
15.958 156.778
16.1382 63.1019
16.3185 59.2252
16.4988 55.8614
16.6792 54.715
16.8596 55.6031
17.04 56.0084
17.2205 66.9528
17.401 72.8366
17.5815 59.43
17.7622 61.6207
17.9428 73.7465
18.1237 138.935
18.3044 90.8711
18.4852 78.7032
18.666 60.8097
18.8469 58.4263
19.0278 57.2623
19.2088 59.6618
19.3898 76.4804
19.5709 54.4496
19.752 53.5693
19.9332 56.3446
20.1144 69.8785
20.2957 64.1723
20.477 54.2207
20.6586 49.8758
20.84 49.0702
21.0215 48.9603
21.203 51.0228
21.3846 49.3332
21.5662 48.9777
21.7479 52.8765
21.9297 64.3055
22.1115 56.2811
22.2933 50.1762
22.4753 49.0625
22.6572 49.0318
22.8393 52.1568
23.0214 57.5119
23.2037 48.952
23.3859 50.0644
23.5682 57.1866
23.7505 48.7981
23.9329 45.4494
24.1154 44.389
24.2979 43.6244
24.4805 43.108
24.6631 43.0287
24.8458 42.4021
25.0286 43.1236
25.2114 44.7713
25.3943 44.9133
25.5773 41.2698
25.7605 40.6559
25.9436 41.1159
26.1268 41.7167
26.31 40.3599
26.4933 40.9829
26.6767 42.395
26.8601 40.7122
27.0437 39.1258
27.2272 38.6576
27.4109 38.6056
27.5946 38.5585
27.7784 38.0962
27.9623 38.5892
28.1462 39.0038
28.3304 37.3443
28.5145 36.173
28.6987 35.7264
28.8829 35.5369
29.0673 34.8466
29.2517 34.4727
29.4361 34.3343
29.6207 33.3262
29.8053 33.0221
29.99 32.7624
30.1748 32.5986
30.3597 32.4899
30.5447 32.2578
30.7297 32.3776
30.915 31.881
31.1002 31.2579
31.2855 31.0324
31.4708 31.0197
31.6563 30.4344
31.8418 30.3185
32.0275 29.9855
32.2132 29.4693
32.399 29.1708
32.5848 28.6242
32.7708 28.3466
32.9569 28.173
33.143 27.9476
33.3293 27.521
33.5158 27.1591
33.7022 26.8315
33.8887 26.4974
34.0753 26.0967
34.262 25.741
34.4488 25.4868
34.6357 25.1976
34.8227 24.8964
35.0098 24.7182
35.1969 24.3282
35.3842 24.0672
35.5716 23.965
35.759 23.5842
35.9468 23.1885
36.1345 23.0401
36.3222 22.8
36.5101 22.608
36.6981 22.2803
36.8861 21.9409
37.0743 21.6085
37.2626 21.3214
37.451 21.1342
37.6395 20.9363
37.8281 20.5728
38.0168 20.3153
38.2056 20.0165
38.3945 19.8037
38.5837 19.5644
38.7728 19.3548
38.9621 19.0767
39.1514 18.8272
39.3409 18.5574
39.5304 18.287
39.7201 18.1705
39.9099 17.8854
40.0999 17.6865
40.2899 17.4641
40.48 17.2299
40.6703 17.046
40.8607 16.8816
41.0512 16.5979
41.242 16.37
41.4327 16.086
41.6236 15.9145
41.8146 15.7682
42.0057 15.5376
42.1969 15.3015
42.3882 15.1366
42.5797 14.9244
42.7713 14.7339
42.963 14.4884
43.1549 14.2948
43.3468 14.1045
43.5389 13.9368
43.7312 13.7066
43.9237 13.504
44.1162 13.321
44.3088 13.1512
44.5016 12.9336
44.6945 12.7822
44.8875 12.5777
45.0806 12.479
45.2739 12.2632
45.4673 12.1005
45.6609 11.8983
45.8546 11.7902
46.0484 11.5845
46.2424 11.3969
46.4365 11.2978
46.631 11.0458
46.8254 10.9194
47.0199 10.7972
47.2146 10.6009
47.4095 10.4178
47.6044 10.2722
47.7996 10.1149
47.9948 9.97462
48.1902 9.85172
48.3858 9.7241
48.5815 9.5857
48.7774 9.44293
48.9734 9.29706
49.1696 9.15867
49.3661 9.032
49.5626 8.85951
49.7592 8.74602
49.956 8.62619
50.153 8.5048
50.3501 8.34482
50.5474 8.22301
50.7448 8.07331
50.9424 7.955
51.1402 7.82197
51.3381 7.73559
51.5362 7.60882
51.7344 7.46252
51.9328 7.3189
52.1316 7.1846
52.3304 7.10867
52.5293 6.98613
52.7284 6.88605
52.9276 6.73368
53.1271 6.63774
53.3267 6.56048
53.5265 6.3839
53.7264 6.30332
53.9266 6.18345
54.1269 6.09578
54.3274 5.94965
54.528 5.79789
54.7289 5.67491
54.9301 5.50832
55.1314 5.32886
55.3328 5.19714
55.5344 5.02392
55.7361 4.85472

File: Ni3Fe_FD0624.xy
TT I
1.27165 7.66016
1.45013 5.75388
1.62863 5.41017
1.80712 4.76119
1.98562 5.16649
2.16411 4.68237
2.34263 5.39583
2.52115 7.17048
2.69965 7.89705
2.87818 8.09703
3.05672 11.3617
3.23527 15.3148
3.4138 19.1285
3.59237 24.4522
3.77094 26.4439
3.9495 30.0321
4.12809 35.3369
4.30669 222.748
4.4853 66.4311
4.6639 55.865
4.84253 67.3436
5.02118 86.8567
5.19981 346.638
5.37848 194.828
5.55716 102.406
5.73586 92.2135
5.91455 94.2081
6.09328 4379.57
6.27201 83.7293
6.45075 67.7876
6.62952 63.3392
6.8083 58.8592
6.98711 56.4111
7.16591 55.4735
7.34475 93.744
7.5236 54.9501
7.70247 56.071
7.88135 58.026
8.06026 62.4722
8.23919 70.2818
8.41812 85.8108
8.59709 1169.72
8.77609 100.35
8.9551 91.9682
9.13412 81.9441
9.31318 82.6566
9.49226 84.4934
9.67134 99.4021
9.85047 100.193
10.0296 335.227
10.2088 425.587
10.388 104.964
10.5672 502.935
10.7465 87.3775
10.9257 78.7606
11.105 72.1107
11.2844 70.8011
11.4637 65.1233
11.6431 63.7304
11.8225 62.5221
12.002 63.6802
12.1814 150.912
12.3609 71.3335
12.5405 64.9484
12.72 70.3915
12.8996 71.0106
13.0792 78.9706
13.2589 235.383
13.4386 129.001
13.6183 245.837
13.7981 100.491
13.9779 76.2806
14.1577 73.0135
14.3376 72.0335
14.5175 68.9416
14.6974 70.7513
14.8774 110.301
15.0574 151.519
15.2374 71.5606
15.4175 66.677
15.5976 66.1042
15.7778 94.6951
15.958 157.053
16.1382 63.1027
16.3185 59.0724
16.4988 55.7856
16.6792 54.6885
16.8596 55.5567
17.04 55.9976
17.2205 66.9371
17.401 72.6501
17.5815 59.6636
17.7622 61.4817
17.9428 73.4953
18.1237 138.717
18.3044 90.9201
18.4852 78.85
18.666 60.8677
18.8469 58.2386
19.0278 57.2927
19.2088 59.8548
19.3898 76.4033
19.5709 54.6421
19.752 53.5607
19.9332 56.3415
20.1144 69.8265
20.2957 63.9638
20.477 54.3382
20.6586 49.886
20.84 48.9005
21.0215 48.8349
21.203 51.1385
21.3846 49.1466
21.5662 48.8599
21.7479 52.6586
21.9297 64.5547
22.1115 56.261
22.2933 50.0896
22.4753 49.262
22.6572 49.0707
22.8393 52.0085
23.0214 57.649
23.2037 49.0795
23.3859 49.9602
23.5682 57.0289
23.7505 48.7995
23.9329 45.5073
24.1154 44.3608
24.2979 43.6261
24.4805 43.0981
24.6631 43.1351
24.8458 42.5201
25.0286 42.9464
25.2114 44.8447
25.3943 44.7277
25.5773 41.1477
25.7605 40.6314
25.9436 40.9845
26.1268 41.8705
26.31 40.1858
26.4933 41.0789
26.6767 42.3333
26.8601 40.6884
27.0437 39.0239
27.2272 38.6416
27.4109 38.5959
27.5946 38.5262
27.7784 38.0977
27.9623 38.6756
28.1462 38.8918
28.3304 37.3565
28.5145 36.1044
28.6987 35.8155
28.8829 35.56
29.0673 34.8217
29.2517 34.4895
29.4361 34.3266
29.6207 33.3268
29.8053 33.1687
29.99 32.8038
30.1748 32.6873
30.3597 32.5098
30.5447 32.2941
30.7297 32.4447
30.915 31.8394
31.1002 31.3524
31.2855 31.0469
31.4708 30.9937
31.6563 30.4325
31.8418 30.2582
32.0275 30.0426
32.2132 29.5652
32.399 29.1115
32.5848 28.5792
32.7708 28.3109
32.9569 28.1861
33.143 27.8866
33.3293 27.6145
33.5158 27.2707
33.7022 26.7941
33.8887 26.4646
34.0753 26.1618
34.262 25.9471
34.4488 25.4175
34.6357 25.0928
34.8227 24.8449
35.0098 24.665
35.1969 24.3072
35.3842 24.1418
35.5716 23.9193
35.759 23.6301
35.9468 23.2143
36.1345 23.0815
36.3222 22.7795
36.5101 22.5297
36.6981 22.2546
36.8861 21.9237
37.0743 21.6181
37.2626 21.3747
37.451 21.1686
37.6395 20.9079
37.8281 20.5341
38.0168 20.3181
38.2056 20.077
38.3945 19.7681
38.5837 19.573
38.7728 19.3232
38.9621 19.0593
39.1514 18.829
39.3409 18.57
39.5304 18.3489
39.7201 18.1779
39.9099 17.9208
40.0999 17.7273
40.2899 17.4778
40.48 17.2012
40.6703 16.9795
40.8607 16.8364
41.0512 16.5641
41.242 16.3767
41.4327 16.1344
41.6236 15.8799
41.8146 15.7459
42.0057 15.5428
42.1969 15.3241
42.3882 15.1555
42.5797 14.9172
42.7713 14.6921
42.963 14.4913
43.1549 14.3428
43.3468 14.0258
43.5389 13.9327
43.7312 13.665
43.9237 13.4801
44.1162 13.3482
44.3088 13.1548
44.5016 12.9486
44.6945 12.7997
44.8875 12.6801
45.0806 12.5288
45.2739 12.2867
45.4673 12.0783
45.6609 11.9233
45.8546 11.7437
46.0484 11.5999
46.2424 11.4555
46.4365 11.2586
46.631 11.0713
46.8254 10.9093
47.0199 10.7608
47.2146 10.6573
47.4095 10.4482
47.6044 10.3195
47.7996 10.1672
47.9948 9.96035
48.1902 9.87313
48.3858 9.70248
48.5815 9.58809
48.7774 9.44891
48.9734 9.27991
49.1696 9.17729
49.3661 9.03831
49.5626 8.86346
49.7592 8.74544
49.956 8.5794
50.153 8.50738
50.3501 8.37383
50.5474 8.22517
50.7448 8.10202
50.9424 7.95469
51.1402 7.85132
51.3381 7.71217
51.5362 7.62581
51.7344 7.45288
51.9328 7.3165
52.1316 7.21742
52.3304 7.1232
52.5293 6.94759
52.7284 6.88859
52.9276 6.7587
53.1271 6.67835
53.3267 6.54446
53.5265 6.44914
53.7264 6.31915
53.9266 6.24089
54.1269 6.09384
54.3274 5.95912
54.528 5.82067
54.7289 5.65902
54.9301 5.49843
55.1314 5.33877
55.3328 5.11709
55.5344 4.90209
55.7361 4.87056

File: Ni3Fe_FD0625.xy
TT I
1.27165 7.9998
1.45013 6.43415
1.62863 4.32425
1.80712 4.27493
1.98562 4.17722
2.16411 5.23061
2.34263 6.07229
2.52115 6.82021
2.69965 8.14091
2.87818 8.751
3.05672 11.1663
3.23527 15.0764
3.4138 19.1911
3.59237 24.1652
3.77094 26.0335
3.9495 29.8938
4.12809 35.394
4.30669 222.292
4.4853 67.1541
4.6639 55.9774
4.84253 67.5331
5.02118 87.5456
5.19981 348.14
5.37848 194.546
5.55716 102.477
5.73586 92.4111
5.91455 93.9429
6.09328 4377.95
6.27201 84.4742
6.45075 67.2554
6.62952 63.1493
6.8083 59.3618
6.98711 56.537
7.16591 55.867
7.34475 93.4266
7.5236 55.0967
7.70247 56.3655
7.88135 58.1951
8.06026 62.6109
8.23919 69.8787
8.41812 85.8456
8.59709 1168.52
8.77609 100.701
8.9551 92.0912
9.13412 82.1775
9.31318 82.9009
9.49226 84.8997
9.67134 99.2028
9.85047 99.8316
10.0296 336.005
10.2088 421.119
10.388 105.23
10.5672 504.954
10.7465 87.1275
10.9257 79.0664
11.105 72.2661
11.2844 71.0011
11.4637 65.3933
11.6431 64.0413
11.8225 63.1514
12.002 63.5217
12.1814 151.48
12.3609 71.3216
12.5405 64.9622
12.72 70.5972
12.8996 71.1408
13.0792 79.2556
13.2589 235.426
13.4386 128.394
13.6183 246.231
13.7981 99.8394
13.9779 76.1271
14.1577 72.9409
14.3376 72.0755
14.5175 69.2143
14.6974 70.801
14.8774 110.387
15.0574 151.039
15.2374 71.4969
15.4175 66.7182
15.5976 66.0019
15.7778 94.8566
15.958 156.376
16.1382 63.1484
16.3185 59.2223
16.4988 55.8844
16.6792 54.8007
16.8596 55.6192
17.04 56.2419
17.2205 66.8987
17.401 72.5859
17.5815 59.5754
17.7622 61.4756
17.9428 73.6918
18.1237 138.602
18.3044 90.9099
18.4852 78.73
18.666 60.7613
18.8469 58.3639
19.0278 57.2747
19.2088 59.8348
19.3898 76.5612
19.5709 54.4393
19.752 53.4046
19.9332 56.5816
20.1144 69.5893
20.2957 63.8584
20.477 54.2466
20.6586 50.0236
20.84 49.0288
21.0215 48.9549
21.203 51.0392
21.3846 49.2859
21.5662 48.9688
21.7479 52.8198
21.9297 64.472
22.1115 56.2583
22.2933 50.4607
22.4753 49.0942
22.6572 48.8993
22.8393 52.0203
23.0214 57.5598
23.2037 49.1865
23.3859 50.0122
23.5682 57.0337
23.7505 48.8032
23.9329 45.404
24.1154 44.3825
24.2979 43.633
24.4805 43.2735
24.6631 43.0766
24.8458 42.3816
25.0286 43.0755
25.2114 44.7741
25.3943 44.8906
25.5773 41.221
25.7605 40.4595
25.9436 41.12
26.1268 41.8537
26.31 40.3969
26.4933 40.9374
26.6767 42.2958
26.8601 40.6479
27.0437 39.1202
27.2272 38.7031
27.4109 38.6076
27.5946 38.5767
27.7784 37.9649
27.9623 38.5137
28.1462 38.9736
28.3304 37.3336
28.5145 36.0722
28.6987 35.8989
28.8829 35.6157
29.0673 34.8711
29.2517 34.387
29.4361 34.3051
29.6207 33.3548
29.8053 33.081
29.99 32.8517
30.1748 32.609
30.3597 32.459
30.5447 32.3662
30.7297 32.4538
30.915 31.8658
31.1002 31.3391
31.2855 30.9212
31.4708 31.006
31.6563 30.5547
31.8418 30.3048
32.0275 30.0806
32.2132 29.5502
32.399 29.0202
32.5848 28.748
32.7708 28.3141
32.9569 28.173
33.143 27.9145
33.3293 27.5238
33.5158 27.212
33.7022 26.7846
33.8887 26.4517
34.0753 26.2027
34.262 25.7791
34.4488 25.4634
34.6357 25.1753
34.8227 24.8609
35.0098 24.6425
35.1969 24.3506
35.3842 24.1378
35.5716 23.8902
35.759 23.6519
35.9468 23.2486
36.1345 22.9193
36.3222 22.8169
36.5101 22.52
36.6981 22.2002
36.8861 21.8969
37.0743 21.574
37.2626 21.3655
37.451 21.075
37.6395 20.959
37.8281 20.6099
38.0168 20.3674
38.2056 20.077
38.3945 19.7764
38.5837 19.5603
38.7728 19.325
38.9621 19.0942
39.1514 18.8413
39.3409 18.5633
39.5304 18.3857
39.7201 18.2089
39.9099 17.9304
40.0999 17.7037
40.2899 17.4735
40.48 17.2236
40.6703 16.9822
40.8607 16.8441
41.0512 16.6338
41.242 16.4053
41.4327 16.1823
41.6236 15.8899
41.8146 15.7402
42.0057 15.4723
42.1969 15.2946
42.3882 15.1282
42.5797 14.8915
42.7713 14.7054
42.963 14.5048
43.1549 14.2767
43.3468 14.0679
43.5389 13.9144
43.7312 13.6923
43.9237 13.5211
44.1162 13.3031
44.3088 13.2068
44.5016 12.9734
44.6945 12.8102
44.8875 12.6705
45.0806 12.4493
45.2739 12.2703
45.4673 12.1011
45.6609 11.8952
45.8546 11.7589
46.0484 11.6008
46.2424 11.4187
46.4365 11.269
46.631 11.0539
46.8254 10.926
47.0199 10.7774
47.2146 10.6388
47.4095 10.4471
47.6044 10.2859
47.7996 10.1092
47.9948 10.0131
48.1902 9.85924
48.3858 9.73174
48.5815 9.60496
48.7774 9.43265
48.9734 9.30563
49.1696 9.13898
49.3661 9.03545
49.5626 8.87107
49.7592 8.74933
49.956 8.60988
50.153 8.4666
50.3501 8.34655
50.5474 8.22363
50.7448 8.09795
50.9424 7.98946
51.1402 7.85384
51.3381 7.69681
51.5362 7.61698
51.7344 7.47842
51.9328 7.3354
52.1316 7.23482
52.3304 7.09869
52.5293 6.97525
52.7284 6.89042
52.9276 6.72995
53.1271 6.65808
53.3267 6.54475
53.5265 6.44436
53.7264 6.32077
53.9266 6.17183
54.1269 6.05345
54.3274 5.97123
54.528 5.84974
54.7289 5.6796
54.9301 5.50752
55.1314 5.39796
55.3328 5.20472
55.5344 4.96064
55.7361 4.88898

File: Ni3Fe_FD0626.xy
TT I
1.27165 7.23967
1.45013 6.47804
1.62863 5.41965
1.80712 4.86919
1.98562 5.01792
2.16411 4.93041
2.34263 5.49557
2.52115 6.54495
2.69965 7.87089
2.87818 8.4178
3.05672 11.1789
3.23527 15.2137
3.4138 18.9536
3.59237 24.2202
3.77094 26.1666
3.9495 29.9243
4.12809 35.138
4.30669 225.573
4.4853 66.9029
4.6639 55.5873
4.84253 67.0294
5.02118 87.083
5.19981 344.674
5.37848 194.473
5.55716 102.666
5.73586 92.0972
5.91455 94.3115
6.09328 4375.63
6.27201 84.3321
6.45075 67.7928
6.62952 63.076
6.8083 59.0553
6.98711 56.2715
7.16591 55.511
7.34475 94.679
7.5236 54.9937
7.70247 56.4079
7.88135 58.2109
8.06026 62.4088
8.23919 69.9532
8.41812 85.5264
8.59709 1154.35
8.77609 100.702
8.9551 92.2662
9.13412 81.9757
9.31318 82.5332
9.49226 84.853
9.67134 99.1469
9.85047 99.9078
10.0296 334.466
10.2088 425.666
10.388 104.812
10.5672 504.7
10.7465 87.0368
10.9257 78.6957
11.105 72.1158
11.2844 70.8002
11.4637 65.3371
11.6431 64.0274
11.8225 62.7172
12.002 63.7784
12.1814 151.402
12.3609 71.6045
12.5405 64.6546
12.72 70.6573
12.8996 71.2413
13.0792 78.8885
13.2589 233.398
13.4386 128.253
13.6183 244.351
13.7981 100.408
13.9779 76.042
14.1577 73.0505
14.3376 71.8936
14.5175 69.3497
14.6974 70.7457
14.8774 109.847
15.0574 151.366
15.2374 71.5931
15.4175 66.6054
15.5976 65.9028
15.7778 94.4134
15.958 157.325
16.1382 63.3571
16.3185 59.1553
16.4988 56.0728
16.6792 54.8128
16.8596 55.4627
17.04 56.1273
17.2205 66.7688
17.401 72.6848
17.5815 59.3733
17.7622 61.4378
17.9428 73.4703
18.1237 138.584
18.3044 90.628
18.4852 79.0672
18.666 60.5974
18.8469 58.1723
19.0278 57.4219
19.2088 59.6675
19.3898 76.5758
19.5709 54.6307
19.752 53.3722
19.9332 56.3745
20.1144 69.6185
20.2957 63.8423
20.477 54.1468
20.6586 49.8271
20.84 49.0933
21.0215 48.5862
21.203 50.7589
21.3846 49.2039
21.5662 48.9213
21.7479 52.5203
21.9297 64.6328
22.1115 56.3037
22.2933 50.1341
22.4753 49.2458
22.6572 49.047
22.8393 52.0844
23.0214 57.6366
23.2037 49.0595
23.3859 49.9376
23.5682 57.138
23.7505 48.6154
23.9329 45.3918
24.1154 44.4169
24.2979 43.5309
24.4805 42.9998
24.6631 43.029
24.8458 42.4815
25.0286 42.9108
25.2114 44.6746
25.3943 44.764
25.5773 41.1482
25.7605 40.7032
25.9436 40.8736
26.1268 41.7189
26.31 40.4212
26.4933 40.9854
26.6767 42.3908
26.8601 40.6039
27.0437 38.9499
27.2272 38.7067
27.4109 38.6519
27.5946 38.5099
27.7784 37.982
27.9623 38.6472
28.1462 38.9278
28.3304 37.3938
28.5145 36.0584
28.6987 35.8259
28.8829 35.6308
29.0673 34.7999
29.2517 34.4047
29.4361 34.3443
29.6207 33.2469
29.8053 32.9141
29.99 32.6723
30.1748 32.5389
30.3597 32.4002
30.5447 32.2743
30.7297 32.4102
30.915 31.7179
31.1002 31.2807
31.2855 31.1354
31.4708 30.891
31.6563 30.5014
31.8418 30.3
32.0275 30.0677
32.2132 29.5505
32.399 29.0138
32.5848 28.6038
32.7708 28.245
32.9569 28.0362
33.143 27.841
33.3293 27.5098
33.5158 27.1257
33.7022 26.7904
33.8887 26.4019
34.0753 26.1451
34.262 25.7958
34.4488 25.4368
34.6357 25.031
34.8227 24.7881
35.0098 24.6763
35.1969 24.2486
35.3842 24.0741
35.5716 23.8963
35.759 23.5784
35.9468 23.186
36.1345 22.9212
36.3222 22.7588
36.5101 22.5812
36.6981 22.1831
36.8861 21.948
37.0743 21.642
37.2626 21.3702
37.451 21.0533
37.6395 20.9185
37.8281 20.6457
38.0168 20.2948
38.2056 20.002
38.3945 19.7725
38.5837 19.5407
38.7728 19.2979
38.9621 19.1364
39.1514 18.7752
39.3409 18.5837
39.5304 18.3291
39.7201 18.1531
39.9099 17.929
40.0999 17.7057
40.2899 17.4093
40.48 17.1933
40.6703 17.0538
40.8607 16.8251
41.0512 16.5672
41.242 16.3463
41.4327 16.1345
41.6236 15.9253
41.8146 15.6871
42.0057 15.4807
42.1969 15.2607
42.3882 15.1631
42.5797 14.8407
42.7713 14.7256
42.963 14.4976
43.1549 14.3138
43.3468 14.0541
43.5389 13.883
43.7312 13.6526
43.9237 13.5467
44.1162 13.3123
44.3088 13.1296
44.5016 12.9451
44.6945 12.823
44.8875 12.6299
45.0806 12.428
45.2739 12.26
45.4673 12.1112
45.6609 11.9482
45.8546 11.7528
46.0484 11.591
46.2424 11.3865
46.4365 11.2698
46.631 11.099
46.8254 10.9348
47.0199 10.7932
47.2146 10.6182
47.4095 10.4221
47.6044 10.2736
47.7996 10.1185
47.9948 9.99617
48.1902 9.87592
48.3858 9.68608
48.5815 9.55743
48.7774 9.45282
48.9734 9.2884
49.1696 9.1381
49.3661 8.99869
49.5626 8.85932
49.7592 8.67924
49.956 8.62322
50.153 8.48621
50.3501 8.35616
50.5474 8.2506
50.7448 8.0921
50.9424 7.97551
51.1402 7.84229
51.3381 7.71889
51.5362 7.62004
51.7344 7.48666
51.9328 7.29038
52.1316 7.19529
52.3304 7.10881
52.5293 7.01807
52.7284 6.85957
52.9276 6.75674
53.1271 6.70433
53.3267 6.52941
53.5265 6.4527
53.7264 6.28394
53.9266 6.19779
54.1269 6.14826
54.3274 5.92273
54.528 5.85133
54.7289 5.62037
54.9301 5.51512
55.1314 5.36495
55.3328 5.2109
55.5344 4.95701
55.7361 4.83382

File: Ni3Fe_FD0627.xy
TT I
1.27165 7.70241
1.45013 5.9111
1.62863 5.37996
1.80712 4.8028
1.98562 4.34936
2.16411 4.49518
2.34263 5.15537
2.52115 6.60019
2.69965 8.18652
2.87818 8.38424
3.05672 10.9951
3.23527 14.871
3.4138 18.7287
3.59237 24.0803
3.77094 26.5715
3.9495 30.2107
4.12809 35.8718
4.30669 227.24
4.4853 66.9249
4.6639 55.6182
4.84253 67.1716
5.02118 86.789
5.19981 346.722
5.37848 194.202
5.55716 102.296
5.73586 92.3887
5.91455 94.5824
6.09328 4389.06
6.27201 83.9207
6.45075 67.9286
6.62952 63.3326
6.8083 59.298
6.98711 56.3391
7.16591 55.4976
7.34475 94.2587
7.5236 55.2155
7.70247 56.5876
7.88135 58.3077
8.06026 62.3442
8.23919 70.1374
8.41812 85.5615
8.59709 1156.12
8.77609 100.451
8.9551 92.3637
9.13412 82.1558
9.31318 82.9139
9.49226 84.9721
9.67134 99.5164
9.85047 100.518
10.0296 334.603
10.2088 422.042
10.388 105.147
10.5672 504.457
10.7465 87.108
10.9257 78.9879
11.105 72.1987
11.2844 70.9991
11.4637 65.2151
11.6431 64.0202
11.8225 62.7227
12.002 63.7851
12.1814 151.046
12.3609 71.6424
12.5405 64.7586
12.72 70.6355
12.8996 71.5559
13.0792 79.0168
13.2589 233.906
13.4386 127.805
13.6183 244.444
13.7981 100.366
13.9779 76.1988
14.1577 72.9279
14.3376 72.1274
14.5175 69.0902
14.6974 70.8055
14.8774 110.221
15.0574 150.567
15.2374 71.6859
15.4175 66.9019
15.5976 65.9229
15.7778 94.6585
15.958 157.11
16.1382 63.3343
16.3185 59.2162
16.4988 55.7534
16.6792 54.8244
16.8596 55.6087
17.04 56.0611
17.2205 67.0163
17.401 72.5103
17.5815 59.4975
17.7622 61.5424
17.9428 73.3349
18.1237 138.587
18.3044 90.6463
18.4852 78.4402
18.666 60.6593
18.8469 58.3498
19.0278 57.1372
19.2088 59.6796
19.3898 76.4952
19.5709 54.6307
19.752 53.514
19.9332 56.5303
20.1144 69.6423
20.2957 63.9335
20.477 53.9773
20.6586 49.9524
20.84 49.1358
21.0215 48.6863
21.203 51.1976
21.3846 49.2753
21.5662 48.9068
21.7479 52.6289
21.9297 64.5435
22.1115 56.1783
22.2933 50.1631
22.4753 49.1834
22.6572 48.9492
22.8393 52.0481
23.0214 57.6398
23.2037 49.1178
23.3859 49.9847
23.5682 56.8069
23.7505 48.7923
23.9329 45.2927
24.1154 44.3184
24.2979 43.6838
24.4805 43.1612
24.6631 42.9728
24.8458 42.471
25.0286 42.9847
25.2114 44.7035
25.3943 44.8188
25.5773 41.1869
25.7605 40.6904
25.9436 40.9969
26.1268 41.8907
26.31 40.2812
26.4933 40.8577
26.6767 42.3894
26.8601 40.6863
27.0437 39.0644
27.2272 38.6751
27.4109 38.6981
27.5946 38.6245
27.7784 38.0819
27.9623 38.5567
28.1462 38.8895
28.3304 37.4036
28.5145 36.1818
28.6987 35.8341
28.8829 35.6089
29.0673 34.801
29.2517 34.4624
29.4361 34.3608
29.6207 33.3332
29.8053 33.103
29.99 32.7915
30.1748 32.544
30.3597 32.4312
30.5447 32.3765
30.7297 32.3033
30.915 31.759
31.1002 31.2762
31.2855 31.0059
31.4708 31.0347
31.6563 30.5157
31.8418 30.3079
32.0275 30.0982
32.2132 29.4895
32.399 28.9727
32.5848 28.6278
32.7708 28.2166
32.9569 28.2572
33.143 28.0795
33.3293 27.5269
33.5158 27.2029
33.7022 26.747
33.8887 26.4196
34.0753 26.144
34.262 25.7529
34.4488 25.3661
34.6357 25.0716
34.8227 24.872
35.0098 24.522
35.1969 24.38
35.3842 24.0752
35.5716 23.855
35.759 23.5912
35.9468 23.2033
36.1345 22.9829
36.3222 22.8147
36.5101 22.499
36.6981 22.2402
36.8861 21.9771
37.0743 21.549
37.2626 21.3434
37.451 21.0653
37.6395 20.9638
37.8281 20.6797
38.0168 20.3166
38.2056 20.1032
38.3945 19.8188
38.5837 19.5042
38.7728 19.3206
38.9621 19.0418
39.1514 18.7663
39.3409 18.5093
39.5304 18.3344
39.7201 18.1757
39.9099 18.0134
40.0999 17.6783
40.2899 17.4388
40.48 17.2433
40.6703 17.0347
40.8607 16.8273
41.0512 16.6363
41.242 16.3061
41.4327 16.1794
41.6236 15.9122
41.8146 15.7537
42.0057 15.4843
42.1969 15.2434
42.3882 15.1388
42.5797 14.8983
42.7713 14.7232
42.963 14.5332
43.1549 14.3087
43.3468 14.1096
43.5389 13.9186
43.7312 13.6963
43.9237 13.525
44.1162 13.3167
44.3088 13.1242
44.5016 13.0146
44.6945 12.7807
44.8875 12.5895
45.0806 12.4278
45.2739 12.2721
45.4673 12.07
45.6609 11.8943
45.8546 11.7689
46.0484 11.6385
46.2424 11.4039
46.4365 11.2742
46.631 11.0548
46.8254 10.9229
47.0199 10.7408
47.2146 10.6132
47.4095 10.4435
47.6044 10.3059
47.7996 10.1331
47.9948 9.97553
48.1902 9.83882
48.3858 9.70368
48.5815 9.56066
48.7774 9.44373
48.9734 9.32842
49.1696 9.16089
49.3661 9.00365
49.5626 8.85398
49.7592 8.7515
49.956 8.64599
50.153 8.50022
50.3501 8.36101
50.5474 8.22055
50.7448 8.09488
50.9424 7.97003
51.1402 7.84631
51.3381 7.68619
51.5362 7.64069
51.7344 7.45348
51.9328 7.3426
52.1316 7.20084
52.3304 7.11429
52.5293 6.97298
52.7284 6.89876
52.9276 6.75206
53.1271 6.66026
53.3267 6.54408
53.5265 6.38202
53.7264 6.30823
53.9266 6.18036
54.1269 6.08496
54.3274 5.97369
54.528 5.85876
54.7289 5.6536
54.9301 5.51985
55.1314 5.3549
55.3328 5.21591
55.5344 5.06607
55.7361 4.82333