Folder: NiFe_MOF_catalyst_paper/XRD (part 134)

File: Ni3Fe_FD0723.xy
TT I
1.27165 7.72323
1.45013 5.90759
1.62863 4.88186
1.80712 4.69537
1.98562 4.65653
2.16411 4.95741
2.34263 5.18032
2.52115 6.94427
2.69965 7.74593
2.87818 8.44411
3.05672 10.9133
3.23527 14.8851
3.4138 19.0036
3.59237 23.5497
3.77094 25.6873
3.9495 29.7602
4.12809 34.6972
4.30669 172.718
4.4853 60.9605
4.6639 55.0305
4.84253 67.0043
5.02118 87.0188
5.19981 346.258
5.37848 187.337
5.55716 101.793
5.73586 92.2544
5.91455 93.7051
6.09328 4418.06
6.27201 81.3911
6.45075 67.563
6.62952 62.3563
6.8083 58.3105
6.98711 55.7008
7.16591 55.3597
7.34475 81.8472
7.5236 54.3492
7.70247 55.7397
7.88135 57.6098
8.06026 62.1914
8.23919 69.3613
8.41812 84.4747
8.59709 1220.79
8.77609 98.76
8.9551 90.0526
9.13412 82.1868
9.31318 82.5532
9.49226 84.2656
9.67134 96.6171
9.85047 99.9012
10.0296 344.636
10.2088 405.952
10.388 104.096
10.5672 505.209
10.7465 85.8923
10.9257 77.8548
11.105 71.5145
11.2844 69.2918
11.4637 64.6755
11.6431 63.5309
11.8225 62.3647
12.002 63.3186
12.1814 153.513
12.3609 69.3826
12.5405 64.2689
12.72 68.7205
12.8996 70.7374
13.0792 78.7823
13.2589 243.716
13.4386 126.427
13.6183 255.449
13.7981 97.3586
13.9779 75.6268
14.1577 72.2121
14.3376 70.8496
14.5175 68.6046
14.6974 70.458
14.8774 111.767
15.0574 147.406
15.2374 70.169
15.4175 66.1318
15.5976 65.4573
15.7778 95.4658
15.958 153.892
16.1382 62.2196
16.3185 58.3048
16.4988 55.3172
16.6792 54.3367
16.8596 54.9737
17.04 55.6716
17.2205 66.7632
17.401 70.7008
17.5815 59.1852
17.7622 61.1839
17.9428 73.2566
18.1237 137.968
18.3044 91.2166
18.4852 77.2778
18.666 60.2836
18.8469 57.9564
19.0278 56.6528
19.2088 59.6513
19.3898 75.6709
19.5709 54.1843
19.752 52.9356
19.9332 56.0915
20.1144 69.352
20.2957 64.0135
20.477 53.6332
20.6586 49.5273
20.84 48.7549
21.0215 48.344
21.203 50.792
21.3846 48.806
21.5662 48.5899
21.7479 52.5569
21.9297 64.3279
22.1115 55.8312
22.2933 49.7369
22.4753 48.577
22.6572 48.7432
22.8393 52.0031
23.0214 57.0974
23.2037 48.6226
23.3859 49.6015
23.5682 56.8593
23.7505 48.396
23.9329 45.0443
24.1154 44.1278
24.2979 43.3796
24.4805 42.8469
24.6631 42.6906
24.8458 42.0588
25.0286 42.7195
25.2114 44.5693
25.3943 44.4186
25.5773 40.8693
25.7605 40.3187
25.9436 40.8182
26.1268 41.5138
26.31 39.9631
26.4933 40.6845
26.6767 41.9765
26.8601 40.3719
27.0437 38.9053
27.2272 38.5249
27.4109 38.2408
27.5946 38.2298
27.7784 37.7285
27.9623 38.3606
28.1462 38.7987
28.3304 37.091
28.5145 35.8576
28.6987 35.6085
28.8829 35.3434
29.0673 34.601
29.2517 34.3159
29.4361 34.0912
29.6207 33.128
29.8053 32.8032
29.99 32.5196
30.1748 32.3186
30.3597 32.2154
30.5447 32.1618
30.7297 32.187
30.915 31.5434
31.1002 31.0714
31.2855 30.851
31.4708 30.7737
31.6563 30.2009
31.8418 30.0508
32.0275 29.7732
32.2132 29.2952
32.399 28.886
32.5848 28.3921
32.7708 28.1316
32.9569 27.9017
33.143 27.7846
33.3293 27.2973
33.5158 26.9904
33.7022 26.4995
33.8887 26.3219
34.0753 25.9204
34.262 25.6102
34.4488 25.1878
34.6357 24.8742
34.8227 24.6004
35.0098 24.4319
35.1969 24.1474
35.3842 23.9661
35.5716 23.7566
35.759 23.4127
35.9468 23.0415
36.1345 22.8162
36.3222 22.5592
36.5101 22.3705
36.6981 22.069
36.8861 21.7738
37.0743 21.4034
37.2626 21.1446
37.451 20.9236
37.6395 20.8008
37.8281 20.4544
38.0168 20.1398
38.2056 19.8983
38.3945 19.6965
38.5837 19.4396
38.7728 19.2336
38.9621 18.9402
39.1514 18.6777
39.3409 18.4118
39.5304 18.2413
39.7201 17.9896
39.9099 17.7321
40.0999 17.5172
40.2899 17.3284
40.48 17.0519
40.6703 16.891
40.8607 16.7414
41.0512 16.4583
41.242 16.2332
41.4327 16.024
41.6236 15.8121
41.8146 15.6357
42.0057 15.4097
42.1969 15.1279
42.3882 15.0348
42.5797 14.7809
42.7713 14.5629
42.963 14.4074
43.1549 14.2082
43.3468 13.9957
43.5389 13.7744
43.7312 13.6053
43.9237 13.4043
44.1162 13.2913
44.3088 13.0574
44.5016 12.8393
44.6945 12.7266
44.8875 12.5553
45.0806 12.3601
45.2739 12.2091
45.4673 12.0131
45.6609 11.8224
45.8546 11.7052
46.0484 11.5192
46.2424 11.3458
46.4365 11.2015
46.631 11.0145
46.8254 10.8378
47.0199 10.6814
47.2146 10.564
47.4095 10.3887
47.6044 10.2172
47.7996 10.0604
47.9948 9.94272
48.1902 9.7769
48.3858 9.58797
48.5815 9.49806
48.7774 9.37654
48.9734 9.24873
49.1696 9.09453
49.3661 8.96539
49.5626 8.7991
49.7592 8.70047
49.956 8.55361
50.153 8.45313
50.3501 8.28016
50.5474 8.14698
50.7448 8.06978
50.9424 7.90154
51.1402 7.77717
51.3381 7.67083
51.5362 7.52218
51.7344 7.36727
51.9328 7.29349
52.1316 7.14261
52.3304 7.06632
52.5293 6.9326
52.7284 6.84402
52.9276 6.73614
53.1271 6.61747
53.3267 6.48697
53.5265 6.37871
53.7264 6.24544
53.9266 6.16549
54.1269 6.06913
54.3274 5.99783
54.528 5.78201
54.7289 5.6491
54.9301 5.47643
55.1314 5.29581
55.3328 5.18093
55.5344 4.95642
55.7361 4.805

File: Ni3Fe_FD0724.xy
TT I
1.27165 7.02896
1.45013 6.16467
1.62863 5.24218
1.80712 4.794
1.98562 4.87401
2.16411 4.57626
2.34263 5.97044
2.52115 7.28999
2.69965 8.06498
2.87818 8.30795
3.05672 11.2084
3.23527 15.2333
3.4138 19.1984
3.59237 23.6229
3.77094 25.9921
3.9495 29.4152
4.12809 34.5554
4.30669 176.376
4.4853 61.598
4.6639 55.4357
4.84253 67.3831
5.02118 86.9744
5.19981 346.232
5.37848 186.331
5.55716 102.058
5.73586 92.5302
5.91455 93.9604
6.09328 4443.03
6.27201 82.2657
6.45075 67.5489
6.62952 62.4575
6.8083 58.6908
6.98711 55.4622
7.16591 55.2234
7.34475 82.1207
7.5236 54.5304
7.70247 56.1734
7.88135 57.9546
8.06026 62.0373
8.23919 69.5545
8.41812 85.0414
8.59709 1225.58
8.77609 99.2068
8.9551 90.0951
9.13412 82.0868
9.31318 82.8432
9.49226 84.9013
9.67134 96.8189
9.85047 99.6452
10.0296 344.321
10.2088 402.911
10.388 103.85
10.5672 507.15
10.7465 86.2621
10.9257 78.0277
11.105 71.376
11.2844 69.6284
11.4637 64.6852
11.6431 63.3467
11.8225 62.1245
12.002 63.4752
12.1814 154.781
12.3609 69.2204
12.5405 64.1471
12.72 69.2387
12.8996 70.8696
13.0792 78.8646
13.2589 243.597
13.4386 125.807
13.6183 255.742
13.7981 97.292
13.9779 75.8058
14.1577 72.4642
14.3376 71.1907
14.5175 68.8861
14.6974 70.3674
14.8774 111.748
15.0574 147.253
15.2374 70.5693
15.4175 66.3558
15.5976 65.7523
15.7778 95.5367
15.958 153.536
16.1382 62.1527
16.3185 58.0056
16.4988 55.3071
16.6792 54.3524
16.8596 55.1744
17.04 55.5076
17.2205 66.8867
17.401 70.7024
17.5815 59.0227
17.7622 61.0705
17.9428 73.6635
18.1237 137.77
18.3044 91.597
18.4852 77.2258
18.666 60.3014
18.8469 58.1053
19.0278 56.7603
19.2088 59.3942
19.3898 75.5684
19.5709 54.1845
19.752 53.0785
19.9332 56.237
20.1144 69.1179
20.2957 64.0756
20.477 53.6538
20.6586 49.4364
20.84 48.7383
21.0215 48.5339
21.203 50.843
21.3846 48.8674
21.5662 48.7085
21.7479 52.8386
21.9297 64.4521
22.1115 55.667
22.2933 49.7989
22.4753 48.7081
22.6572 48.8925
22.8393 52.0587
23.0214 56.9217
23.2037 48.7485
23.3859 49.5728
23.5682 56.835
23.7505 48.3287
23.9329 45.1202
24.1154 43.8045
24.2979 43.2947
24.4805 42.802
24.6631 42.6928
24.8458 42.1996
25.0286 42.7944
25.2114 44.5643
25.3943 44.3125
25.5773 40.8065
25.7605 40.5178
25.9436 40.7104
26.1268 41.4756
26.31 40.1174
26.4933 40.7544
26.6767 41.8955
26.8601 40.2917
27.0437 38.7385
27.2272 38.3185
27.4109 38.3233
27.5946 38.2591
27.7784 37.86
27.9623 38.4305
28.1462 38.8196
28.3304 37.1071
28.5145 35.9913
28.6987 35.5443
28.8829 35.3079
29.0673 34.598
29.2517 34.3505
29.4361 34.1486
29.6207 32.9906
29.8053 32.8465
29.99 32.569
30.1748 32.2342
30.3597 32.2446
30.5447 32.136
30.7297 32.1254
30.915 31.6156
31.1002 31.1233
31.2855 30.7828
31.4708 30.7325
31.6563 30.3972
31.8418 30.1056
32.0275 29.9146
32.2132 29.3748
32.399 28.8884
32.5848 28.4077
32.7708 28.1256
32.9569 27.9594
33.143 27.6985
33.3293 27.3939
33.5158 27.0172
33.7022 26.553
33.8887 26.1885
34.0753 25.9793
34.262 25.641
34.4488 25.1966
34.6357 24.8827
34.8227 24.6582
35.0098 24.4173
35.1969 24.0854
35.3842 23.9812
35.5716 23.7805
35.759 23.4622
35.9468 23.1036
36.1345 22.9215
36.3222 22.621
36.5101 22.3657
36.6981 22.0542
36.8861 21.7202
37.0743 21.5284
37.2626 21.2272
37.451 20.9478
37.6395 20.8058
37.8281 20.4649
38.0168 20.1669
38.2056 19.9126
38.3945 19.6007
38.5837 19.4511
38.7728 19.2292
38.9621 18.9327
39.1514 18.6657
39.3409 18.3968
39.5304 18.1958
39.7201 18.0195
39.9099 17.8501
40.0999 17.5855
40.2899 17.3617
40.48 17.071
40.6703 16.9099
40.8607 16.737
41.0512 16.4319
41.242 16.2322
41.4327 16.0229
41.6236 15.7941
41.8146 15.6329
42.0057 15.3809
42.1969 15.1698
42.3882 15.0321
42.5797 14.8066
42.7713 14.5628
42.963 14.387
43.1549 14.1577
43.3468 14.0124
43.5389 13.8002
43.7312 13.5798
43.9237 13.4266
44.1162 13.2438
44.3088 13.0901
44.5016 12.835
44.6945 12.6836
44.8875 12.5341
45.0806 12.3235
45.2739 12.1658
45.4673 12.0548
45.6609 11.8331
45.8546 11.6668
46.0484 11.5367
46.2424 11.3524
46.4365 11.1749
46.631 10.9914
46.8254 10.8362
47.0199 10.6774
47.2146 10.5357
47.4095 10.4235
47.6044 10.2621
47.7996 10.0195
47.9948 9.91926
48.1902 9.77368
48.3858 9.64206
48.5815 9.49469
48.7774 9.37533
48.9734 9.24848
49.1696 9.0808
49.3661 8.94855
49.5626 8.79105
49.7592 8.65353
49.956 8.556
50.153 8.43227
50.3501 8.26628
50.5474 8.20844
50.7448 8.01828
50.9424 7.90521
51.1402 7.80298
51.3381 7.62914
51.5362 7.51975
51.7344 7.41882
51.9328 7.25629
52.1316 7.16047
52.3304 7.06933
52.5293 6.92823
52.7284 6.81631
52.9276 6.74125
53.1271 6.6222
53.3267 6.48812
53.5265 6.35615
53.7264 6.25878
53.9266 6.18281
54.1269 6.04418
54.3274 5.93723
54.528 5.80625
54.7289 5.66186
54.9301 5.44767
55.1314 5.41016
55.3328 5.1408
55.5344 4.9969
55.7361 4.8343

File: Ni3Fe_FD0725.xy
TT I
1.27165 7.55006
1.45013 6.28681
1.62863 4.97401
1.80712 4.46861
1.98562 4.51541
2.16411 5.54064
2.34263 4.89841
2.52115 6.48959
2.69965 8.74528
2.87818 8.63448
3.05672 10.6408
3.23527 15.0358
3.4138 19.0121
3.59237 23.5398
3.77094 25.8359
3.9495 29.6107
4.12809 34.5864
4.30669 180.173
4.4853 61.775
4.6639 55.4933
4.84253 67.2722
5.02118 86.7751
5.19981 342.798
5.37848 185.71
5.55716 101.992
5.73586 92.2271
5.91455 94.0318
6.09328 4480.88
6.27201 82.2275
6.45075 67.4914
6.62952 62.273
6.8083 58.5632
6.98711 55.5068
7.16591 55.3036
7.34475 83.0161
7.5236 54.7301
7.70247 56.3693
7.88135 57.8194
8.06026 62.2279
8.23919 69.3597
8.41812 84.7414
8.59709 1220.42
8.77609 98.7662
8.9551 90.3853
9.13412 82.2541
9.31318 82.3214
9.49226 84.4578
9.67134 97.1773
9.85047 99.7656
10.0296 341.411
10.2088 400.64
10.388 104.522
10.5672 510.55
10.7465 86.7445
10.9257 78.1971
11.105 71.6913
11.2844 69.6279
11.4637 64.8786
11.6431 63.4054
11.8225 62.5418
12.002 63.5997
12.1814 155.579
12.3609 69.5481
12.5405 64.2273
12.72 69.3091
12.8996 70.8869
13.0792 79.1685
13.2589 243.954
13.4386 125.559
13.6183 255.356
13.7981 97.1509
13.9779 75.7646
14.1577 72.0486
14.3376 71.0509
14.5175 68.7275
14.6974 70.2663
14.8774 111.726
15.0574 146.869
15.2374 70.5039
15.4175 66.2341
15.5976 65.4974
15.7778 95.28
15.958 153.382
16.1382 62.1299
16.3185 58.3838
16.4988 55.3917
16.6792 54.5027
16.8596 55.1692
17.04 55.6983
17.2205 66.8151
17.401 70.5448
17.5815 58.934
17.7622 61.2084
17.9428 73.6099
18.1237 137.767
18.3044 91.1554
18.4852 77.1719
18.666 60.4153
18.8469 57.9987
19.0278 56.6498
19.2088 59.3137
19.3898 75.73
19.5709 54.0713
19.752 53.1509
19.9332 55.9299
20.1144 69.4799
20.2957 64.0611
20.477 53.5756
20.6586 49.6014
20.84 48.8215
21.0215 48.6862
21.203 51.0885
21.3846 48.7595
21.5662 48.6383
21.7479 52.5016
21.9297 64.5182
22.1115 55.8411
22.2933 49.8446
22.4753 48.6738
22.6572 48.682
22.8393 52.1399
23.0214 57.0253
23.2037 48.631
23.3859 49.5824
23.5682 56.6584
23.7505 48.3357
23.9329 45.0841
24.1154 43.9095
24.2979 43.3299
24.4805 42.8809
24.6631 42.8559
24.8458 42.188
25.0286 42.7778
25.2114 44.4689
25.3943 44.5023
25.5773 40.9669
25.7605 40.4122
25.9436 40.7953
26.1268 41.5429
26.31 40.0403
26.4933 40.6633
26.6767 41.8757
26.8601 40.427
27.0437 38.8171
27.2272 38.3735
27.4109 38.404
27.5946 38.2906
27.7784 37.9007
27.9623 38.3155
28.1462 38.783
28.3304 37.0699
28.5145 35.8682
28.6987 35.6875
28.8829 35.2713
29.0673 34.6815
29.2517 34.3221
29.4361 34.1296
29.6207 32.9477
29.8053 32.859
29.99 32.485
30.1748 32.3088
30.3597 32.2112
30.5447 32.0812
30.7297 32.0818
30.915 31.591
31.1002 31.0421
31.2855 30.9492
31.4708 30.7505
31.6563 30.3253
31.8418 30.0802
32.0275 29.8731
32.2132 29.2751
32.399 28.8601
32.5848 28.3338
32.7708 28.0126
32.9569 27.8832
33.143 27.7416
33.3293 27.2452
33.5158 26.984
33.7022 26.5592
33.8887 26.2573
34.0753 25.9484
34.262 25.6334
34.4488 25.2124
34.6357 24.8994
34.8227 24.6381
35.0098 24.4019
35.1969 24.1761
35.3842 23.8896
35.5716 23.7136
35.759 23.3927
35.9468 23.0644
36.1345 22.8713
36.3222 22.6104
36.5101 22.3769
36.6981 22.0682
36.8861 21.8292
37.0743 21.4555
37.2626 21.1942
37.451 20.8785
37.6395 20.7824
37.8281 20.4691
38.0168 20.1852
38.2056 19.8547
38.3945 19.6181
38.5837 19.4559
38.7728 19.1655
38.9621 18.93
39.1514 18.6474
39.3409 18.4146
39.5304 18.1752
39.7201 18.049
39.9099 17.8377
40.0999 17.5437
40.2899 17.2712
40.48 17.0702
40.6703 16.8837
40.8607 16.6796
41.0512 16.4234
41.242 16.2447
41.4327 15.9976
41.6236 15.8172
41.8146 15.5943
42.0057 15.4351
42.1969 15.2104
42.3882 15.032
42.5797 14.7643
42.7713 14.5619
42.963 14.4128
43.1549 14.1997
43.3468 13.9503
43.5389 13.8662
43.7312 13.6164
43.9237 13.4464
44.1162 13.232
44.3088 13.044
44.5016 12.8646
44.6945 12.6879
44.8875 12.5804
45.0806 12.3468
45.2739 12.1758
45.4673 12.0298
45.6609 11.8334
45.8546 11.6446
46.0484 11.5586
46.2424 11.3456
46.4365 11.2364
46.631 10.9924
46.8254 10.8654
47.0199 10.6663
47.2146 10.5195
47.4095 10.3861
47.6044 10.2121
47.7996 10.078
47.9948 9.92752
48.1902 9.80141
48.3858 9.66184
48.5815 9.50596
48.7774 9.35311
48.9734 9.21354
49.1696 9.07512
49.3661 8.91538
49.5626 8.76676
49.7592 8.70993
49.956 8.59593
50.153 8.44739
50.3501 8.26784
50.5474 8.16607
50.7448 8.03378
50.9424 7.90902
51.1402 7.81276
51.3381 7.63392
51.5362 7.55784
51.7344 7.42594
51.9328 7.28224
52.1316 7.14862
52.3304 7.05594
52.5293 6.9356
52.7284 6.79665
52.9276 6.67448
53.1271 6.63614
53.3267 6.48952
53.5265 6.37711
53.7264 6.28109
53.9266 6.20306
54.1269 6.04924
54.3274 5.93731
54.528 5.80188
54.7289 5.68971
54.9301 5.43521
55.1314 5.32271
55.3328 5.13752
55.5344 4.95824
55.7361 4.8081

File: Ni3Fe_FD0726.xy
TT I
1.27165 7.43645
1.45013 6.30569
1.62863 5.00792
1.80712 4.70204
1.98562 3.92138
2.16411 4.91403
2.34263 5.57459
2.52115 7.07277
2.69965 7.30234
2.87818 8.34919
3.05672 10.9955
3.23527 14.9796
3.4138 18.9547
3.59237 23.4108
3.77094 25.929
3.9495 29.6791
4.12809 34.9385
4.30669 186.178
4.4853 62.1833
4.6639 55.2087
4.84253 66.9199
5.02118 86.5646
5.19981 336.756
5.37848 186.014
5.55716 102.002
5.73586 91.7488
5.91455 93.7491
6.09328 4449.7
6.27201 81.9291
6.45075 66.8958
6.62952 62.3074
6.8083 58.1577
6.98711 55.5233
7.16591 55.0432
7.34475 84.3526
7.5236 54.4274
7.70247 55.9032
7.88135 57.9248
8.06026 61.9105
8.23919 69.1561
8.41812 84.3007
8.59709 1189.9
8.77609 98.6577
8.9551 90.1824
9.13412 81.6502
9.31318 82.3329
9.49226 84.2337
9.67134 96.4939
9.85047 99.2074
10.0296 339.086
10.2088 409.521
10.388 103.732
10.5672 516.0
10.7465 86.2846
10.9257 77.7353
11.105 71.5363
11.2844 69.7437
11.4637 64.589
11.6431 63.3612
11.8225 62.0478
12.002 63.2117
12.1814 154.733
12.3609 69.4171
12.5405 64.1187
12.72 68.7734
12.8996 70.4687
13.0792 78.5616
13.2589 242.151
13.4386 126.848
13.6183 251.599
13.7981 97.2521
13.9779 75.504
14.1577 71.947
14.3376 71.0273
14.5175 68.7183
14.6974 70.0791
14.8774 111.229
15.0574 147.572
15.2374 70.3438
15.4175 65.9693
15.5976 65.4271
15.7778 94.8819
15.958 153.283
16.1382 62.0301
16.3185 58.2213
16.4988 55.2995
16.6792 54.3077
16.8596 54.8445
17.04 55.2596
17.2205 66.7232
17.401 70.7976
17.5815 58.9864
17.7622 61.095
17.9428 73.2313
18.1237 138.66
18.3044 90.9507
18.4852 77.1989
18.666 60.218
18.8469 57.9058
19.0278 56.4947
19.2088 59.3638
19.3898 75.5514
19.5709 54.0396
19.752 53.1184
19.9332 56.0912
20.1144 69.2323
20.2957 63.8416
20.477 53.6854
20.6586 49.478
20.84 48.5802
21.0215 48.4638
21.203 50.8165
21.3846 48.8432
21.5662 48.6791
21.7479 52.5411
21.9297 64.3712
22.1115 55.9092
22.2933 49.8696
22.4753 48.6821
22.6572 48.734
22.8393 51.9356
23.0214 56.9461
23.2037 48.6395
23.3859 49.6223
23.5682 56.9859
23.7505 48.3638
23.9329 45.0173
24.1154 43.8818
24.2979 43.3229
24.4805 42.8111
24.6631 42.7809
24.8458 42.0953
25.0286 42.8338
25.2114 44.4598
25.3943 44.4
25.5773 40.7868
25.7605 40.3427
25.9436 40.7686
26.1268 41.6036
26.31 39.9557
26.4933 40.5071
26.6767 42.0831
26.8601 40.1254
27.0437 38.824
27.2272 38.4311
27.4109 38.2729
27.5946 38.1874
27.7784 37.8796
27.9623 38.3405
28.1462 38.7248
28.3304 37.0752
28.5145 35.746
28.6987 35.6276
28.8829 35.3779
29.0673 34.5902
29.2517 34.2037
29.4361 34.0359
29.6207 33.1209
29.8053 32.7234
29.99 32.5245
30.1748 32.4411
30.3597 32.1621
30.5447 32.119
30.7297 32.1224
30.915 31.5428
31.1002 31.0239
31.2855 30.8552
31.4708 30.6596
31.6563 30.3256
31.8418 30.1079
32.0275 29.8362
32.2132 29.3102
32.399 28.8499
32.5848 28.3417
32.7708 28.0305
32.9569 27.9106
33.143 27.7212
33.3293 27.3394
33.5158 26.9656
33.7022 26.5844
33.8887 26.1569
34.0753 25.8835
34.262 25.6601
34.4488 25.2408
34.6357 24.9985
34.8227 24.5703
35.0098 24.381
35.1969 24.1037
35.3842 23.8211
35.5716 23.652
35.759 23.3552
35.9468 23.0892
36.1345 22.8313
36.3222 22.6248
36.5101 22.3922
36.6981 22.0426
36.8861 21.7636
37.0743 21.4235
37.2626 21.1689
37.451 20.8964
37.6395 20.7407
37.8281 20.3938
38.0168 20.1981
38.2056 19.9124
38.3945 19.6141
38.5837 19.3898
38.7728 19.173
38.9621 18.8921
39.1514 18.6651
39.3409 18.4602
39.5304 18.2184
39.7201 17.9791
39.9099 17.8041
40.0999 17.567
40.2899 17.3005
40.48 17.1135
40.6703 16.884
40.8607 16.7327
41.0512 16.4898
41.242 16.205
41.4327 16.0475
41.6236 15.8206
41.8146 15.6321
42.0057 15.3355
42.1969 15.1533
42.3882 14.9773
42.5797 14.7943
42.7713 14.5531
42.963 14.3805
43.1549 14.151
43.3468 14.0142
43.5389 13.829
43.7312 13.6149
43.9237 13.397
44.1162 13.2653
44.3088 13.0703
44.5016 12.8558
44.6945 12.6888
44.8875 12.5347
45.0806 12.3324
45.2739 12.2244
45.4673 11.9583
45.6609 11.8204
45.8546 11.6554
46.0484 11.5077
46.2424 11.3493
46.4365 11.1861
46.631 10.9826
46.8254 10.8235
47.0199 10.6853
47.2146 10.5106
47.4095 10.3554
47.6044 10.1983
47.7996 10.0524
47.9948 9.89946
48.1902 9.75929
48.3858 9.62332
48.5815 9.50861
48.7774 9.33833
48.9734 9.21714
49.1696 9.09057
49.3661 8.93507
49.5626 8.79516
49.7592 8.68347
49.956 8.55363
50.153 8.4278
50.3501 8.30048
50.5474 8.1472
50.7448 8.0483
50.9424 7.89837
51.1402 7.77857
51.3381 7.66687
51.5362 7.53619
51.7344 7.41433
51.9328 7.27714
52.1316 7.18713
52.3304 7.05261
52.5293 6.90745
52.7284 6.80397
52.9276 6.73585
53.1271 6.59329
53.3267 6.51349
53.5265 6.35168
53.7264 6.29875
53.9266 6.13075
54.1269 6.02892
54.3274 5.92113
54.528 5.81349
54.7289 5.65887
54.9301 5.45879
55.1314 5.33053
55.3328 5.13167
55.5344 4.94284
55.7361 4.79356

File: Ni3Fe_FD0727.xy
TT I
1.27165 7.48789
1.45013 6.03886
1.62863 5.34469
1.80712 4.70837
1.98562 4.46271
2.16411 4.79649
2.34263 5.21622
2.52115 6.07751
2.69965 7.45288
2.87818 8.75923
3.05672 11.3869
3.23527 15.4265
3.4138 19.2837
3.59237 23.9251
3.77094 26.0032
3.9495 29.6192
4.12809 34.6462
4.30669 187.113
4.4853 62.358
4.6639 55.2054
4.84253 67.4633
5.02118 86.7351
5.19981 336.943
5.37848 184.328
5.55716 101.69
5.73586 91.8836
5.91455 93.3304
6.09328 4482.23
6.27201 82.359
6.45075 66.8777
6.62952 62.5065
6.8083 58.2392
6.98711 55.4985
7.16591 55.0684
7.34475 84.4321
7.5236 54.6754
7.70247 56.0794
7.88135 57.6171
8.06026 61.8802
8.23919 69.0225
8.41812 84.5472
8.59709 1193.07
8.77609 98.8655
8.9551 90.2634
9.13412 81.5765
9.31318 82.0158
9.49226 84.6018
9.67134 97.1091
9.85047 99.5382
10.0296 338.439
10.2088 403.734
10.388 104.012
10.5672 510.515
10.7465 86.3523
10.9257 77.9202
11.105 71.2676
11.2844 69.814
11.4637 64.5798
11.6431 63.3953
11.8225 62.2108
12.002 63.0341
12.1814 155.825
12.3609 69.8249
12.5405 64.254
12.72 68.9889
12.8996 70.6504
13.0792 78.3847
13.2589 241.433
13.4386 126.26
13.6183 251.385
13.7981 97.5122
13.9779 75.7295
14.1577 71.9134
14.3376 71.1641
14.5175 68.6074
14.6974 70.1978
14.8774 111.018
15.0574 147.057
15.2374 70.4174
15.4175 65.972
15.5976 65.4713
15.7778 94.7775
15.958 153.37
16.1382 62.1124
16.3185 58.2396
16.4988 55.34
16.6792 54.2133
16.8596 54.9872
17.04 55.6166
17.2205 66.5734
17.401 70.5247
17.5815 58.8935
17.7622 61.1176
17.9428 73.2174
18.1237 138.552
18.3044 91.0216
18.4852 77.0467
18.666 60.1824
18.8469 57.9104
19.0278 56.6691
19.2088 59.143
19.3898 75.5462
19.5709 53.9735
19.752 52.9477
19.9332 56.0488
20.1144 69.2696
20.2957 63.7277
20.477 53.5419
20.6586 49.5364
20.84 48.7032
21.0215 48.3157
21.203 50.5939
21.3846 48.7263
21.5662 48.5475
21.7479 52.3996
21.9297 64.4298
22.1115 55.9318
22.2933 49.7286
22.4753 48.7183
22.6572 48.7637
22.8393 51.8633
23.0214 56.7026
23.2037 48.6997
23.3859 49.5948
23.5682 56.7361
23.7505 48.3578
23.9329 44.9955
24.1154 43.9747
24.2979 43.1607
24.4805 42.8257
24.6631 42.6607
24.8458 42.116
25.0286 42.7524
25.2114 44.3965
25.3943 44.249
25.5773 40.7073
25.7605 40.1613
25.9436 40.6824
26.1268 41.4859
26.31 40.0388
26.4933 40.6699
26.6767 41.921
26.8601 40.2954
27.0437 38.775
27.2272 38.2886
27.4109 38.3688
27.5946 38.2586
27.7784 37.7522
27.9623 38.3743
28.1462 38.7708
28.3304 37.0061
28.5145 35.8687
28.6987 35.5649
28.8829 35.297
29.0673 34.4834
29.2517 34.1162
29.4361 34.0005
29.6207 33.0203
29.8053 32.8299
29.99 32.4961
30.1748 32.2806
30.3597 32.1135
30.5447 32.1327
30.7297 31.9673
30.915 31.4657
31.1002 31.0048
31.2855 30.746
31.4708 30.7406
31.6563 30.2462
31.8418 30.0237
32.0275 29.7904
32.2132 29.2596
32.399 28.7788
32.5848 28.4622
32.7708 27.9768
32.9569 27.9105
33.143 27.6697
33.3293 27.2928
33.5158 26.8969
33.7022 26.5121
33.8887 26.2452
34.0753 25.9311
34.262 25.5859
34.4488 25.2513
34.6357 24.8507
34.8227 24.6523
35.0098 24.3232
35.1969 24.0986
35.3842 23.9307
35.5716 23.6548
35.759 23.3476
35.9468 23.0288
36.1345 22.8346
36.3222 22.5802
36.5101 22.3127
36.6981 22.0048
36.8861 21.7746
37.0743 21.3555
37.2626 21.1559
37.451 20.9044
37.6395 20.7459
37.8281 20.4072
38.0168 20.1498
38.2056 19.8606
38.3945 19.6287
38.5837 19.3524
38.7728 19.0969
38.9621 18.8968
39.1514 18.6259
39.3409 18.396
39.5304 18.201
39.7201 17.9723
39.9099 17.7693
40.0999 17.5224
40.2899 17.2695
40.48 17.0234
40.6703 16.9075
40.8607 16.6763
41.0512 16.4888
41.242 16.2005
41.4327 16.0063
41.6236 15.7615
41.8146 15.5764
42.0057 15.3493
42.1969 15.1872
42.3882 14.9922
42.5797 14.7618
42.7713 14.5809
42.963 14.3877
43.1549 14.2051
43.3468 13.968
43.5389 13.8126
43.7312 13.5972
43.9237 13.3943
44.1162 13.1961
44.3088 13.0193
44.5016 12.8164
44.6945 12.7043
44.8875 12.4939
45.0806 12.3804
45.2739 12.1748
45.4673 12.027
45.6609 11.8157
45.8546 11.6521
46.0484 11.5094
46.2424 11.3068
46.4365 11.1851
46.631 10.9959
46.8254 10.8127
47.0199 10.6632
47.2146 10.5189
47.4095 10.3566
47.6044 10.1977
47.7996 10.0637
47.9948 9.89407
48.1902 9.75489
48.3858 9.62598
48.5815 9.48108
48.7774 9.31711
48.9734 9.20405
49.1696 9.09306
49.3661 8.94295
49.5626 8.80181
49.7592 8.66002
49.956 8.5353
50.153 8.39968
50.3501 8.24169
50.5474 8.14065
50.7448 8.0202
50.9424 7.91183
51.1402 7.78941
51.3381 7.65161
51.5362 7.50902
51.7344 7.38908
51.9328 7.31166
52.1316 7.14579
52.3304 7.06323
52.5293 6.91351
52.7284 6.83164
52.9276 6.68856
53.1271 6.61526
53.3267 6.43578
53.5265 6.38067
53.7264 6.25411
53.9266 6.17251
54.1269 6.0561
54.3274 5.94195
54.528 5.79626
54.7289 5.64857
54.9301 5.4542
55.1314 5.35823
55.3328 5.13404
55.5344 4.9791
55.7361 4.79285