Folder: NiFe_MOF_catalyst_paper/XRD (part 143)

File: Ni3Fe_FD0778.xy
TT I
1.27165 7.11134
1.45013 5.95024
1.62863 5.86822
1.80712 5.05716
1.98562 5.2588
2.16411 4.99244
2.34263 5.40742
2.52115 6.93822
2.69965 8.4016
2.87818 8.99622
3.05672 11.3293
3.23527 14.8836
3.4138 19.0957
3.59237 23.9117
3.77094 26.0246
3.9495 29.4912
4.12809 35.048
4.30669 197.33
4.4853 63.248
4.6639 54.7011
4.84253 66.6793
5.02118 85.6886
5.19981 317.679
5.37848 177.663
5.55716 100.575
5.73586 90.9394
5.91455 92.9132
6.09328 4432.05
6.27201 80.9483
6.45075 66.335
6.62952 62.0181
6.8083 57.9682
6.98711 54.9326
7.16591 54.5479
7.34475 86.9783
7.5236 54.2088
7.70247 55.7266
7.88135 57.3449
8.06026 61.3908
8.23919 68.5566
8.41812 84.1753
8.59709 1182.29
8.77609 96.8851
8.9551 90.1224
9.13412 81.1273
9.31318 81.4749
9.49226 83.8721
9.67134 96.4492
9.85047 98.6958
10.0296 323.242
10.2088 352.295
10.388 102.985
10.5672 535.611
10.7465 85.6504
10.9257 76.9364
11.105 70.8845
11.2844 69.1373
11.4637 64.3007
11.6431 63.0696
11.8225 61.9619
12.002 62.7895
12.1814 157.232
12.3609 68.966
12.5405 63.5835
12.72 69.0277
12.8996 70.1521
13.0792 78.0627
13.2589 237.746
13.4386 117.805
13.6183 251.07
13.7981 93.1702
13.9779 74.8959
14.1577 71.3864
14.3376 70.5623
14.5175 67.9972
14.6974 69.7398
14.8774 108.588
15.0574 144.294
15.2374 69.9558
15.4175 65.6405
15.5976 64.8691
15.7778 92.6092
15.958 150.872
16.1382 61.9358
16.3185 58.0356
16.4988 54.9415
16.6792 53.8068
16.8596 54.5724
17.04 55.093
17.2205 66.1802
17.401 68.5034
17.5815 58.7557
17.7622 60.8481
17.9428 72.5668
18.1237 142.009
18.3044 90.0093
18.4852 75.0193
18.666 59.5795
18.8469 57.3248
19.0278 56.1368
19.2088 58.7911
19.3898 76.4418
19.5709 53.3185
19.752 52.7703
19.9332 55.6874
20.1144 69.6401
20.2957 63.951
20.477 52.7493
20.6586 48.9739
20.84 48.308
21.0215 48.0765
21.203 50.4261
21.3846 48.4441
21.5662 48.2447
21.7479 51.942
21.9297 64.2047
22.1115 55.7137
22.2933 49.1811
22.4753 48.1834
22.6572 48.3556
22.8393 51.4268
23.0214 56.7642
23.2037 48.2052
23.3859 49.2276
23.5682 56.9106
23.7505 47.5194
23.9329 44.7735
24.1154 43.6281
24.2979 42.9527
24.4805 42.4077
24.6631 42.2578
24.8458 41.707
25.0286 42.418
25.2114 44.2564
25.3943 44.2104
25.5773 40.4928
25.7605 39.9596
25.9436 40.4974
26.1268 41.2946
26.31 39.5508
26.4933 40.3669
26.6767 41.7538
26.8601 39.9296
27.0437 38.4613
27.2272 38.174
27.4109 38.0328
27.5946 38.0402
27.7784 37.5128
27.9623 38.0482
28.1462 38.3625
28.3304 36.6816
28.5145 35.4746
28.6987 35.2254
28.8829 35.0242
29.0673 34.2838
29.2517 33.9554
29.4361 33.6801
29.6207 32.9142
29.8053 32.4686
29.99 32.2398
30.1748 32.2074
30.3597 31.866
30.5447 31.8036
30.7297 31.8941
30.915 31.3105
31.1002 30.7697
31.2855 30.5657
31.4708 30.4651
31.6563 29.9135
31.8418 29.8952
32.0275 29.5802
32.2132 29.1385
32.399 28.6478
32.5848 28.1686
32.7708 27.854
32.9569 27.8311
33.143 27.488
33.3293 27.2375
33.5158 26.7152
33.7022 26.2478
33.8887 26.2012
34.0753 25.6599
34.262 25.3727
34.4488 25.0386
34.6357 24.6901
34.8227 24.4233
35.0098 24.2114
35.1969 24.0003
35.3842 23.7254
35.5716 23.5219
35.759 23.2171
35.9468 22.9181
36.1345 22.6766
36.3222 22.4178
36.5101 22.1441
36.6981 21.9221
36.8861 21.5692
37.0743 21.3079
37.2626 21.027
37.451 20.7862
37.6395 20.5928
37.8281 20.2719
38.0168 20.0364
38.2056 19.8085
38.3945 19.4489
38.5837 19.3119
38.7728 19.046
38.9621 18.7599
39.1514 18.5021
39.3409 18.3012
39.5304 18.0435
39.7201 17.8794
39.9099 17.6935
40.0999 17.4041
40.2899 17.1769
40.48 16.9203
40.6703 16.7146
40.8607 16.551
41.0512 16.3642
41.242 16.1321
41.4327 15.9002
41.6236 15.6723
41.8146 15.5041
42.0057 15.2395
42.1969 15.0727
42.3882 14.8875
42.5797 14.6324
42.7713 14.4523
42.963 14.2925
43.1549 14.1073
43.3468 13.8864
43.5389 13.7028
43.7312 13.5001
43.9237 13.3189
44.1162 13.1337
44.3088 12.9463
44.5016 12.7431
44.6945 12.6034
44.8875 12.4345
45.0806 12.2473
45.2739 12.0522
45.4673 11.941
45.6609 11.7242
45.8546 11.577
46.0484 11.3973
46.2424 11.2805
46.4365 11.1056
46.631 10.9327
46.8254 10.782
47.0199 10.6271
47.2146 10.496
47.4095 10.2859
47.6044 10.1467
47.7996 9.99634
47.9948 9.83356
48.1902 9.6657
48.3858 9.59115
48.5815 9.45756
48.7774 9.26388
48.9734 9.14421
49.1696 9.03487
49.3661 8.88682
49.5626 8.71321
49.7592 8.62063
49.956 8.48911
50.153 8.36138
50.3501 8.19264
50.5474 8.11499
50.7448 7.95709
50.9424 7.8511
51.1402 7.73512
51.3381 7.58896
51.5362 7.49486
51.7344 7.35384
51.9328 7.2634
52.1316 7.11172
52.3304 7.00191
52.5293 6.91257
52.7284 6.77092
52.9276 6.64286
53.1271 6.58361
53.3267 6.43539
53.5265 6.31159
53.7264 6.23177
53.9266 6.12663
54.1269 6.01403
54.3274 5.89717
54.528 5.73898
54.7289 5.55984
54.9301 5.43678
55.1314 5.32267
55.3328 5.0703
55.5344 4.89702
55.7361 4.78979

File: Ni3Fe_FD0779.xy
TT I
1.27165 7.09413
1.45013 5.69285
1.62863 5.10676
1.80712 4.47901
1.98562 4.58636
2.16411 5.31777
2.34263 5.93362
2.52115 7.59421
2.69965 7.97858
2.87818 8.7826
3.05672 11.2142
3.23527 15.0537
3.4138 18.9105
3.59237 23.8117
3.77094 26.2302
3.9495 29.4822
4.12809 34.5006
4.30669 190.655
4.4853 63.235
4.6639 55.0955
4.84253 66.434
5.02118 86.015
5.19981 323.227
5.37848 176.376
5.55716 100.497
5.73586 91.2911
5.91455 92.6046
6.09328 4473.7
6.27201 81.3693
6.45075 66.4174
6.62952 61.9863
6.8083 57.7931
6.98711 55.2613
7.16591 54.5874
7.34475 86.059
7.5236 54.408
7.70247 55.6794
7.88135 57.5099
8.06026 61.6813
8.23919 68.8607
8.41812 84.0758
8.59709 1191.3
8.77609 97.3402
8.9551 89.7732
9.13412 80.8097
9.31318 81.301
9.49226 83.7618
9.67134 96.267
9.85047 98.4252
10.0296 326.98
10.2088 347.929
10.388 103.586
10.5672 536.963
10.7465 85.1963
10.9257 77.3931
11.105 71.0676
11.2844 69.4607
11.4637 64.0765
11.6431 62.8714
11.8225 61.8076
12.002 62.7487
12.1814 157.741
12.3609 68.7905
12.5405 63.6861
12.72 68.6221
12.8996 70.2778
13.0792 78.0657
13.2589 239.72
13.4386 117.583
13.6183 251.752
13.7981 92.865
13.9779 74.9588
14.1577 71.5042
14.3376 70.6213
14.5175 67.9413
14.6974 69.5194
14.8774 108.78
15.0574 145.228
15.2374 70.0301
15.4175 65.7454
15.5976 65.2045
15.7778 93.0365
15.958 150.71
16.1382 61.736
16.3185 57.9071
16.4988 54.8684
16.6792 53.799
16.8596 54.5017
17.04 55.2041
17.2205 66.1695
17.401 68.5285
17.5815 58.5056
17.7622 60.7688
17.9428 72.5785
18.1237 141.991
18.3044 90.0569
18.4852 74.4336
18.666 59.9568
18.8469 57.4386
19.0278 56.324
19.2088 58.5745
19.3898 76.4249
19.5709 53.4647
19.752 52.5124
19.9332 55.49
20.1144 69.2799
20.2957 64.0611
20.477 52.4147
20.6586 48.973
20.84 48.3479
21.0215 48.1578
21.203 50.4076
21.3846 48.2979
21.5662 48.2342
21.7479 52.0031
21.9297 64.2336
22.1115 55.6323
22.2933 49.232
22.4753 48.3996
22.6572 48.3726
22.8393 51.2559
23.0214 56.7483
23.2037 48.2722
23.3859 49.1469
23.5682 57.0133
23.7505 47.5237
23.9329 44.6682
24.1154 43.668
24.2979 42.8571
24.4805 42.5004
24.6631 42.3304
24.8458 41.7623
25.0286 42.2928
25.2114 44.2379
25.3943 44.0707
25.5773 40.4529
25.7605 39.8438
25.9436 40.4132
26.1268 41.3094
26.31 39.6614
26.4933 40.3809
26.6767 41.8348
26.8601 40.0251
27.0437 38.4453
27.2272 38.0657
27.4109 38.0294
27.5946 38.0887
27.7784 37.352
27.9623 38.0418
28.1462 38.3947
28.3304 36.647
28.5145 35.6127
28.6987 35.3022
28.8829 34.9585
29.0673 34.2319
29.2517 34.0456
29.4361 33.7699
29.6207 32.8437
29.8053 32.5541
29.99 32.1467
30.1748 32.2638
30.3597 31.9292
30.5447 31.7767
30.7297 31.8961
30.915 31.2162
31.1002 30.7797
31.2855 30.597
31.4708 30.5179
31.6563 30.0313
31.8418 29.8539
32.0275 29.6015
32.2132 29.0199
32.399 28.6124
32.5848 28.1306
32.7708 27.8877
32.9569 27.7152
33.143 27.5444
33.3293 27.1258
33.5158 26.7284
33.7022 26.3492
33.8887 26.0571
34.0753 25.7105
34.262 25.3541
34.4488 25.0844
34.6357 24.7264
34.8227 24.4369
35.0098 24.2747
35.1969 23.9231
35.3842 23.8083
35.5716 23.5399
35.759 23.2081
35.9468 22.8922
36.1345 22.7241
36.3222 22.4487
36.5101 22.1643
36.6981 21.9867
36.8861 21.585
37.0743 21.3411
37.2626 21.0991
37.451 20.7629
37.6395 20.6249
37.8281 20.2466
38.0168 20.0331
38.2056 19.7245
38.3945 19.56
38.5837 19.2615
38.7728 19.0506
38.9621 18.7336
39.1514 18.5423
39.3409 18.2582
39.5304 18.0729
39.7201 17.8822
39.9099 17.6183
40.0999 17.4171
40.2899 17.2268
40.48 16.9203
40.6703 16.7842
40.8607 16.6046
41.0512 16.3534
41.242 16.1062
41.4327 15.8884
41.6236 15.6176
41.8146 15.5111
42.0057 15.2476
42.1969 15.0725
42.3882 14.8902
42.5797 14.6597
42.7713 14.4571
42.963 14.2724
43.1549 14.0439
43.3468 13.8544
43.5389 13.703
43.7312 13.4955
43.9237 13.3636
44.1162 13.1809
44.3088 12.9933
44.5016 12.742
44.6945 12.609
44.8875 12.3991
45.0806 12.2373
45.2739 12.0593
45.4673 11.8922
45.6609 11.6901
45.8546 11.565
46.0484 11.4359
46.2424 11.2738
46.4365 11.078
46.631 10.9128
46.8254 10.7576
47.0199 10.599
47.2146 10.4472
47.4095 10.2936
47.6044 10.1325
47.7996 9.97357
47.9948 9.81126
48.1902 9.70205
48.3858 9.5985
48.5815 9.4677
48.7774 9.29466
48.9734 9.16981
49.1696 9.02268
49.3661 8.87084
49.5626 8.74128
49.7592 8.60172
49.956 8.47833
50.153 8.37753
50.3501 8.22137
50.5474 8.07968
50.7448 7.9966
50.9424 7.85358
51.1402 7.75424
51.3381 7.61133
51.5362 7.48803
51.7344 7.34765
51.9328 7.20718
52.1316 7.10151
52.3304 6.99629
52.5293 6.88806
52.7284 6.78415
52.9276 6.63135
53.1271 6.59535
53.3267 6.4506
53.5265 6.357
53.7264 6.21846
53.9266 6.13178
54.1269 5.9932
54.3274 5.86081
54.528 5.69307
54.7289 5.56582
54.9301 5.40173
55.1314 5.34415
55.3328 5.08264
55.5344 4.91643
55.7361 4.74767

File: Ni3Fe_FD0780.xy
TT I
1.27165 7.1262
1.45013 6.54255
1.62863 4.92807
1.80712 5.0971
1.98562 4.70518
2.16411 5.38014
2.34263 5.89161
2.52115 7.64194
2.69965 8.32753
2.87818 9.02414
3.05672 10.98
3.23527 15.5265
3.4138 18.9524
3.59237 23.8123
3.77094 25.9863
3.9495 29.3507
4.12809 34.8195
4.30669 185.099
4.4853 62.526
4.6639 55.2455
4.84253 66.6063
5.02118 86.303
5.19981 327.827
5.37848 176.584
5.55716 100.554
5.73586 91.0453
5.91455 92.915
6.09328 4456.42
6.27201 81.3227
6.45075 66.4859
6.62952 61.7451
6.8083 57.8024
6.98711 55.0239
7.16591 54.8037
7.34475 84.1989
7.5236 54.3655
7.70247 55.7023
7.88135 57.2994
8.06026 61.6928
8.23919 68.6174
8.41812 84.2531
8.59709 1205.98
8.77609 96.9595
8.9551 89.5964
9.13412 81.5137
9.31318 81.8925
9.49226 83.7795
9.67134 96.1156
9.85047 98.8854
10.0296 331.63
10.2088 344.514
10.388 103.072
10.5672 538.475
10.7465 85.141
10.9257 77.2633
11.105 70.8448
11.2844 69.5498
11.4637 63.992
11.6431 63.1655
11.8225 61.7739
12.002 63.1867
12.1814 159.031
12.3609 68.3425
12.5405 63.5299
12.72 68.73
12.8996 70.1665
13.0792 78.4421
13.2589 241.44
13.4386 117.419
13.6183 252.387
13.7981 92.6804
13.9779 74.9719
14.1577 71.5591
14.3376 70.5173
14.5175 68.0615
14.6974 69.6837
14.8774 109.382
15.0574 144.969
15.2374 70.0081
15.4175 65.5744
15.5976 65.1758
15.7778 93.4931
15.958 149.836
16.1382 61.5508
16.3185 57.8892
16.4988 54.7961
16.6792 54.0896
16.8596 54.6496
17.04 55.2822
17.2205 66.3407
17.401 68.8866
17.5815 58.542
17.7622 60.6002
17.9428 72.7133
18.1237 141.825
18.3044 90.6029
18.4852 74.5143
18.666 59.5879
18.8469 57.3854
19.0278 56.111
19.2088 58.9178
19.3898 76.3551
19.5709 53.7071
19.752 52.8018
19.9332 55.778
20.1144 69.5359
20.2957 63.9589
20.477 52.5603
20.6586 49.2384
20.84 48.2593
21.0215 47.9951
21.203 50.6448
21.3846 48.4398
21.5662 48.2953
21.7479 52.0598
21.9297 64.0387
22.1115 55.6552
22.2933 49.3054
22.4753 48.336
22.6572 48.3329
22.8393 51.5436
23.0214 56.7666
23.2037 48.1771
23.3859 49.3198
23.5682 57.0108
23.7505 47.4366
23.9329 44.6664
24.1154 43.5893
24.2979 43.0795
24.4805 42.5452
24.6631 42.278
24.8458 41.8361
25.0286 42.33
25.2114 44.1904
25.3943 44.1851
25.5773 40.4344
25.7605 40.052
25.9436 40.3957
26.1268 41.3641
26.31 39.6614
26.4933 40.325
26.6767 41.7342
26.8601 40.0244
27.0437 38.5318
27.2272 38.1259
27.4109 38.0884
27.5946 37.9289
27.7784 37.4493
27.9623 38.1704
28.1462 38.3809
28.3304 36.7176
28.5145 35.5511
28.6987 35.2663
28.8829 35.1659
29.0673 34.296
29.2517 33.9105
29.4361 33.8719
29.6207 32.7779
29.8053 32.6024
29.99 32.1465
30.1748 32.0906
30.3597 31.8314
30.5447 31.8814
30.7297 31.9658
30.915 31.25
31.1002 30.8366
31.2855 30.5454
31.4708 30.5667
31.6563 29.9669
31.8418 29.7109
32.0275 29.5583
32.2132 29.0572
32.399 28.6189
32.5848 28.17
32.7708 27.8951
32.9569 27.7844
33.143 27.4144
33.3293 27.1132
33.5158 26.744
33.7022 26.3034
33.8887 26.028
34.0753 25.6773
34.262 25.3402
34.4488 25.0277
34.6357 24.7256
34.8227 24.4785
35.0098 24.2428
35.1969 23.9671
35.3842 23.691
35.5716 23.5486
35.759 23.2541
35.9468 22.9672
36.1345 22.6756
36.3222 22.5077
36.5101 22.2188
36.6981 21.8967
36.8861 21.6284
37.0743 21.2682
37.2626 21.069
37.451 20.8353
37.6395 20.6417
37.8281 20.281
38.0168 20.0206
38.2056 19.7037
38.3945 19.4402
38.5837 19.2857
38.7728 19.0398
38.9621 18.7847
39.1514 18.5464
39.3409 18.2345
39.5304 18.0635
39.7201 17.9283
39.9099 17.6857
40.0999 17.4517
40.2899 17.1922
40.48 16.914
40.6703 16.7274
40.8607 16.5991
41.0512 16.3682
41.242 16.1477
41.4327 15.9579
41.6236 15.6785
41.8146 15.5477
42.0057 15.2489
42.1969 15.0551
42.3882 14.8927
42.5797 14.7142
42.7713 14.5054
42.963 14.3161
43.1549 14.1401
43.3468 13.8808
43.5389 13.7268
43.7312 13.4834
43.9237 13.3249
44.1162 13.1202
44.3088 12.9375
44.5016 12.7767
44.6945 12.604
44.8875 12.4292
45.0806 12.2506
45.2739 12.0562
45.4673 11.9436
45.6609 11.7379
45.8546 11.5985
46.0484 11.4105
46.2424 11.2509
46.4365 11.1054
46.631 10.9589
46.8254 10.7601
47.0199 10.6136
47.2146 10.4895
47.4095 10.3378
47.6044 10.1562
47.7996 10.0012
47.9948 9.84812
48.1902 9.70904
48.3858 9.55671
48.5815 9.41977
48.7774 9.32172
48.9734 9.18028
49.1696 9.04696
49.3661 8.90277
49.5626 8.71025
49.7592 8.63453
49.956 8.49599
50.153 8.3883
50.3501 8.21695
50.5474 8.11548
50.7448 7.99935
50.9424 7.85366
51.1402 7.71868
51.3381 7.59486
51.5362 7.46893
51.7344 7.38847
51.9328 7.20687
52.1316 7.10323
52.3304 7.02673
52.5293 6.88875
52.7284 6.79556
52.9276 6.64211
53.1271 6.58304
53.3267 6.48567
53.5265 6.3741
53.7264 6.21623
53.9266 6.08598
54.1269 6.03388
54.3274 5.86498
54.528 5.76881
54.7289 5.55551
54.9301 5.4632
55.1314 5.29595
55.3328 5.07916
55.5344 4.90757
55.7361 4.74055

File: Ni3Fe_FD0781.xy
TT I
1.27165 7.58142
1.45013 6.12154
1.62863 5.39031
1.80712 5.21664
1.98562 4.65263
2.16411 4.95839
2.34263 5.36693
2.52115 7.12081
2.69965 8.34839
2.87818 9.05526
3.05672 11.7923
3.23527 15.1271
3.4138 19.0672
3.59237 24.1005
3.77094 25.8807
3.9495 29.6814
4.12809 34.5454
4.30669 182.438
4.4853 61.8466
4.6639 54.9873
4.84253 66.1392
5.02118 86.0062
5.19981 329.527
5.37848 176.183
5.55716 100.202
5.73586 91.4486
5.91455 92.6308
6.09328 4479.12
6.27201 80.9619
6.45075 66.1598
6.62952 61.7171
6.8083 57.9922
6.98711 55.0837
7.16591 54.6943
7.34475 83.8557
7.5236 54.1795
7.70247 55.4238
7.88135 57.3162
8.06026 61.9121
8.23919 68.8517
8.41812 83.8593
8.59709 1206.95
8.77609 96.8779
8.9551 89.4107
9.13412 80.7374
9.31318 81.724
9.49226 83.2238
9.67134 95.7121
9.85047 99.011
10.0296 333.859
10.2088 349.288
10.388 103.077
10.5672 533.635
10.7465 85.379
10.9257 76.9959
11.105 71.1341
11.2844 68.9948
11.4637 64.3949
11.6431 62.8713
11.8225 61.6657
12.002 62.6968
12.1814 158.223
12.3609 68.4974
12.5405 63.8299
12.72 68.655
12.8996 70.0847
13.0792 78.1305
13.2589 240.434
13.4386 117.09
13.6183 252.046
13.7981 92.4151
13.9779 75.2015
14.1577 71.4049
14.3376 70.5757
14.5175 68.1589
14.6974 69.6702
14.8774 109.555
15.0574 145.334
15.2374 69.7862
15.4175 65.7312
15.5976 65.1363
15.7778 93.485
15.958 150.176
16.1382 61.4235
16.3185 57.883
16.4988 54.7624
16.6792 53.8046
16.8596 54.4832
17.04 55.0149
17.2205 66.3939
17.401 68.859
17.5815 58.5416
17.7622 60.56
17.9428 72.8255
18.1237 142.037
18.3044 90.2562
18.4852 74.4087
18.666 59.753
18.8469 57.3662
19.0278 56.2262
19.2088 58.7533
19.3898 76.1311
19.5709 53.4505
19.752 52.8296
19.9332 55.6249
20.1144 69.7171
20.2957 64.0476
20.477 52.4486
20.6586 48.9285
20.84 48.253
21.0215 48.1718
21.203 50.4265
21.3846 48.2119
21.5662 48.2172
21.7479 52.079
21.9297 64.286
22.1115 55.7675
22.2933 49.1041
22.4753 48.3726
22.6572 48.1339
22.8393 51.428
23.0214 56.6301
23.2037 48.1407
23.3859 49.3275
23.5682 56.9988
23.7505 47.4856
23.9329 44.6992
24.1154 43.4814
24.2979 42.9973
24.4805 42.4639
24.6631 42.3634
24.8458 41.6901
25.0286 42.3613
25.2114 44.2206
25.3943 44.1168
25.5773 40.4257
25.7605 39.8409
25.9436 40.4493
26.1268 41.2225
26.31 39.6535
26.4933 40.3736
26.6767 41.7865
26.8601 39.9109
27.0437 38.4259
27.2272 38.1055
27.4109 37.8778
27.5946 37.9741
27.7784 37.5037
27.9623 38.0214
28.1462 38.3964
28.3304 36.8711
28.5145 35.5735
28.6987 35.2205
28.8829 35.0741
29.0673 34.1854
29.2517 33.9443
29.4361 33.7094
29.6207 32.8156
29.8053 32.5541
29.99 32.3191
30.1748 32.1761
30.3597 31.8134
30.5447 31.7578
30.7297 31.8569
30.915 31.3339
31.1002 30.7285
31.2855 30.5399
31.4708 30.5486
31.6563 29.9929
31.8418 29.8807
32.0275 29.6195
32.2132 29.0633
32.399 28.5629
32.5848 28.1393
32.7708 27.8631
32.9569 27.7263
33.143 27.515
33.3293 27.0565
33.5158 26.702
33.7022 26.322
33.8887 26.0067
34.0753 25.7099
34.262 25.3293
34.4488 25.0739
34.6357 24.7435
34.8227 24.4191
35.0098 24.2864
35.1969 23.9323
35.3842 23.6886
35.5716 23.5077
35.759 23.2414
35.9468 22.8534
36.1345 22.6721
36.3222 22.4252
36.5101 22.1981
36.6981 21.8299
36.8861 21.5568
37.0743 21.3381
37.2626 21.005
37.451 20.8011
37.6395 20.5763
37.8281 20.3322
38.0168 19.9901
38.2056 19.7807
38.3945 19.4121
38.5837 19.2698
38.7728 19.0419
38.9621 18.7691
39.1514 18.5206
39.3409 18.2635
39.5304 18.0901
39.7201 17.8309
39.9099 17.613
40.0999 17.4199
40.2899 17.1916
40.48 16.9251
40.6703 16.7472
40.8607 16.5715
41.0512 16.325
41.242 16.0627
41.4327 15.8626
41.6236 15.6447
41.8146 15.5114
42.0057 15.2891
42.1969 15.019
42.3882 14.9309
42.5797 14.7005
42.7713 14.4627
42.963 14.2584
43.1549 14.0594
43.3468 13.8721
43.5389 13.6852
43.7312 13.4886
43.9237 13.2969
44.1162 13.0911
44.3088 12.8999
44.5016 12.7728
44.6945 12.5809
44.8875 12.4415
45.0806 12.2718
45.2739 12.055
45.4673 11.8478
45.6609 11.7201
45.8546 11.5817
46.0484 11.4057
46.2424 11.2519
46.4365 11.0922
46.631 10.9388
46.8254 10.744
47.0199 10.5872
47.2146 10.4837
47.4095 10.248
47.6044 10.1499
47.7996 9.9912
47.9948 9.81345
48.1902 9.71897
48.3858 9.58007
48.5815 9.4301
48.7774 9.32555
48.9734 9.15476
49.1696 9.00171
49.3661 8.91572
49.5626 8.74033
49.7592 8.61117
49.956 8.46465
50.153 8.3319
50.3501 8.24396
50.5474 8.10347
50.7448 7.95006
50.9424 7.85463
51.1402 7.70876
51.3381 7.61319
51.5362 7.46519
51.7344 7.36193
51.9328 7.23572
52.1316 7.09686
52.3304 6.98407
52.5293 6.84007
52.7284 6.74933
52.9276 6.66661
53.1271 6.58027
53.3267 6.42931
53.5265 6.32935
53.7264 6.19035
53.9266 6.09189
54.1269 5.94683
54.3274 5.88992
54.528 5.73986
54.7289 5.5757
54.9301 5.42401
55.1314 5.32633
55.3328 5.11344
55.5344 4.93026
55.7361 4.75903

File: Ni3Fe_FD0782.xy
TT I
1.27165 7.67591
1.45013 5.97046
1.62863 4.84932
1.80712 4.829
1.98562 4.60999
2.16411 4.7984
2.34263 5.5971
2.52115 7.42759
2.69965 8.65282
2.87818 8.76784
3.05672 11.188
3.23527 14.9549
3.4138 19.6279
3.59237 23.533
3.77094 25.8696
3.9495 29.5066
4.12809 34.2983
4.30669 176.695
4.4853 61.1196
4.6639 54.8162
4.84253 66.735
5.02118 86.06
5.19981 335.171
5.37848 176.436
5.55716 100.498
5.73586 90.6723
5.91455 92.7918
6.09328 4512.19
6.27201 80.9371
6.45075 66.6755
6.62952 61.7924
6.8083 57.7789
6.98711 55.0399
7.16591 54.799
7.34475 82.8759
7.5236 54.0636
7.70247 55.4464
7.88135 57.2131
8.06026 61.4858
8.23919 68.869
8.41812 83.5535
8.59709 1207.3
8.77609 97.0419
8.9551 89.3375
9.13412 80.938
9.31318 81.6156
9.49226 83.5946
9.67134 95.7486
9.85047 98.6851
10.0296 335.006
10.2088 347.075
10.388 103.075
10.5672 533.927
10.7465 85.1349
10.9257 77.0429
11.105 70.8988
11.2844 68.9436
11.4637 64.3301
11.6431 62.715
11.8225 61.6848
12.002 63.0453
12.1814 158.055
12.3609 68.134
12.5405 63.6697
12.72 68.5621
12.8996 70.2488
13.0792 78.3165
13.2589 241.274
13.4386 117.235
13.6183 252.937
13.7981 92.4543
13.9779 74.873
14.1577 71.3669
14.3376 70.4315
14.5175 68.1393
14.6974 69.7333
14.8774 109.583
15.0574 145.081
15.2374 69.6347
15.4175 65.5925
15.5976 65.111
15.7778 93.2573
15.958 149.683
16.1382 61.4754
16.3185 57.61
16.4988 54.8868
16.6792 53.8362
16.8596 54.5283
17.04 55.1837
17.2205 66.4606
17.401 68.8085
17.5815 58.5294
17.7622 60.6642
17.9428 72.8134
18.1237 141.811
18.3044 90.383
18.4852 74.1087
18.666 59.8094
18.8469 57.3217
19.0278 56.1704
19.2088 58.8406
19.3898 75.9788
19.5709 53.4678
19.752 52.6051
19.9332 55.5652
20.1144 69.4783
20.2957 64.008
20.477 52.3342
20.6586 49.0897
20.84 48.2947
21.0215 48.0676
21.203 50.3514
21.3846 48.325
21.5662 48.1517
21.7479 52.0386
21.9297 64.1375
22.1115 55.6945
22.2933 49.3364
22.4753 48.4348
22.6572 48.1881
22.8393 51.3698
23.0214 56.9196
23.2037 48.2706
23.3859 49.2672
23.5682 56.9824
23.7505 47.5225
23.9329 44.6634
24.1154 43.5904
24.2979 42.9688
24.4805 42.4271
24.6631 42.2567
24.8458 41.7735
25.0286 42.286
25.2114 44.3531
25.3943 44.0508
25.5773 40.3747
25.7605 39.9661
25.9436 40.2679
26.1268 41.2565
26.31 39.6129
26.4933 40.3354
26.6767 41.8677
26.8601 39.9598
27.0437 38.4524
27.2272 38.0795
27.4109 38.0133
27.5946 37.8776
27.7784 37.3391
27.9623 38.0167
28.1462 38.4439
28.3304 36.6371
28.5145 35.493
28.6987 35.1895
28.8829 35.0427
29.0673 34.2443
29.2517 33.9525
29.4361 33.7915
29.6207 32.7216
29.8053 32.5399
29.99 32.3335
30.1748 32.1215
30.3597 31.9437
30.5447 31.8726
30.7297 31.8964
30.915 31.2813
31.1002 30.8544
31.2855 30.5621
31.4708 30.4489
31.6563 30.0085
31.8418 29.81
32.0275 29.6202
32.2132 29.0509
32.399 28.6691
32.5848 28.1517
32.7708 27.864
32.9569 27.7719
33.143 27.4743
33.3293 27.1077
33.5158 26.748
33.7022 26.3571
33.8887 26.064
34.0753 25.7672
34.262 25.3801
34.4488 25.0342
34.6357 24.7293
34.8227 24.4483
35.0098 24.1959
35.1969 23.9044
35.3842 23.7921
35.5716 23.5227
35.759 23.1839
35.9468 22.9264
36.1345 22.6429
36.3222 22.4662
36.5101 22.1865
36.6981 21.8952
36.8861 21.5684
37.0743 21.3498
37.2626 21.0215
37.451 20.8061
37.6395 20.5937
37.8281 20.312
38.0168 20.0192
38.2056 19.7457
38.3945 19.472
38.5837 19.2508
38.7728 19.0496
38.9621 18.7978
39.1514 18.4731
39.3409 18.2769
39.5304 17.9877
39.7201 17.8463
39.9099 17.697
40.0999 17.3462
40.2899 17.2125
40.48 16.9284
40.6703 16.7455
40.8607 16.5649
41.0512 16.3313
41.242 16.1038
41.4327 15.9132
41.6236 15.7541
41.8146 15.5073
42.0057 15.2919
42.1969 15.077
42.3882 14.9255
42.5797 14.6622
42.7713 14.4653
42.963 14.303
43.1549 14.0995
43.3468 13.8728
43.5389 13.6403
43.7312 13.487
43.9237 13.3055
44.1162 13.1181
44.3088 12.9299
44.5016 12.7609
44.6945 12.6097
44.8875 12.3805
45.0806 12.2669
45.2739 12.0873
45.4673 11.9241
45.6609 11.7223
45.8546 11.5478
46.0484 11.4317
46.2424 11.229
46.4365 11.1038
46.631 10.9388
46.8254 10.7454
47.0199 10.6298
47.2146 10.4456
47.4095 10.267
47.6044 10.1524
47.7996 9.99995
47.9948 9.79881
48.1902 9.68021
48.3858 9.5513
48.5815 9.39183
48.7774 9.33205
48.9734 9.14705
49.1696 9.00374
49.3661 8.86525
49.5626 8.6971
49.7592 8.60951
49.956 8.49741
50.153 8.36341
50.3501 8.2326
50.5474 8.07167
50.7448 7.96968
50.9424 7.85488
51.1402 7.75415
51.3381 7.60645
51.5362 7.5246
51.7344 7.34412
51.9328 7.19669
52.1316 7.07834
52.3304 7.02527
52.5293 6.90893
52.7284 6.73389
52.9276 6.65596
53.1271 6.56845
53.3267 6.42004
53.5265 6.28761
53.7264 6.2333
53.9266 6.1213
54.1269 5.92938
54.3274 5.89476
54.528 5.76164
54.7289 5.63294
54.9301 5.40988
55.1314 5.28473
55.3328 5.08185
55.5344 4.95143
55.7361 4.8142