Folder: NiFe_MOF_catalyst_paper/XRD (part 94)

File: Ni3Fe_FD0508.xy
TT I
1.27165 7.93059
1.45013 6.88305
1.62863 5.39646
1.80712 4.76858
1.98562 4.72199
2.16411 4.37809
2.34263 5.4922
2.52115 6.57463
2.69965 7.22677
2.87818 8.47361
3.05672 11.0344
3.23527 15.4085
3.4138 18.9412
3.59237 24.2527
3.77094 26.256
3.9495 30.043
4.12809 35.3109
4.30669 220.556
4.4853 67.1351
4.6639 55.9634
4.84253 68.1027
5.02118 87.8065
5.19981 392.152
5.37848 205.252
5.55716 103.689
5.73586 93.5868
5.91455 96.0935
6.09328 4110.05
6.27201 84.9812
6.45075 68.4758
6.62952 63.4529
6.8083 59.4424
6.98711 56.746
7.16591 56.1403
7.34475 93.134
7.5236 55.4812
7.70247 57.086
7.88135 58.465
8.06026 63.2152
8.23919 70.1689
8.41812 86.7229
8.59709 1153.8
8.77609 102.234
8.9551 92.7874
9.13412 82.8656
9.31318 83.4927
9.49226 85.7545
9.67134 100.009
9.85047 101.009
10.0296 356.616
10.2088 446.748
10.388 106.311
10.5672 494.161
10.7465 88.1394
10.9257 79.4144
11.105 72.5199
11.2844 71.3251
11.4637 65.7841
11.6431 64.3417
11.8225 63.3288
12.002 64.6229
12.1814 153.017
12.3609 72.1354
12.5405 65.2223
12.72 70.8706
12.8996 71.616
13.0792 79.6023
13.2589 236.614
13.4386 131.862
13.6183 243.278
13.7981 103.506
13.9779 76.8132
14.1577 73.3193
14.3376 72.6169
14.5175 69.7251
14.6974 71.0276
14.8774 111.657
15.0574 154.35
15.2374 72.1559
15.4175 67.4475
15.5976 66.5704
15.7778 96.0366
15.958 160.021
16.1382 63.5666
16.3185 59.5817
16.4988 56.0562
16.6792 55.2464
16.8596 56.0103
17.04 56.544
17.2205 67.1051
17.401 72.6739
17.5815 60.102
17.7622 61.9258
17.9428 74.6897
18.1237 137.247
18.3044 91.1211
18.4852 80.7174
18.666 61.0888
18.8469 58.8875
19.0278 57.6512
19.2088 60.4011
19.3898 76.4562
19.5709 55.0354
19.752 53.8468
19.9332 57.1265
20.1144 70.1176
20.2957 64.0124
20.477 54.655
20.6586 50.2994
20.84 49.3911
21.0215 49.1242
21.203 51.3823
21.3846 49.7117
21.5662 49.5102
21.7479 53.2741
21.9297 64.8534
22.1115 56.4604
22.2933 50.5838
22.4753 49.5118
22.6572 49.5407
22.8393 52.3672
23.0214 58.021
23.2037 49.4938
23.3859 50.3885
23.5682 56.8367
23.7505 49.2199
23.9329 45.9533
24.1154 44.7275
24.2979 43.9943
24.4805 43.5623
24.6631 43.4216
24.8458 42.7661
25.0286 43.4055
25.2114 45.1994
25.3943 45.2028
25.5773 41.543
25.7605 40.9596
25.9436 41.2802
26.1268 42.2526
26.31 40.7956
26.4933 41.2324
26.6767 42.5775
26.8601 41.0306
27.0437 39.381
27.2272 39.0288
27.4109 38.8091
27.5946 38.8854
27.7784 38.371
27.9623 38.835
28.1462 39.3538
28.3304 37.6947
28.5145 36.5163
28.6987 36.093
28.8829 35.9064
29.0673 35.11
29.2517 34.7888
29.4361 34.5448
29.6207 33.5311
29.8053 33.3395
29.99 32.908
30.1748 32.8098
30.3597 32.7153
30.5447 32.5428
30.7297 32.6338
30.915 31.9656
31.1002 31.5526
31.2855 31.1621
31.4708 31.2277
31.6563 30.8342
31.8418 30.5002
32.0275 30.3561
32.2132 29.782
32.399 29.3829
32.5848 28.9511
32.7708 28.4861
32.9569 28.3567
33.143 28.0842
33.3293 27.7057
33.5158 27.4279
33.7022 26.9599
33.8887 26.6
34.0753 26.3231
34.262 25.9868
34.4488 25.6139
34.6357 25.2834
34.8227 25.0342
35.0098 24.7267
35.1969 24.4597
35.3842 24.2609
35.5716 24.0358
35.759 23.8098
35.9468 23.3536
36.1345 23.1859
36.3222 22.9445
36.5101 22.731
36.6981 22.4186
36.8861 22.0777
37.0743 21.7848
37.2626 21.5167
37.451 21.1968
37.6395 21.1297
37.8281 20.7575
38.0168 20.4223
38.2056 20.2174
38.3945 19.8843
38.5837 19.7085
38.7728 19.445
38.9621 19.1627
39.1514 18.9055
39.3409 18.7383
39.5304 18.459
39.7201 18.2768
39.9099 18.1222
40.0999 17.861
40.2899 17.5621
40.48 17.303
40.6703 17.1401
40.8607 16.98
41.0512 16.6941
41.242 16.3924
41.4327 16.2795
41.6236 16.0488
41.8146 15.8682
42.0057 15.6029
42.1969 15.3386
42.3882 15.2599
42.5797 15.0155
42.7713 14.7881
42.963 14.5758
43.1549 14.4184
43.3468 14.1518
43.5389 13.9881
43.7312 13.7938
43.9237 13.6449
44.1162 13.4385
44.3088 13.2652
44.5016 13.0465
44.6945 12.8536
44.8875 12.7176
45.0806 12.5257
45.2739 12.3248
45.4673 12.1671
45.6609 12.0315
45.8546 11.8514
46.0484 11.6689
46.2424 11.4495
46.4365 11.3725
46.631 11.1538
46.8254 10.9655
47.0199 10.8749
47.2146 10.6914
47.4095 10.4903
47.6044 10.3771
47.7996 10.2195
47.9948 10.0221
48.1902 9.90242
48.3858 9.80268
48.5815 9.67609
48.7774 9.49595
48.9734 9.3605
49.1696 9.24378
49.3661 9.0403
49.5626 8.95472
49.7592 8.79967
49.956 8.6675
50.153 8.53023
50.3501 8.39196
50.5474 8.29337
50.7448 8.15241
50.9424 8.04173
51.1402 7.89178
51.3381 7.77967
51.5362 7.61743
51.7344 7.52674
51.9328 7.37695
52.1316 7.26902
52.3304 7.16728
52.5293 7.03407
52.7284 6.92794
52.9276 6.81348
53.1271 6.68847
53.3267 6.56454
53.5265 6.45183
53.7264 6.35673
53.9266 6.20786
54.1269 6.14707
54.3274 6.00705
54.528 5.89826
54.7289 5.71287
54.9301 5.53883
55.1314 5.45245
55.3328 5.22093
55.5344 5.04198
55.7361 4.8865

File: Ni3Fe_FD0509.xy
TT I
1.27165 7.3389
1.45013 6.53472
1.62863 5.43854
1.80712 4.8285
1.98562 5.1333
2.16411 5.51911
2.34263 5.06063
2.52115 6.55823
2.69965 8.37574
2.87818 8.79987
3.05672 11.2761
3.23527 15.5
3.4138 19.3009
3.59237 24.3618
3.77094 26.1759
3.9495 30.1623
4.12809 35.4644
4.30669 222.465
4.4853 66.6714
4.6639 56.364
4.84253 67.9414
5.02118 87.9991
5.19981 390.843
5.37848 205.088
5.55716 104.205
5.73586 93.433
5.91455 95.664
6.09328 4103.63
6.27201 84.9701
6.45075 68.104
6.62952 63.6241
6.8083 59.6957
6.98711 56.6055
7.16591 56.4089
7.34475 93.3389
7.5236 55.8111
7.70247 57.1284
7.88135 58.4874
8.06026 63.0124
8.23919 70.6772
8.41812 86.7007
8.59709 1151.6
8.77609 102.238
8.9551 93.1532
9.13412 82.7494
9.31318 83.6382
9.49226 85.7331
9.67134 100.476
9.85047 101.168
10.0296 355.493
10.2088 445.364
10.388 106.499
10.5672 493.813
10.7465 87.8806
10.9257 79.578
11.105 72.6641
11.2844 71.8102
11.4637 65.836
11.6431 64.7425
11.8225 63.1346
12.002 64.4111
12.1814 153.226
12.3609 72.1162
12.5405 65.5481
12.72 71.1738
12.8996 71.9893
13.0792 80.0617
13.2589 236.303
13.4386 131.44
13.6183 242.854
13.7981 102.986
13.9779 77.0847
14.1577 73.4447
14.3376 72.8872
14.5175 69.85
14.6974 71.4196
14.8774 111.832
15.0574 155.122
15.2374 72.0772
15.4175 67.2284
15.5976 66.5857
15.7778 96.0433
15.958 159.679
16.1382 63.7291
16.3185 59.5536
16.4988 56.4086
16.6792 55.1998
16.8596 56.0237
17.04 56.4888
17.2205 67.2575
17.401 72.7056
17.5815 59.7567
17.7622 62.0356
17.9428 74.8837
18.1237 137.413
18.3044 91.0812
18.4852 80.4556
18.666 61.133
18.8469 58.7414
19.0278 57.7538
19.2088 60.579
19.3898 76.6046
19.5709 55.0776
19.752 54.0453
19.9332 56.9056
20.1144 70.0851
20.2957 64.2595
20.477 54.8811
20.6586 50.4849
20.84 49.435
21.0215 49.3675
21.203 51.3532
21.3846 49.8449
21.5662 49.388
21.7479 53.1946
21.9297 64.6792
22.1115 56.5335
22.2933 50.7575
22.4753 49.5309
22.6572 49.4908
22.8393 52.6183
23.0214 58.0145
23.2037 49.477
23.3859 50.4759
23.5682 56.9689
23.7505 49.2907
23.9329 45.7132
24.1154 44.812
24.2979 44.1156
24.4805 43.558
24.6631 43.1337
24.8458 42.847
25.0286 43.5212
25.2114 45.1496
25.3943 45.292
25.5773 41.5197
25.7605 40.9967
25.9436 41.3583
26.1268 42.1968
26.31 40.8214
26.4933 41.3791
26.6767 42.78
26.8601 40.9619
27.0437 39.4347
27.2272 38.9888
27.4109 38.9386
27.5946 38.9194
27.7784 38.5027
27.9623 38.924
28.1462 39.366
28.3304 37.6471
28.5145 36.4939
28.6987 36.0511
28.8829 35.9201
29.0673 35.0221
29.2517 34.7826
29.4361 34.7034
29.6207 33.6287
29.8053 33.418
29.99 33.042
30.1748 32.961
30.3597 32.7426
30.5447 32.6794
30.7297 32.6034
30.915 32.0478
31.1002 31.6816
31.2855 31.253
31.4708 31.3452
31.6563 30.7043
31.8418 30.391
32.0275 30.3094
32.2132 29.7885
32.399 29.3049
32.5848 28.8323
32.7708 28.5436
32.9569 28.3597
33.143 28.1648
33.3293 27.6346
33.5158 27.3946
33.7022 26.9295
33.8887 26.7174
34.0753 26.3476
34.262 25.9602
34.4488 25.653
34.6357 25.3367
34.8227 24.9996
35.0098 24.7813
35.1969 24.5918
35.3842 24.2741
35.5716 24.1013
35.759 23.8139
35.9468 23.4175
36.1345 23.1895
36.3222 22.9615
36.5101 22.7073
36.6981 22.3929
36.8861 22.1623
37.0743 21.8287
37.2626 21.5546
37.451 21.2992
37.6395 21.1454
37.8281 20.7622
38.0168 20.4782
38.2056 20.223
38.3945 19.946
38.5837 19.7114
38.7728 19.4294
38.9621 19.2996
39.1514 18.9753
39.3409 18.6904
39.5304 18.4787
39.7201 18.299
39.9099 18.073
40.0999 17.8072
40.2899 17.6227
40.48 17.2991
40.6703 17.1236
40.8607 16.9739
41.0512 16.7458
41.242 16.4558
41.4327 16.291
41.6236 15.9891
41.8146 15.9042
42.0057 15.6201
42.1969 15.4214
42.3882 15.2496
42.5797 15.1139
42.7713 14.8114
42.963 14.6487
43.1549 14.4649
43.3468 14.1964
43.5389 14.0568
43.7312 13.8078
43.9237 13.6342
44.1162 13.4309
44.3088 13.2659
44.5016 13.065
44.6945 12.8704
44.8875 12.7032
45.0806 12.5044
45.2739 12.3506
45.4673 12.1783
45.6609 12.0206
45.8546 11.8673
46.0484 11.6539
46.2424 11.4945
46.4365 11.4009
46.631 11.1652
46.8254 11.0079
47.0199 10.8535
47.2146 10.6665
47.4095 10.5357
47.6044 10.3774
47.7996 10.2165
47.9948 10.0451
48.1902 9.98011
48.3858 9.76134
48.5815 9.67471
48.7774 9.47538
48.9734 9.4322
49.1696 9.2441
49.3661 9.09542
49.5626 8.92805
49.7592 8.77607
49.956 8.72854
50.153 8.56711
50.3501 8.41096
50.5474 8.28866
50.7448 8.1736
50.9424 8.0436
51.1402 7.91697
51.3381 7.76267
51.5362 7.69985
51.7344 7.54104
51.9328 7.39848
52.1316 7.22982
52.3304 7.12257
52.5293 7.03426
52.7284 6.93755
52.9276 6.80763
53.1271 6.71914
53.3267 6.61636
53.5265 6.52261
53.7264 6.37547
53.9266 6.23071
54.1269 6.14873
54.3274 6.015
54.528 5.86756
54.7289 5.69672
54.9301 5.58131
55.1314 5.41014
55.3328 5.23606
55.5344 5.01454
55.7361 4.90186

File: Ni3Fe_FD0510.xy
TT I
1.27165 7.62257
1.45013 5.55652
1.62863 5.46553
1.80712 4.67394
1.98562 4.40062
2.16411 4.91311
2.34263 5.39809
2.52115 6.47322
2.69965 7.56498
2.87818 8.53911
3.05672 11.3284
3.23527 15.0193
3.4138 19.1675
3.59237 24.2405
3.77094 26.7913
3.9495 30.2217
4.12809 35.5734
4.30669 224.323
4.4853 66.8172
4.6639 56.0081
4.84253 67.8802
5.02118 88.1596
5.19981 391.386
5.37848 204.535
5.55716 104.013
5.73586 93.535
5.91455 96.1791
6.09328 4094.63
6.27201 85.0723
6.45075 68.7125
6.62952 64.2769
6.8083 59.5568
6.98711 56.5089
7.16591 56.1279
7.34475 93.6709
7.5236 55.826
7.70247 56.8099
7.88135 58.6797
8.06026 62.9903
8.23919 70.6244
8.41812 86.5795
8.59709 1150.63
8.77609 101.946
8.9551 93.1754
9.13412 82.7739
9.31318 83.803
9.49226 85.6228
9.67134 100.251
9.85047 101.497
10.0296 355.954
10.2088 446.322
10.388 106.343
10.5672 494.396
10.7465 87.9496
10.9257 79.8528
11.105 72.9684
11.2844 71.6943
11.4637 65.896
11.6431 64.6713
11.8225 63.3017
12.002 64.5625
12.1814 153.807
12.3609 72.2752
12.5405 65.4152
12.72 71.0765
12.8996 71.8978
13.0792 80.0099
13.2589 235.963
13.4386 130.917
13.6183 243.236
13.7981 102.831
13.9779 76.9624
14.1577 73.7312
14.3376 72.7463
14.5175 69.9942
14.6974 71.4857
14.8774 111.73
15.0574 154.659
15.2374 72.2959
15.4175 67.2923
15.5976 66.5801
15.7778 95.9883
15.958 159.49
16.1382 63.965
16.3185 59.5347
16.4988 56.298
16.6792 55.3662
16.8596 56.1017
17.04 56.6389
17.2205 67.3713
17.401 72.6433
17.5815 60.0405
17.7622 61.8477
17.9428 75.021
18.1237 137.602
18.3044 90.904
18.4852 80.4764
18.666 61.328
18.8469 59.0122
19.0278 57.6726
19.2088 60.3951
19.3898 76.7461
19.5709 55.1119
19.752 53.9886
19.9332 57.188
20.1144 70.289
20.2957 64.1749
20.477 54.7575
20.6586 50.3267
20.84 49.4604
21.0215 49.2713
21.203 51.3432
21.3846 49.533
21.5662 49.3709
21.7479 53.2729
21.9297 64.8139
22.1115 56.6001
22.2933 50.6771
22.4753 49.5679
22.6572 49.6344
22.8393 52.6193
23.0214 58.1817
23.2037 49.509
23.3859 50.4001
23.5682 57.1156
23.7505 49.1931
23.9329 45.9287
24.1154 44.7946
24.2979 44.0644
24.4805 43.3536
24.6631 43.4628
24.8458 42.7568
25.0286 43.2878
25.2114 45.2435
25.3943 45.0296
25.5773 41.4604
25.7605 40.9669
25.9436 41.3277
26.1268 42.343
26.31 40.6883
26.4933 41.2932
26.6767 42.7389
26.8601 41.1034
27.0437 39.3588
27.2272 39.0913
27.4109 38.8908
27.5946 38.8449
27.7784 38.325
27.9623 38.8791
28.1462 39.3865
28.3304 37.6979
28.5145 36.388
28.6987 36.1144
28.8829 35.9837
29.0673 35.2336
29.2517 34.8139
29.4361 34.6153
29.6207 33.581
29.8053 33.3219
29.99 32.9391
30.1748 32.8665
30.3597 32.6664
30.5447 32.5712
30.7297 32.5765
30.915 32.0615
31.1002 31.5288
31.2855 31.2525
31.4708 31.168
31.6563 30.708
31.8418 30.5307
32.0275 30.3183
32.2132 29.7325
32.399 29.3747
32.5848 28.8201
32.7708 28.5592
32.9569 28.4419
33.143 28.2207
33.3293 27.8266
33.5158 27.4072
33.7022 26.9918
33.8887 26.6945
34.0753 26.3814
34.262 25.9838
34.4488 25.583
34.6357 25.2809
34.8227 25.0294
35.0098 24.8198
35.1969 24.506
35.3842 24.3091
35.5716 24.0932
35.759 23.7662
35.9468 23.4382
36.1345 23.2225
36.3222 22.9311
36.5101 22.7211
36.6981 22.4194
36.8861 22.1128
37.0743 21.7952
37.2626 21.5776
37.451 21.2541
37.6395 21.1139
37.8281 20.7951
38.0168 20.5061
38.2056 20.2432
38.3945 19.9329
38.5837 19.691
38.7728 19.4665
38.9621 19.2092
39.1514 18.9337
39.3409 18.6956
39.5304 18.497
39.7201 18.3233
39.9099 18.136
40.0999 17.8915
40.2899 17.5714
40.48 17.4239
40.6703 17.1361
40.8607 16.9932
41.0512 16.7435
41.242 16.4855
41.4327 16.3531
41.6236 16.0583
41.8146 15.8445
42.0057 15.6397
42.1969 15.3985
42.3882 15.2699
42.5797 15.0417
42.7713 14.8304
42.963 14.6184
43.1549 14.4315
43.3468 14.2431
43.5389 14.025
43.7312 13.821
43.9237 13.6475
44.1162 13.461
44.3088 13.2716
44.5016 13.0695
44.6945 12.9158
44.8875 12.759
45.0806 12.501
45.2739 12.3714
45.4673 12.184
45.6609 12.0144
45.8546 11.829
46.0484 11.66
46.2424 11.4824
46.4365 11.356
46.631 11.1934
46.8254 11.015
47.0199 10.8743
47.2146 10.6867
47.4095 10.5337
47.6044 10.3989
47.7996 10.2294
47.9948 10.0315
48.1902 9.9448
48.3858 9.7747
48.5815 9.6771
48.7774 9.5279
48.9734 9.37798
49.1696 9.25977
49.3661 9.12404
49.5626 8.94883
49.7592 8.82648
49.956 8.71016
50.153 8.54686
50.3501 8.41912
50.5474 8.28834
50.7448 8.18638
50.9424 8.04016
51.1402 7.89232
51.3381 7.77598
51.5362 7.67365
51.7344 7.54986
51.9328 7.4032
52.1316 7.26715
52.3304 7.19773
52.5293 7.07493
52.7284 6.91862
52.9276 6.79263
53.1271 6.72786
53.3267 6.5716
53.5265 6.46483
53.7264 6.37123
53.9266 6.2374
54.1269 6.16478
54.3274 6.03486
54.528 5.87272
54.7289 5.71172
54.9301 5.57841
55.1314 5.42875
55.3328 5.22763
55.5344 5.01238
55.7361 4.94498

File: Ni3Fe_FD0511.xy
TT I
1.27165 7.42099
1.45013 6.13287
1.62863 5.16799
1.80712 4.69458
1.98562 5.05934
2.16411 4.65688
2.34263 5.07902
2.52115 6.94725
2.69965 7.70037
2.87818 8.32809
3.05672 11.0859
3.23527 14.8
3.4138 18.7398
3.59237 24.2595
3.77094 26.539
3.9495 30.003
4.12809 35.1934
4.30669 227.194
4.4853 67.8576
4.6639 56.2184
4.84253 67.9801
5.02118 88.4507
5.19981 392.463
5.37848 204.275
5.55716 103.574
5.73586 93.8435
5.91455 95.878
6.09328 4120.21
6.27201 85.2413
6.45075 68.3642
6.62952 64.0062
6.8083 59.1551
6.98711 56.3708
7.16591 56.2047
7.34475 94.1401
7.5236 55.5642
7.70247 57.2773
7.88135 58.4153
8.06026 62.9612
8.23919 70.495
8.41812 86.7985
8.59709 1149.64
8.77609 102.208
8.9551 93.2736
9.13412 83.2987
9.31318 83.7117
9.49226 85.3843
9.67134 100.557
9.85047 101.344
10.0296 354.99
10.2088 446.759
10.388 106.425
10.5672 501.406
10.7465 88.2837
10.9257 79.4785
11.105 72.7442
11.2844 71.444
11.4637 66.1525
11.6431 64.6877
11.8225 63.3103
12.002 64.3091
12.1814 153.658
12.3609 72.3029
12.5405 65.5609
12.72 71.0183
12.8996 72.0003
13.0792 79.8883
13.2589 235.677
13.4386 131.052
13.6183 242.044
13.7981 102.742
13.9779 76.7215
14.1577 73.6271
14.3376 72.4866
14.5175 69.6397
14.6974 71.5602
14.8774 111.349
15.0574 155.563
15.2374 72.3214
15.4175 67.5131
15.5976 66.6895
15.7778 95.7216
15.958 159.928
16.1382 63.82
16.3185 59.6805
16.4988 56.2375
16.6792 55.4104
16.8596 56.0987
17.04 56.5354
17.2205 67.2183
17.401 72.7088
17.5815 59.949
17.7622 61.9176
17.9428 74.5032
18.1237 137.577
18.3044 91.0899
18.4852 80.4809
18.666 61.2233
18.8469 58.8029
19.0278 57.6775
19.2088 60.4245
19.3898 76.5842
19.5709 55.1587
19.752 54.0247
19.9332 56.8358
20.1144 70.2304
20.2957 64.1658
20.477 54.8903
20.6586 50.3987
20.84 49.5335
21.0215 49.3306
21.203 51.378
21.3846 49.81
21.5662 49.431
21.7479 53.2938
21.9297 64.7997
22.1115 56.5295
22.2933 50.8283
22.4753 49.5178
22.6572 49.5352
22.8393 52.3997
23.0214 57.9207
23.2037 49.3633
23.3859 50.4004
23.5682 56.9262
23.7505 49.1444
23.9329 45.9205
24.1154 44.8036
24.2979 44.0787
24.4805 43.4623
24.6631 43.3651
24.8458 42.8548
25.0286 43.2453
25.2114 45.2393
25.3943 45.1964
25.5773 41.464
25.7605 41.0322
25.9436 41.3887
26.1268 42.0857
26.31 40.7326
26.4933 41.2317
26.6767 42.6234
26.8601 40.9664
27.0437 39.4469
27.2272 39.1143
27.4109 38.9438
27.5946 38.8121
27.7784 38.3469
27.9623 38.7715
28.1462 39.2711
28.3304 37.6596
28.5145 36.3922
28.6987 36.0665
28.8829 35.9724
29.0673 35.1362
29.2517 34.7757
29.4361 34.5456
29.6207 33.6634
29.8053 33.2977
29.99 33.0184
30.1748 32.9369
30.3597 32.6361
30.5447 32.5333
30.7297 32.6954
30.915 31.9766
31.1002 31.5798
31.2855 31.2675
31.4708 31.1626
31.6563 30.85
31.8418 30.4971
32.0275 30.2303
32.2132 29.7852
32.399 29.2588
32.5848 28.9477
32.7708 28.5777
32.9569 28.4349
33.143 28.1066
33.3293 27.757
33.5158 27.3961
33.7022 26.9623
33.8887 26.6712
34.0753 26.3246
34.262 25.9839
34.4488 25.65
34.6357 25.1718
34.8227 24.991
35.0098 24.9248
35.1969 24.4536
35.3842 24.2962
35.5716 24.0947
35.759 23.7493
35.9468 23.4229
36.1345 23.1584
36.3222 22.9266
36.5101 22.7458
36.6981 22.4827
36.8861 22.0482
37.0743 21.7638
37.2626 21.5573
37.451 21.2195
37.6395 21.1415
37.8281 20.7565
38.0168 20.4786
38.2056 20.2253
38.3945 19.9558
38.5837 19.7566
38.7728 19.4947
38.9621 19.1774
39.1514 18.9641
39.3409 18.7262
39.5304 18.5329
39.7201 18.2352
39.9099 18.0688
40.0999 17.8863
40.2899 17.6764
40.48 17.34
40.6703 17.14
40.8607 17.0381
41.0512 16.7357
41.242 16.4616
41.4327 16.2828
41.6236 16.0273
41.8146 15.7926
42.0057 15.6397
42.1969 15.3949
42.3882 15.1936
42.5797 15.0108
42.7713 14.8276
42.963 14.6374
43.1549 14.4524
43.3468 14.2146
43.5389 14.016
43.7312 13.8264
43.9237 13.6803
44.1162 13.4509
44.3088 13.2585
44.5016 13.031
44.6945 12.9027
44.8875 12.7435
45.0806 12.5628
45.2739 12.3852
45.4673 12.1976
45.6609 12.0006
45.8546 11.842
46.0484 11.6716
46.2424 11.4956
46.4365 11.4063
46.631 11.2028
46.8254 10.9624
47.0199 10.8061
47.2146 10.698
47.4095 10.5161
47.6044 10.4012
47.7996 10.1945
47.9948 10.0946
48.1902 9.91266
48.3858 9.78936
48.5815 9.6604
48.7774 9.53501
48.9734 9.40065
49.1696 9.22546
49.3661 9.09328
49.5626 8.94554
49.7592 8.81657
49.956 8.69404
50.153 8.5354
50.3501 8.39785
50.5474 8.3049
50.7448 8.20159
50.9424 8.07158
51.1402 7.91427
51.3381 7.7438
51.5362 7.67123
51.7344 7.52967
51.9328 7.35647
52.1316 7.27617
52.3304 7.17001
52.5293 7.04095
52.7284 6.92808
52.9276 6.8202
53.1271 6.76613
53.3267 6.60154
53.5265 6.44255
53.7264 6.36199
53.9266 6.29625
54.1269 6.13181
54.3274 6.06586
54.528 5.87243
54.7289 5.70789
54.9301 5.53084
55.1314 5.47126
55.3328 5.23783
55.5344 5.06146
55.7361 4.83279

File: Ni3Fe_FD0512.xy
TT I
1.27165 7.78579
1.45013 6.58712
1.62863 4.96863
1.80712 5.12194
1.98562 4.94045
2.16411 5.56641
2.34263 5.71076
2.52115 6.48195
2.69965 7.61438
2.87818 8.76654
3.05672 11.5407
3.23527 15.3942
3.4138 19.3547
3.59237 24.8302
3.77094 26.6582
3.9495 30.3369
4.12809 35.8121
4.30669 230.615
4.4853 68.172
4.6639 56.0616
4.84253 68.0479
5.02118 87.996
5.19981 388.646
5.37848 204.806
5.55716 103.497
5.73586 93.8946
5.91455 95.9043
6.09328 4115.87
6.27201 84.9868
6.45075 68.4593
6.62952 64.0748
6.8083 59.4391
6.98711 56.9303
7.16591 56.0019
7.34475 96.0074
7.5236 55.7548
7.70247 56.879
7.88135 58.7581
8.06026 62.9021
8.23919 70.508
8.41812 86.4361
8.59709 1142.01
8.77609 102.235
8.9551 93.5103
9.13412 82.8534
9.31318 83.7657
9.49226 85.3331
9.67134 100.708
9.85047 101.433
10.0296 352.264
10.2088 449.424
10.388 106.425
10.5672 498.265
10.7465 87.6402
10.9257 79.6333
11.105 72.9101
11.2844 71.4639
11.4637 65.7524
11.6431 64.634
11.8225 63.0663
12.002 64.3398
12.1814 154.593
12.3609 72.4892
12.5405 65.5108
12.72 71.2841
12.8996 71.8414
13.0792 79.6444
13.2589 234.88
13.4386 132.033
13.6183 240.74
13.7981 103.518
13.9779 76.8702
14.1577 73.5307
14.3376 72.6505
14.5175 69.9237
14.6974 71.4158
14.8774 111.281
15.0574 155.362
15.2374 72.1425
15.4175 67.2512
15.5976 66.716
15.7778 95.8622
15.958 161.003
16.1382 63.8074
16.3185 59.7299
16.4988 56.4559
16.6792 55.3241
16.8596 56.069
17.04 56.6133
17.2205 67.1226
17.401 72.8554
17.5815 60.1414
17.7622 61.9546
17.9428 74.7615
18.1237 137.193
18.3044 90.5429
18.4852 80.7487
18.666 61.2846
18.8469 58.5823
19.0278 57.6975
19.2088 60.4953
19.3898 76.7112
19.5709 55.0934
19.752 54.0557
19.9332 57.0986
20.1144 70.1366
20.2957 64.1244
20.477 54.7773
20.6586 50.395
20.84 49.6047
21.0215 49.4231
21.203 51.4284
21.3846 49.7535
21.5662 49.3884
21.7479 53.2439
21.9297 65.0299
22.1115 56.505
22.2933 50.5483
22.4753 49.6021
22.6572 49.4825
22.8393 52.3787
23.0214 58.1603
23.2037 49.666
23.3859 50.371
23.5682 57.0713
23.7505 49.1807
23.9329 45.8326
24.1154 44.7182
24.2979 44.0243
24.4805 43.6
24.6631 43.4019
24.8458 42.8093
25.0286 43.3695
25.2114 45.1627
25.3943 45.2737
25.5773 41.4552
25.7605 41.0344
25.9436 41.2865
26.1268 42.2133
26.31 40.5056
26.4933 41.4227
26.6767 42.6653
26.8601 40.9838
27.0437 39.3598
27.2272 39.0359
27.4109 38.8822
27.5946 38.7625
27.7784 38.2965
27.9623 38.8311
28.1462 39.3297
28.3304 37.7644
28.5145 36.356
28.6987 36.1277
28.8829 35.8679
29.0673 35.1329
29.2517 34.8685
29.4361 34.6218
29.6207 33.5336
29.8053 33.3221
29.99 33.003
30.1748 32.9551
30.3597 32.5849
30.5447 32.6908
30.7297 32.635
30.915 32.0938
31.1002 31.5484
31.2855 31.2704
31.4708 31.1836
31.6563 30.7989
31.8418 30.497
32.0275 30.3377
32.2132 29.7232
32.399 29.2506
32.5848 28.7985
32.7708 28.5193
32.9569 28.4516
33.143 28.1663
33.3293 27.7862
33.5158 27.4761
33.7022 27.0086
33.8887 26.6544
34.0753 26.34
34.262 25.9248
34.4488 25.678
34.6357 25.3323
34.8227 25.0465
35.0098 24.7836
35.1969 24.5318
35.3842 24.3048
35.5716 24.0732
35.759 23.74
35.9468 23.4134
36.1345 23.1885
36.3222 23.0225
36.5101 22.6552
36.6981 22.4008
36.8861 22.1606
37.0743 21.756
37.2626 21.524
37.451 21.2169
37.6395 21.1062
37.8281 20.7909
38.0168 20.4096
38.2056 20.2736
38.3945 19.9971
38.5837 19.7381
38.7728 19.4652
38.9621 19.1805
39.1514 18.9414
39.3409 18.7109
39.5304 18.4626
39.7201 18.3172
39.9099 18.0619
40.0999 17.7988
40.2899 17.6067
40.48 17.3565
40.6703 17.1329
40.8607 16.9839
41.0512 16.7531
41.242 16.4912
41.4327 16.2801
41.6236 16.0501
41.8146 15.8577
42.0057 15.6084
42.1969 15.4557
42.3882 15.2565
42.5797 14.9766
42.7713 14.8339
42.963 14.6222
43.1549 14.4255
43.3468 14.1617
43.5389 13.9733
43.7312 13.8054
43.9237 13.6982
44.1162 13.4149
44.3088 13.2503
44.5016 13.0324
44.6945 12.873
44.8875 12.6915
45.0806 12.488
45.2739 12.3765
45.4673 12.2175
45.6609 12.0375
45.8546 11.8842
46.0484 11.6587
46.2424 11.4963
46.4365 11.3572
46.631 11.1537
46.8254 11.0164
47.0199 10.8378
47.2146 10.6975
47.4095 10.5109
47.6044 10.372
47.7996 10.2131
47.9948 10.0932
48.1902 9.91371
48.3858 9.79135
48.5815 9.66313
48.7774 9.50246
48.9734 9.34987
49.1696 9.24743
49.3661 9.09283
49.5626 8.92699
49.7592 8.79448
49.956 8.66315
50.153 8.52823
50.3501 8.42944
50.5474 8.30164
50.7448 8.16383
50.9424 8.03343
51.1402 7.90467
51.3381 7.79903
51.5362 7.67763
51.7344 7.51224
51.9328 7.40142
52.1316 7.26932
52.3304 7.19559
52.5293 7.02329
52.7284 6.91367
52.9276 6.82598
53.1271 6.68403
53.3267 6.55686
53.5265 6.46185
53.7264 6.37843
53.9266 6.24037
54.1269 6.12612
54.3274 6.02782
54.528 5.90319
54.7289 5.71955
54.9301 5.5478
55.1314 5.41451
55.3328 5.2336
55.5344 5.04556
55.7361 4.89465