Folder: NiFe_MOF_catalyst_paper/XRD (part 173)

File: Ni3Fe_FD0939.xy
TT I
1.27165 7.26419
1.45013 6.12396
1.62863 5.84519
1.80712 4.50641
1.98562 5.37566
2.16411 4.66444
2.34263 5.59003
2.52115 7.12568
2.69965 8.69178
2.87818 9.29365
3.05672 11.5401
3.23527 15.3331
3.4138 18.2444
3.59237 23.2065
3.77094 25.509
3.9495 28.7814
4.12809 33.8461
4.30669 88.3609
4.4853 52.0553
4.6639 55.0259
4.84253 67.7253
5.02118 86.4022
5.19981 370.593
5.37848 197.592
5.55716 100.836
5.73586 91.5356
5.91455 94.1461
6.09328 4677.75
6.27201 78.8919
6.45075 69.7928
6.62952 62.4088
6.8083 59.2762
6.98711 54.7979
7.16591 55.8464
7.34475 63.9692
7.5236 53.3324
7.70247 56.7417
7.88135 56.6219
8.06026 62.3357
8.23919 68.3448
8.41812 82.1835
8.59709 1202.12
8.77609 95.6071
8.9551 88.6719
9.13412 81.773
9.31318 84.6154
9.49226 83.7696
9.67134 94.2793
9.85047 100.53
10.0296 329.63
10.2088 325.689
10.388 103.042
10.5672 548.059
10.7465 84.8986
10.9257 76.9157
11.105 70.4838
11.2844 67.2186
11.4637 63.557
11.6431 62.5578
11.8225 61.8446
12.002 63.5231
12.1814 159.531
12.3609 65.2452
12.5405 64.4518
12.72 66.8575
12.8996 70.4635
13.0792 79.4015
13.2589 246.652
13.4386 114.032
13.6183 259.563
13.7981 91.7549
13.9779 74.4707
14.1577 70.6338
14.3376 68.8492
14.5175 67.8245
14.6974 69.7156
14.8774 110.521
15.0574 136.207
15.2374 68.0391
15.4175 65.2959
15.5976 64.7506
15.7778 93.7481
15.958 145.148
16.1382 60.1737
16.3185 56.6829
16.4988 54.4251
16.6792 53.5915
16.8596 53.8914
17.04 55.1018
17.2205 66.2233
17.401 67.7422
17.5815 58.2659
17.7622 60.302
17.9428 72.2212
18.1237 140.814
18.3044 91.0193
18.4852 72.9405
18.666 59.0391
18.8469 57.0637
19.0278 55.6937
19.2088 58.2365
19.3898 74.9893
19.5709 53.0833
19.752 52.5466
19.9332 55.2966
20.1144 69.5123
20.2957 64.2257
20.477 51.6167
20.6586 48.73
20.84 47.9751
21.0215 47.8016
21.203 50.1515
21.3846 48.0399
21.5662 48.2253
21.7479 51.8787
21.9297 64.1964
22.1115 55.6018
22.2933 48.581
22.4753 47.8156
22.6572 48.0475
22.8393 51.4506
23.0214 56.1176
23.2037 47.7904
23.3859 49.0191
23.5682 57.0744
23.7505 47.0751
23.9329 44.37
24.1154 43.3396
24.2979 42.5504
24.4805 42.1836
24.6631 42.0963
24.8458 41.4832
25.0286 42.0494
25.2114 43.8951
25.3943 43.8384
25.5773 40.2209
25.7605 39.7175
25.9436 40.1459
26.1268 41.2415
26.31 39.3792
26.4933 40.0077
26.6767 41.4681
26.8601 39.6959
27.0437 38.2038
27.2272 37.7724
27.4109 37.7593
27.5946 37.8181
27.7784 37.3003
27.9623 37.8409
28.1462 38.2221
28.3304 36.4746
28.5145 35.2839
28.6987 35.1342
28.8829 34.7631
29.0673 34.0733
29.2517 33.7237
29.4361 33.5909
29.6207 32.5222
29.8053 32.3091
29.99 32.0513
30.1748 31.8373
30.3597 31.7276
30.5447 31.7179
30.7297 31.7448
30.915 31.052
31.1002 30.6004
31.2855 30.3313
31.4708 30.3053
31.6563 29.8437
31.8418 29.5864
32.0275 29.4049
32.2132 28.8526
32.399 28.4229
32.5848 28.008
32.7708 27.6483
32.9569 27.5353
33.143 27.3468
33.3293 26.951
33.5158 26.5886
33.7022 26.0463
33.8887 25.9056
34.0753 25.5544
34.262 25.2366
34.4488 24.9184
34.6357 24.4726
34.8227 24.2545
35.0098 24.0727
35.1969 23.8449
35.3842 23.6145
35.5716 23.3514
35.759 23.1144
35.9468 22.7751
36.1345 22.4472
36.3222 22.3448
36.5101 22.0896
36.6981 21.7176
36.8861 21.4249
37.0743 21.1107
37.2626 20.933
37.451 20.6399
37.6395 20.5251
37.8281 20.073
38.0168 19.8844
38.2056 19.6589
38.3945 19.2963
38.5837 19.0824
38.7728 18.7955
38.9621 18.6772
39.1514 18.3419
39.3409 18.1334
39.5304 17.8753
39.7201 17.8187
39.9099 17.4954
40.0999 17.3076
40.2899 17.0486
40.48 16.8169
40.6703 16.6204
40.8607 16.4604
41.0512 16.1893
41.242 15.9391
41.4327 15.7909
41.6236 15.5465
41.8146 15.3818
42.0057 15.1257
42.1969 14.9681
42.3882 14.8044
42.5797 14.5535
42.7713 14.3885
42.963 14.1367
43.1549 13.9588
43.3468 13.8225
43.5389 13.6024
43.7312 13.3588
43.9237 13.2216
44.1162 13.0651
44.3088 12.8397
44.5016 12.6474
44.6945 12.4877
44.8875 12.3095
45.0806 12.1467
45.2739 11.9629
45.4673 11.8332
45.6609 11.6579
45.8546 11.4748
46.0484 11.3421
46.2424 11.1497
46.4365 11.0052
46.631 10.8427
46.8254 10.6295
47.0199 10.4956
47.2146 10.3575
47.4095 10.2199
47.6044 10.0704
47.7996 9.89337
47.9948 9.77168
48.1902 9.65224
48.3858 9.49515
48.5815 9.37822
48.7774 9.26279
48.9734 9.10108
49.1696 8.93668
49.3661 8.81455
49.5626 8.64149
49.7592 8.56073
49.956 8.39324
50.153 8.31218
50.3501 8.11151
50.5474 7.99014
50.7448 7.92228
50.9424 7.81883
51.1402 7.66582
51.3381 7.51462
51.5362 7.41488
51.7344 7.30907
51.9328 7.18125
52.1316 7.04683
52.3304 6.94417
52.5293 6.8421
52.7284 6.7149
52.9276 6.6324
53.1271 6.56582
53.3267 6.38835
53.5265 6.24716
53.7264 6.15115
53.9266 6.07419
54.1269 5.96649
54.3274 5.83666
54.528 5.71466
54.7289 5.52679
54.9301 5.40109
55.1314 5.25029
55.3328 5.06388
55.5344 4.89005
55.7361 4.72525

File: Ni3Fe_FD0940.xy
TT I
1.27165 7.21916
1.45013 5.82943
1.62863 5.7506
1.80712 4.6756
1.98562 4.39906
2.16411 4.36541
2.34263 5.01522
2.52115 7.55552
2.69965 8.14158
2.87818 10.0299
3.05672 10.788
3.23527 15.3588
3.4138 18.5921
3.59237 22.7772
3.77094 25.5312
3.9495 28.8431
4.12809 33.524
4.30669 88.3436
4.4853 51.695
4.6639 54.7681
4.84253 68.4705
5.02118 86.0515
5.19981 372.054
5.37848 197.888
5.55716 101.212
5.73586 92.0822
5.91455 94.3442
6.09328 4689.62
6.27201 78.4559
6.45075 69.8357
6.62952 62.3381
6.8083 59.0041
6.98711 54.8823
7.16591 55.7503
7.34475 63.7733
7.5236 53.3653
7.70247 56.3315
7.88135 57.1482
8.06026 61.9276
8.23919 68.4451
8.41812 82.3294
8.59709 1200.62
8.77609 95.5056
8.9551 89.2481
9.13412 82.3337
9.31318 84.5545
9.49226 83.8426
9.67134 94.7361
9.85047 100.695
10.0296 330.575
10.2088 325.789
10.388 103.367
10.5672 549.712
10.7465 84.3985
10.9257 76.9943
11.105 70.4656
11.2844 67.2612
11.4637 63.6263
11.6431 62.639
11.8225 62.0516
12.002 63.4712
12.1814 159.968
12.3609 65.1363
12.5405 64.2746
12.72 66.7386
12.8996 70.38
13.0792 79.2628
13.2589 246.919
13.4386 114.082
13.6183 260.192
13.7981 91.6535
13.9779 74.5222
14.1577 70.6578
14.3376 68.8845
14.5175 67.5555
14.6974 69.6991
14.8774 110.553
15.0574 136.384
15.2374 68.2492
15.4175 65.2263
15.5976 64.8591
15.7778 93.8625
15.958 145.162
16.1382 60.3067
16.3185 56.8293
16.4988 54.3984
16.6792 53.4908
16.8596 53.6666
17.04 55.1031
17.2205 66.0449
17.401 67.7614
17.5815 58.1949
17.7622 60.215
17.9428 72.4692
18.1237 141.015
18.3044 90.8042
18.4852 73.0374
18.666 59.2949
18.8469 57.1084
19.0278 55.6236
19.2088 58.0373
19.3898 74.9917
19.5709 53.0826
19.752 52.4693
19.9332 55.446
20.1144 69.211
20.2957 64.2436
20.477 51.836
20.6586 48.7705
20.84 47.9875
21.0215 47.6972
21.203 50.27
21.3846 47.9691
21.5662 48.3056
21.7479 51.9296
21.9297 64.0603
22.1115 55.531
22.2933 48.6681
22.4753 47.904
22.6572 48.0622
22.8393 51.2762
23.0214 56.1448
23.2037 47.9626
23.3859 48.7754
23.5682 57.1237
23.7505 46.955
23.9329 44.5287
24.1154 43.3184
24.2979 42.711
24.4805 42.2228
24.6631 42.1446
24.8458 41.5243
25.0286 42.0973
25.2114 43.9273
25.3943 43.7766
25.5773 40.255
25.7605 39.7193
25.9436 40.2249
26.1268 41.1292
26.31 39.3025
26.4933 40.166
26.6767 41.6079
26.8601 39.8296
27.0437 38.1977
27.2272 37.8432
27.4109 37.6666
27.5946 37.7568
27.7784 37.1399
27.9623 37.9176
28.1462 38.0615
28.3304 36.5213
28.5145 35.3065
28.6987 34.9168
28.8829 34.8371
29.0673 34.0982
29.2517 33.8362
29.4361 33.5568
29.6207 32.5695
29.8053 32.3192
29.99 31.9731
30.1748 32.0014
30.3597 31.7194
30.5447 31.6414
30.7297 31.7212
30.915 31.1375
31.1002 30.5595
31.2855 30.3664
31.4708 30.3613
31.6563 29.816
31.8418 29.6651
32.0275 29.4634
32.2132 28.8231
32.399 28.4057
32.5848 27.9677
32.7708 27.609
32.9569 27.5245
33.143 27.3281
33.3293 26.9032
33.5158 26.5452
33.7022 26.12
33.8887 25.8455
34.0753 25.5434
34.262 25.1631
34.4488 24.7841
34.6357 24.566
34.8227 24.2741
35.0098 24.0647
35.1969 23.7947
35.3842 23.6149
35.5716 23.3935
35.759 23.1369
35.9468 22.6997
36.1345 22.4922
36.3222 22.3372
36.5101 22.0264
36.6981 21.766
36.8861 21.4021
37.0743 21.1148
37.2626 20.9336
37.451 20.6379
37.6395 20.4329
37.8281 20.0751
38.0168 19.9129
38.2056 19.5876
38.3945 19.371
38.5837 19.1416
38.7728 18.841
38.9621 18.6334
39.1514 18.358
39.3409 18.1074
39.5304 17.933
39.7201 17.7892
39.9099 17.5629
40.0999 17.3198
40.2899 17.0778
40.48 16.7743
40.6703 16.5974
40.8607 16.459
41.0512 16.2787
41.242 15.9606
41.4327 15.792
41.6236 15.5073
41.8146 15.3336
42.0057 15.1581
42.1969 14.9424
42.3882 14.7796
42.5797 14.5874
42.7713 14.3834
42.963 14.1505
43.1549 13.9774
43.3468 13.8072
43.5389 13.6153
43.7312 13.4158
43.9237 13.2793
44.1162 13.0482
44.3088 12.8507
44.5016 12.6347
44.6945 12.548
44.8875 12.3752
45.0806 12.1772
45.2739 12.0321
45.4673 11.8496
45.6609 11.6257
45.8546 11.493
46.0484 11.3231
46.2424 11.193
46.4365 11.0029
46.631 10.8631
46.8254 10.6733
47.0199 10.5294
47.2146 10.4054
47.4095 10.1899
47.6044 10.044
47.7996 9.92407
47.9948 9.78483
48.1902 9.65665
48.3858 9.48228
48.5815 9.35331
48.7774 9.22579
48.9734 9.0831
49.1696 8.96901
49.3661 8.80285
49.5626 8.65856
49.7592 8.5644
49.956 8.42321
50.153 8.26043
50.3501 8.14537
50.5474 7.99877
50.7448 7.92477
50.9424 7.80352
51.1402 7.65866
51.3381 7.57371
51.5362 7.42486
51.7344 7.32332
51.9328 7.20511
52.1316 7.00432
52.3304 6.95181
52.5293 6.83767
52.7284 6.74006
52.9276 6.612
53.1271 6.48435
53.3267 6.39499
53.5265 6.28213
53.7264 6.21363
53.9266 6.04283
54.1269 5.98075
54.3274 5.86219
54.528 5.75158
54.7289 5.58964
54.9301 5.41878
55.1314 5.28294
55.3328 5.04877
55.5344 4.86716
55.7361 4.7691

File: Ni3Fe_FD0941.xy
TT I
1.27165 7.42753
1.45013 6.52755
1.62863 5.20687
1.80712 4.91873
1.98562 4.70247
2.16411 5.20195
2.34263 5.74803
2.52115 7.49355
2.69965 8.58299
2.87818 8.78733
3.05672 10.9912
3.23527 15.5735
3.4138 18.9175
3.59237 23.0645
3.77094 25.4796
3.9495 29.1675
4.12809 33.6465
4.30669 88.0493
4.4853 52.1035
4.6639 54.8875
4.84253 67.7714
5.02118 85.5549
5.19981 371.618
5.37848 197.135
5.55716 101.738
5.73586 92.2319
5.91455 94.3814
6.09328 4680.88
6.27201 78.5421
6.45075 70.2074
6.62952 62.5541
6.8083 59.2965
6.98711 54.6983
7.16591 55.8312
7.34475 63.5914
7.5236 53.3832
7.70247 56.6306
7.88135 56.5797
8.06026 62.2166
8.23919 68.3031
8.41812 82.0851
8.59709 1203.66
8.77609 95.8231
8.9551 88.7823
9.13412 82.2096
9.31318 84.522
9.49226 83.9737
9.67134 94.5952
9.85047 101.097
10.0296 331.424
10.2088 324.367
10.388 103.34
10.5672 550.115
10.7465 84.7527
10.9257 77.1206
11.105 70.062
11.2844 67.1964
11.4637 63.6927
11.6431 62.4482
11.8225 62.0511
12.002 63.5694
12.1814 159.767
12.3609 65.1866
12.5405 64.1315
12.72 66.953
12.8996 70.4365
13.0792 79.3856
13.2589 246.948
13.4386 113.791
13.6183 259.936
13.7981 91.6207
13.9779 74.7234
14.1577 70.6563
14.3376 69.011
14.5175 67.8375
14.6974 69.5199
14.8774 111.031
15.0574 135.835
15.2374 68.3413
15.4175 65.3103
15.5976 64.8504
15.7778 94.0468
15.958 144.668
16.1382 60.2265
16.3185 56.7582
16.4988 54.4419
16.6792 53.5661
16.8596 53.9468
17.04 55.1013
17.2205 66.212
17.401 67.3746
17.5815 58.3792
17.7622 60.2808
17.9428 72.4707
18.1237 140.544
18.3044 90.8717
18.4852 72.8152
18.666 59.2794
18.8469 57.1023
19.0278 55.8634
19.2088 58.2026
19.3898 74.9991
19.5709 53.2887
19.752 52.3571
19.9332 55.2197
20.1144 69.2708
20.2957 64.3931
20.477 51.9438
20.6586 48.7287
20.84 48.0867
21.0215 47.7891
21.203 50.2457
21.3846 48.0095
21.5662 48.2543
21.7479 52.0121
21.9297 64.0597
22.1115 55.6488
22.2933 48.8882
22.4753 47.9051
22.6572 48.1417
22.8393 51.3474
23.0214 56.1729
23.2037 47.8915
23.3859 48.7839
23.5682 56.9091
23.7505 46.8889
23.9329 44.4459
24.1154 43.2362
24.2979 42.7113
24.4805 42.127
24.6631 41.9032
24.8458 41.459
25.0286 42.1884
25.2114 43.9325
25.3943 43.7206
25.5773 40.1862
25.7605 39.7461
25.9436 40.2199
26.1268 41.1114
26.31 39.5111
26.4933 40.0588
26.6767 41.4648
26.8601 39.7852
27.0437 38.2248
27.2272 37.7975
27.4109 37.679
27.5946 37.9158
27.7784 37.2723
27.9623 37.9551
28.1462 38.0627
28.3304 36.3969
28.5145 35.3115
28.6987 35.0329
28.8829 34.8697
29.0673 34.0823
29.2517 33.7792
29.4361 33.6569
29.6207 32.6532
29.8053 32.2868
29.99 32.0469
30.1748 32.0023
30.3597 31.772
30.5447 31.7424
30.7297 31.705
30.915 31.0516
31.1002 30.633
31.2855 30.2829
31.4708 30.2078
31.6563 29.8199
31.8418 29.6276
32.0275 29.3893
32.2132 28.8936
32.399 28.3916
32.5848 27.8999
32.7708 27.7334
32.9569 27.5671
33.143 27.3179
33.3293 26.8964
33.5158 26.5764
33.7022 26.153
33.8887 25.8928
34.0753 25.4939
34.262 25.2076
34.4488 24.851
34.6357 24.5022
34.8227 24.2451
35.0098 24.126
35.1969 23.7675
35.3842 23.616
35.5716 23.3834
35.759 23.0527
35.9468 22.6731
36.1345 22.5386
36.3222 22.3207
36.5101 21.9955
36.6981 21.7079
36.8861 21.4667
37.0743 21.1512
37.2626 20.8895
37.451 20.6146
37.6395 20.4342
37.8281 20.1479
38.0168 19.8329
38.2056 19.6123
38.3945 19.3267
38.5837 19.0837
38.7728 18.8476
38.9621 18.6004
39.1514 18.4066
39.3409 18.0958
39.5304 17.9384
39.7201 17.7757
39.9099 17.4999
40.0999 17.2135
40.2899 17.0249
40.48 16.8297
40.6703 16.6529
40.8607 16.5024
41.0512 16.2316
41.242 15.9957
41.4327 15.8244
41.6236 15.5487
41.8146 15.3989
42.0057 15.1228
42.1969 14.9422
42.3882 14.8298
42.5797 14.5572
42.7713 14.3587
42.963 14.131
43.1549 13.968
43.3468 13.7885
43.5389 13.6324
43.7312 13.3703
43.9237 13.2317
44.1162 13.0083
44.3088 12.7712
44.5016 12.6878
44.6945 12.4852
44.8875 12.3307
45.0806 12.1343
45.2739 12.0309
45.4673 11.8233
45.6609 11.6613
45.8546 11.494
46.0484 11.3665
46.2424 11.1911
46.4365 11.0117
46.631 10.8225
46.8254 10.6636
47.0199 10.5571
47.2146 10.3757
47.4095 10.2166
47.6044 10.0428
47.7996 9.9233
47.9948 9.75257
48.1902 9.62631
48.3858 9.48364
48.5815 9.37114
48.7774 9.18762
48.9734 9.0517
49.1696 8.91525
49.3661 8.80633
49.5626 8.62103
49.7592 8.53595
49.956 8.43395
50.153 8.25933
50.3501 8.15199
50.5474 8.03361
50.7448 7.91616
50.9424 7.84057
51.1402 7.64523
51.3381 7.56153
51.5362 7.41713
51.7344 7.30236
51.9328 7.18525
52.1316 7.05738
52.3304 6.94029
52.5293 6.8411
52.7284 6.71725
52.9276 6.59538
53.1271 6.51826
53.3267 6.39093
53.5265 6.27482
53.7264 6.16301
53.9266 6.09477
54.1269 5.94833
54.3274 5.86095
54.528 5.68871
54.7289 5.55214
54.9301 5.39571
55.1314 5.24925
55.3328 5.08577
55.5344 4.91744
55.7361 4.7354

File: Ni3Fe_FD0942.xy
TT I
1.27165 7.18475
1.45013 6.32631
1.62863 5.38917
1.80712 4.42982
1.98562 4.7282
2.16411 4.65598
2.34263 5.54406
2.52115 7.5668
2.69965 7.96864
2.87818 8.85365
3.05672 10.477
3.23527 15.1266
3.4138 18.7628
3.59237 22.8553
3.77094 25.5564
3.9495 29.5116
4.12809 33.2994
4.30669 86.2991
4.4853 51.8219
4.6639 55.264
4.84253 68.2415
5.02118 86.1638
5.19981 374.266
5.37848 196.845
5.55716 101.278
5.73586 92.3219
5.91455 94.0893
6.09328 4678.75
6.27201 78.8557
6.45075 70.0894
6.62952 62.3826
6.8083 59.4878
6.98711 54.9936
7.16591 56.1506
7.34475 63.3394
7.5236 53.594
7.70247 56.7159
7.88135 56.7342
8.06026 62.1085
8.23919 68.5079
8.41812 82.6387
8.59709 1205.52
8.77609 95.7887
8.9551 88.9515
9.13412 82.2125
9.31318 85.1032
9.49226 83.887
9.67134 94.9913
9.85047 100.773
10.0296 330.941
10.2088 325.593
10.388 103.681
10.5672 552.327
10.7465 84.913
10.9257 77.2405
11.105 70.6416
11.2844 67.0906
11.4637 63.9244
11.6431 62.2328
11.8225 61.6979
12.002 63.3673
12.1814 160.312
12.3609 65.3032
12.5405 64.1694
12.72 66.8241
12.8996 70.6332
13.0792 79.5728
13.2589 247.578
13.4386 114.079
13.6183 261.049
13.7981 91.3759
13.9779 74.6645
14.1577 70.3377
14.3376 68.8304
14.5175 68.0392
14.6974 69.5854
14.8774 111.158
15.0574 135.225
15.2374 68.3962
15.4175 65.3628
15.5976 65.0411
15.7778 94.303
15.958 143.848
16.1382 60.1438
16.3185 56.7106
16.4988 54.5147
16.6792 53.5399
16.8596 53.9461
17.04 55.0529
17.2205 66.2387
17.401 67.5326
17.5815 58.078
17.7622 60.3125
17.9428 72.235
18.1237 140.6
18.3044 90.7469
18.4852 72.779
18.666 59.1365
18.8469 57.0797
19.0278 55.6455
19.2088 58.1342
19.3898 75.0917
19.5709 53.0978
19.752 52.3941
19.9332 55.142
20.1144 69.3065
20.2957 64.1748
20.477 51.7895
20.6586 48.8074
20.84 47.9172
21.0215 47.6224
21.203 50.1846
21.3846 47.9442
21.5662 48.153
21.7479 51.9049
21.9297 64.0608
22.1115 55.5915
22.2933 48.7043
22.4753 47.7828
22.6572 47.9113
22.8393 51.2377
23.0214 55.9424
23.2037 47.8888
23.3859 48.8897
23.5682 57.0394
23.7505 46.9642
23.9329 44.4437
24.1154 43.3586
24.2979 42.7573
24.4805 42.3348
24.6631 42.1543
24.8458 41.5095
25.0286 42.1183
25.2114 44.0021
25.3943 43.6426
25.5773 40.1156
25.7605 39.7986
25.9436 40.2333
26.1268 41.1245
26.31 39.3997
26.4933 40.1284
26.6767 41.5622
26.8601 39.628
27.0437 38.2339
27.2272 37.8153
27.4109 37.7521
27.5946 37.8573
27.7784 37.2323
27.9623 37.834
28.1462 38.1273
28.3304 36.4983
28.5145 35.2315
28.6987 35.0435
28.8829 34.8632
29.0673 34.1141
29.2517 33.7935
29.4361 33.5081
29.6207 32.5602
29.8053 32.3513
29.99 32.1157
30.1748 31.9968
30.3597 31.6656
30.5447 31.5853
30.7297 31.7234
30.915 31.0823
31.1002 30.6084
31.2855 30.3145
31.4708 30.2842
31.6563 29.7956
31.8418 29.6671
32.0275 29.3261
32.2132 28.9257
32.399 28.4428
32.5848 27.9762
32.7708 27.7193
32.9569 27.5778
33.143 27.3593
33.3293 26.838
33.5158 26.5499
33.7022 26.1658
33.8887 25.8863
34.0753 25.5402
34.262 25.1955
34.4488 24.8846
34.6357 24.488
34.8227 24.2542
35.0098 24.1102
35.1969 23.7675
35.3842 23.6093
35.5716 23.3468
35.759 23.0094
35.9468 22.8182
36.1345 22.5494
36.3222 22.3345
36.5101 22.0815
36.6981 21.7534
36.8861 21.4382
37.0743 21.0973
37.2626 20.8634
37.451 20.6141
37.6395 20.4843
37.8281 20.1345
38.0168 19.8781
38.2056 19.6
38.3945 19.3871
38.5837 19.0806
38.7728 18.9319
38.9621 18.6709
39.1514 18.3983
39.3409 18.1568
39.5304 17.9628
39.7201 17.8241
39.9099 17.5489
40.0999 17.2822
40.2899 17.0795
40.48 16.7949
40.6703 16.5869
40.8607 16.4329
41.0512 16.2199
41.242 15.9641
41.4327 15.7501
41.6236 15.5486
41.8146 15.3471
42.0057 15.1495
42.1969 14.9793
42.3882 14.8016
42.5797 14.5765
42.7713 14.4139
42.963 14.1692
43.1549 13.993
43.3468 13.7924
43.5389 13.6235
43.7312 13.4117
43.9237 13.2497
44.1162 13.0035
44.3088 12.8058
44.5016 12.697
44.6945 12.5219
44.8875 12.348
45.0806 12.1837
45.2739 12.0112
45.4673 11.8182
45.6609 11.6139
45.8546 11.5434
46.0484 11.3434
46.2424 11.152
46.4365 11.0317
46.631 10.8355
46.8254 10.6835
47.0199 10.5319
47.2146 10.385
47.4095 10.2219
47.6044 10.0419
47.7996 9.91426
47.9948 9.74364
48.1902 9.60652
48.3858 9.45934
48.5815 9.36423
48.7774 9.23195
48.9734 9.11273
49.1696 8.95642
49.3661 8.79248
49.5626 8.64109
49.7592 8.53127
49.956 8.42242
50.153 8.2848
50.3501 8.16209
50.5474 8.03783
50.7448 7.90068
50.9424 7.79597
51.1402 7.6867
51.3381 7.54183
51.5362 7.43041
51.7344 7.35223
51.9328 7.18822
52.1316 7.07301
52.3304 6.93156
52.5293 6.81246
52.7284 6.7399
52.9276 6.62233
53.1271 6.51389
53.3267 6.38465
53.5265 6.25961
53.7264 6.14533
53.9266 6.0356
54.1269 5.95053
54.3274 5.84206
54.528 5.75045
54.7289 5.47887
54.9301 5.38466
55.1314 5.25508
55.3328 5.07228
55.5344 4.8531
55.7361 4.72458

File: Ni3Fe_FD0943.xy
TT I
1.27165 7.37679
1.45013 6.48075
1.62863 5.0952
1.80712 4.73732
1.98562 4.82146
2.16411 5.19988
2.34263 5.93382
2.52115 7.72531
2.69965 8.30103
2.87818 8.97411
3.05672 11.2839
3.23527 15.3554
3.4138 18.7135
3.59237 23.1761
3.77094 25.5533
3.9495 29.1454
4.12809 33.8266
4.30669 85.5286
4.4853 51.5425
4.6639 54.9866
4.84253 68.3977
5.02118 86.6801
5.19981 373.267
5.37848 197.48
5.55716 101.569
5.73586 91.9194
5.91455 93.6282
6.09328 4685.79
6.27201 78.4506
6.45075 70.4338
6.62952 62.7195
6.8083 59.624
6.98711 55.0233
7.16591 56.4846
7.34475 63.2628
7.5236 53.5034
7.70247 56.511
7.88135 56.8963
8.06026 62.0555
8.23919 68.4772
8.41812 82.4934
8.59709 1209.7
8.77609 95.9945
8.9551 88.9709
9.13412 82.6303
9.31318 84.997
9.49226 83.9362
9.67134 94.2019
9.85047 101.38
10.0296 332.305
10.2088 320.347
10.388 103.435
10.5672 556.205
10.7465 84.8641
10.9257 77.0047
11.105 70.5945
11.2844 67.1868
11.4637 63.8347
11.6431 62.6336
11.8225 61.9353
12.002 63.688
12.1814 160.424
12.3609 65.0778
12.5405 64.3202
12.72 67.073
12.8996 70.7838
13.0792 79.4616
13.2589 248.472
13.4386 113.71
13.6183 260.469
13.7981 91.3423
13.9779 74.6629
14.1577 70.7494
14.3376 68.805
14.5175 67.9286
14.6974 69.5482
14.8774 110.98
15.0574 134.562
15.2374 68.1092
15.4175 65.2739
15.5976 65.0897
15.7778 94.3189
15.958 143.505
16.1382 60.213
16.3185 56.9562
16.4988 54.5395
16.6792 53.6831
16.8596 54.1053
17.04 55.0145
17.2205 66.1094
17.401 67.5183
17.5815 58.2843
17.7622 60.2028
17.9428 72.3513
18.1237 140.388
18.3044 91.2768
18.4852 72.5252
18.666 59.3884
18.8469 57.0455
19.0278 55.8953
19.2088 58.0692
19.3898 74.709
19.5709 53.036
19.752 52.4442
19.9332 55.3377
20.1144 69.5673
20.2957 64.2096
20.477 51.7711
20.6586 48.8242
20.84 48.0019
21.0215 47.6726
21.203 50.2376
21.3846 48.1618
21.5662 48.1817
21.7479 51.9559
21.9297 63.9674
22.1115 55.339
22.2933 48.8406
22.4753 47.8108
22.6572 48.1467
22.8393 51.2123
23.0214 55.9378
23.2037 47.7512
23.3859 49.0616
23.5682 57.0418
23.7505 47.0803
23.9329 44.4488
24.1154 43.2366
24.2979 42.657
24.4805 42.3395
24.6631 42.1197
24.8458 41.4323
25.0286 42.2432
25.2114 43.9822
25.3943 43.7478
25.5773 40.1866
25.7605 39.7486
25.9436 40.212
26.1268 41.1619
26.31 39.481
26.4933 40.0995
26.6767 41.4921
26.8601 39.7784
27.0437 38.1964
27.2272 37.9578
27.4109 37.7722
27.5946 37.7967
27.7784 37.2129
27.9623 37.9296
28.1462 38.2559
28.3304 36.4731
28.5145 35.3613
28.6987 34.9072
28.8829 34.8243
29.0673 34.0475
29.2517 33.7754
29.4361 33.5615
29.6207 32.5145
29.8053 32.2917
29.99 32.0065
30.1748 31.9268
30.3597 31.7383
30.5447 31.6883
30.7297 31.6598
30.915 31.0742
31.1002 30.6071
31.2855 30.318
31.4708 30.2063
31.6563 29.9351
31.8418 29.6597
32.0275 29.4176
32.2132 28.8561
32.399 28.4805
32.5848 28.0553
32.7708 27.6994
32.9569 27.5488
33.143 27.3302
33.3293 27.1006
33.5158 26.5736
33.7022 26.1904
33.8887 25.9746
34.0753 25.4942
34.262 25.2518
34.4488 24.8544
34.6357 24.5509
34.8227 24.2525
35.0098 24.1009
35.1969 23.7502
35.3842 23.5422
35.5716 23.4032
35.759 23.1241
35.9468 22.7203
36.1345 22.3717
36.3222 22.2684
36.5101 22.0965
36.6981 21.7319
36.8861 21.5171
37.0743 21.1591
37.2626 20.9253
37.451 20.6015
37.6395 20.4904
37.8281 20.0965
38.0168 19.9158
38.2056 19.6053
38.3945 19.3208
38.5837 19.0665
38.7728 18.8501
38.9621 18.6542
39.1514 18.3418
39.3409 18.1593
39.5304 17.937
39.7201 17.733
39.9099 17.569
40.0999 17.3074
40.2899 17.1427
40.48 16.8302
40.6703 16.6437
40.8607 16.4447
41.0512 16.2697
41.242 16.0308
41.4327 15.801
41.6236 15.5325
41.8146 15.3801
42.0057 15.1713
42.1969 14.9174
42.3882 14.7472
42.5797 14.5573
42.7713 14.3312
42.963 14.1584
43.1549 14.0364
43.3468 13.737
43.5389 13.5744
43.7312 13.4021
43.9237 13.2376
44.1162 13.0386
44.3088 12.8078
44.5016 12.6663
44.6945 12.5218
44.8875 12.3534
45.0806 12.1419
45.2739 11.9992
45.4673 11.8716
45.6609 11.6591
45.8546 11.4906
46.0484 11.3199
46.2424 11.1651
46.4365 11.0525
46.631 10.8374
46.8254 10.6377
47.0199 10.5022
47.2146 10.3783
47.4095 10.1894
47.6044 10.0875
47.7996 9.87124
47.9948 9.76799
48.1902 9.65577
48.3858 9.46639
48.5815 9.36245
48.7774 9.22156
48.9734 9.07792
49.1696 8.97922
49.3661 8.80029
49.5626 8.68184
49.7592 8.54264
49.956 8.4217
50.153 8.29164
50.3501 8.16457
50.5474 8.04714
50.7448 7.90688
50.9424 7.78519
51.1402 7.67363
51.3381 7.53579
51.5362 7.45194
51.7344 7.3033
51.9328 7.19387
52.1316 7.04838
52.3304 6.93759
52.5293 6.82853
52.7284 6.73436
52.9276 6.62806
53.1271 6.5274
53.3267 6.37092
53.5265 6.24738
53.7264 6.14843
53.9266 6.07474
54.1269 5.92659
54.3274 5.8168
54.528 5.7057
54.7289 5.54892
54.9301 5.36709
55.1314 5.26223
55.3328 5.06535
55.5344 4.8545
55.7361 4.73854