Folder: NiFe_MOF_catalyst_paper/XRD (part 32)

File: Ni3Fe_FD0162.xy
TT I
1.27165 8.15346
1.45013 6.88886
1.62863 6.03634
1.80712 4.93287
1.98562 5.47744
2.16411 4.45327
2.34263 4.12857
2.52115 4.45816
2.69965 6.01856
2.87818 8.36649
3.05672 11.0971
3.23527 15.0022
3.4138 18.7448
3.59237 22.1028
3.77094 25.1448
3.9495 28.7301
4.12809 33.0048
4.30669 37.6288
4.4853 45.2544
4.6639 54.2703
4.84253 66.0905
5.02118 90.3144
5.19981 532.93
5.37848 427.563
5.55716 107.331
5.73586 95.5504
5.91455 105.087
6.09328 2774.14
6.27201 89.0079
6.45075 66.3556
6.62952 59.99
6.8083 55.5796
6.98711 53.5539
7.16591 52.5137
7.34475 52.1055
7.5236 55.8234
7.70247 54.2245
7.88135 56.0549
8.06026 60.8467
8.23919 68.0635
8.41812 83.3061
8.59709 900.464
8.77609 115.584
8.9551 85.456
9.13412 81.5782
9.31318 86.1468
9.49226 83.3552
9.67134 88.5593
9.85047 98.5788
10.0296 541.155
10.2088 977.514
10.388 104.528
10.5672 337.089
10.7465 90.5961
10.9257 75.9855
11.105 70.386
11.2844 66.3201
11.4637 63.501
11.6431 62.2316
11.8225 61.5039
12.002 65.0635
12.1814 119.3
12.3609 74.9725
12.5405 63.3572
12.72 65.1977
12.8996 69.9026
13.0792 79.2932
13.2589 207.541
13.4386 208.069
13.6183 195.024
13.7981 154.196
13.9779 76.1089
14.1577 74.013
14.3376 69.0868
14.5175 68.4633
14.6974 69.9534
14.8774 121.534
15.0574 205.236
15.2374 69.2374
15.4175 66.2362
15.5976 65.7195
15.7778 107.535
15.958 187.014
16.1382 61.8078
16.3185 57.4543
16.4988 55.1674
16.6792 54.2303
16.8596 54.4156
17.04 55.4065
17.2205 65.4827
17.401 81.0175
17.5815 58.9761
17.7622 61.3618
17.9428 83.7099
18.1237 116.048
18.3044 88.9052
18.4852 95.2986
18.666 61.0454
18.8469 58.3702
19.0278 56.8944
19.2088 61.9559
19.3898 69.5034
19.5709 56.4172
19.752 53.3962
19.9332 58.2166
20.1144 67.2971
20.2957 61.2614
20.477 59.3363
20.6586 49.876
20.84 49.2114
21.0215 49.3097
21.203 49.7161
21.3846 50.7063
21.5662 49.1097
21.7479 54.3065
21.9297 62.5259
22.1115 56.5019
22.2933 52.5916
22.4753 49.0805
22.6572 49.3017
22.8393 52.3528
23.0214 57.5831
23.2037 50.1079
23.3859 51.8737
23.5682 54.0037
23.7505 53.296
23.9329 45.8101
24.1154 44.55
24.2979 43.7451
24.4805 43.1662
24.6631 43.1481
24.8458 42.7452
25.0286 43.1682
25.2114 44.895
25.3943 45.1068
25.5773 41.912
25.7605 40.8033
25.9436 41.2404
26.1268 41.7596
26.31 40.9983
26.4933 41.1522
26.6767 42.2433
26.8601 41.3756
27.0437 39.6909
27.2272 39.0089
27.4109 38.7179
27.5946 38.8362
27.7784 38.7295
27.9623 38.6531
28.1462 39.5816
28.3304 38.0658
28.5145 36.4871
28.6987 35.9102
28.8829 35.6076
29.0673 35.3746
29.2517 34.7119
29.4361 34.4532
29.6207 33.6905
29.8053 33.2633
29.99 32.9032
30.1748 32.6739
30.3597 32.7339
30.5447 32.4764
30.7297 32.5654
30.915 32.183
31.1002 31.6309
31.2855 31.326
31.4708 31.2212
31.6563 31.0425
31.8418 30.5169
32.0275 30.3088
32.2132 29.8794
32.399 29.3925
32.5848 28.8835
32.7708 28.5045
32.9569 28.3682
33.143 28.1158
33.3293 27.815
33.5158 27.4479
33.7022 26.904
33.8887 26.6973
34.0753 26.3004
34.262 25.9673
34.4488 25.6052
34.6357 25.2737
34.8227 24.9761
35.0098 24.7076
35.1969 24.4861
35.3842 24.1954
35.5716 24.0781
35.759 23.8051
35.9468 23.4071
36.1345 23.1442
36.3222 22.9232
36.5101 22.6602
36.6981 22.4728
36.8861 21.957
37.0743 21.7658
37.2626 21.4499
37.451 21.1937
37.6395 21.1079
37.8281 20.7208
38.0168 20.4878
38.2056 20.2255
38.3945 19.9142
38.5837 19.6666
38.7728 19.4096
38.9621 19.1574
39.1514 18.8836
39.3409 18.6415
39.5304 18.4401
39.7201 18.2218
39.9099 18.0308
40.0999 17.8305
40.2899 17.4952
40.48 17.3268
40.6703 17.1267
40.8607 16.8629
41.0512 16.7085
41.242 16.488
41.4327 16.2004
41.6236 15.9932
41.8146 15.857
42.0057 15.5946
42.1969 15.3524
42.3882 15.2022
42.5797 14.9723
42.7713 14.8051
42.963 14.5667
43.1549 14.3736
43.3468 14.1897
43.5389 13.9728
43.7312 13.782
43.9237 13.601
44.1162 13.415
44.3088 13.2285
44.5016 13.0102
44.6945 12.8868
44.8875 12.6907
45.0806 12.5219
45.2739 12.3587
45.4673 12.148
45.6609 11.9752
45.8546 11.8281
46.0484 11.6831
46.2424 11.4792
46.4365 11.3672
46.631 11.1134
46.8254 10.9814
47.0199 10.8012
47.2146 10.6361
47.4095 10.479
47.6044 10.3622
47.7996 10.1713
47.9948 10.0305
48.1902 9.8856
48.3858 9.75477
48.5815 9.59925
48.7774 9.49497
48.9734 9.34948
49.1696 9.21764
49.3661 9.07148
49.5626 8.89457
49.7592 8.78563
49.956 8.68887
50.153 8.50711
50.3501 8.3832
50.5474 8.2674
50.7448 8.12973
50.9424 8.04202
51.1402 7.88633
51.3381 7.73923
51.5362 7.63551
51.7344 7.51792
51.9328 7.37038
52.1316 7.21264
52.3304 7.14165
52.5293 7.03484
52.7284 6.93847
52.9276 6.83167
53.1271 6.72983
53.3267 6.58004
53.5265 6.48522
53.7264 6.36804
53.9266 6.23957
54.1269 6.10348
54.3274 6.01599
54.528 5.82463
54.7289 5.66516
54.9301 5.49196
55.1314 5.35818
55.3328 5.10716
55.5344 4.94688
55.7361 4.81165

File: Ni3Fe_FD0163.xy
TT I
1.27165 8.20759
1.45013 6.51482
1.62863 5.66718
1.80712 4.92077
1.98562 5.40846
2.16411 4.69181
2.34263 3.54697
2.52115 4.61393
2.69965 5.6293
2.87818 7.77539
3.05672 11.4497
3.23527 15.1843
3.4138 18.5659
3.59237 22.1628
3.77094 25.2123
3.9495 28.7928
4.12809 33.4693
4.30669 37.6176
4.4853 45.1646
4.6639 54.4033
4.84253 66.3918
5.02118 91.1109
5.19981 538.184
5.37848 421.614
5.55716 107.54
5.73586 95.5963
5.91455 104.906
6.09328 2780.94
6.27201 89.2657
6.45075 66.3316
6.62952 60.1716
6.8083 55.6858
6.98711 53.4798
7.16591 52.6456
7.34475 52.2993
7.5236 55.9264
7.70247 54.0391
7.88135 56.5513
8.06026 60.7041
8.23919 68.1984
8.41812 83.6475
8.59709 903.942
8.77609 115.879
8.9551 85.4492
9.13412 81.71
9.31318 86.7065
9.49226 83.7334
9.67134 89.1372
9.85047 99.0904
10.0296 541.869
10.2088 968.064
10.388 104.636
10.5672 338.378
10.7465 91.0819
10.9257 76.1017
11.105 70.4572
11.2844 66.3934
11.4637 63.6842
11.6431 62.3758
11.8225 61.4703
12.002 65.3366
12.1814 119.483
12.3609 74.9684
12.5405 63.2081
12.72 65.5414
12.8996 70.0486
13.0792 79.5355
13.2589 207.584
13.4386 206.802
13.6183 195.305
13.7981 153.444
13.9779 76.2783
14.1577 74.0835
14.3376 69.2846
14.5175 68.824
14.6974 70.0745
14.8774 121.188
15.0574 204.344
15.2374 69.3278
15.4175 66.4576
15.5976 65.9371
15.7778 107.547
15.958 185.997
16.1382 61.9935
16.3185 57.4609
16.4988 55.093
16.6792 54.1984
16.8596 54.5086
17.04 55.4838
17.2205 65.6285
17.401 80.9283
17.5815 59.1988
17.7622 61.5073
17.9428 83.8843
18.1237 116.371
18.3044 88.772
18.4852 94.8746
18.666 61.2882
18.8469 58.4333
19.0278 57.0857
19.2088 61.9276
19.3898 69.8066
19.5709 56.3014
19.752 53.5104
19.9332 58.4268
20.1144 67.6784
20.2957 61.3927
20.477 59.1982
20.6586 50.0817
20.84 49.1023
21.0215 49.1486
21.203 49.9027
21.3846 50.6158
21.5662 49.1241
21.7479 54.453
21.9297 62.6231
22.1115 56.3674
22.2933 52.613
22.4753 48.8214
22.6572 49.3287
22.8393 52.4115
23.0214 57.454
23.2037 49.9479
23.3859 51.8805
23.5682 53.9845
23.7505 53.1853
23.9329 45.7967
24.1154 44.4196
24.2979 43.7863
24.4805 43.0855
24.6631 43.2573
24.8458 42.6174
25.0286 43.334
25.2114 44.9891
25.3943 45.101
25.5773 41.8408
25.7605 40.9091
25.9436 41.2022
26.1268 41.8199
26.31 41.0883
26.4933 41.0535
26.6767 42.3212
26.8601 41.5593
27.0437 39.5531
27.2272 39.2822
27.4109 38.7737
27.5946 38.9197
27.7784 38.7018
27.9623 38.6939
28.1462 39.6089
28.3304 38.1412
28.5145 36.4878
28.6987 36.1985
28.8829 35.7463
29.0673 35.3247
29.2517 34.617
29.4361 34.4847
29.6207 33.6852
29.8053 33.1962
29.99 32.9813
30.1748 32.6366
30.3597 32.685
30.5447 32.472
30.7297 32.5463
30.915 32.3407
31.1002 31.5494
31.2855 31.3108
31.4708 31.1451
31.6563 30.9276
31.8418 30.5922
32.0275 30.4033
32.2132 29.962
32.399 29.3075
32.5848 28.9332
32.7708 28.5105
32.9569 28.3811
33.143 28.0739
33.3293 27.7591
33.5158 27.5228
33.7022 26.8585
33.8887 26.6348
34.0753 26.3572
34.262 25.9493
34.4488 25.7037
34.6357 25.2196
34.8227 24.9547
35.0098 24.7864
35.1969 24.5059
35.3842 24.2508
35.5716 24.0583
35.759 23.7271
35.9468 23.4254
36.1345 23.1817
36.3222 23.0123
36.5101 22.6486
36.6981 22.3813
36.8861 22.0845
37.0743 21.7765
37.2626 21.4726
37.451 21.2466
37.6395 21.0879
37.8281 20.7288
38.0168 20.3879
38.2056 20.2202
38.3945 19.8941
38.5837 19.6108
38.7728 19.4949
38.9621 19.2051
39.1514 18.9522
39.3409 18.7001
39.5304 18.4178
39.7201 18.2456
39.9099 18.0435
40.0999 17.7968
40.2899 17.5845
40.48 17.3161
40.6703 17.107
40.8607 16.9679
41.0512 16.6654
41.242 16.3706
41.4327 16.2311
41.6236 16.0071
41.8146 15.8249
42.0057 15.615
42.1969 15.4217
42.3882 15.1867
42.5797 15.0272
42.7713 14.7909
42.963 14.6055
43.1549 14.4066
43.3468 14.1767
43.5389 13.9735
43.7312 13.757
43.9237 13.6012
44.1162 13.4602
44.3088 13.2599
44.5016 13.0058
44.6945 12.8672
44.8875 12.7073
45.0806 12.4677
45.2739 12.3269
45.4673 12.1602
45.6609 12.0027
45.8546 11.8132
46.0484 11.6807
46.2424 11.4582
46.4365 11.3275
46.631 11.1542
46.8254 10.9824
47.0199 10.8075
47.2146 10.6808
47.4095 10.5018
47.6044 10.3686
47.7996 10.1917
47.9948 10.0801
48.1902 9.8961
48.3858 9.78774
48.5815 9.62226
48.7774 9.5541
48.9734 9.35963
49.1696 9.17292
49.3661 9.08465
49.5626 8.92996
49.7592 8.80195
49.956 8.65882
50.153 8.51262
50.3501 8.37726
50.5474 8.28476
50.7448 8.16575
50.9424 8.02733
51.1402 7.90829
51.3381 7.73817
51.5362 7.62731
51.7344 7.51027
51.9328 7.39116
52.1316 7.25892
52.3304 7.14494
52.5293 7.0128
52.7284 6.92736
52.9276 6.79292
53.1271 6.71188
53.3267 6.58999
53.5265 6.4558
53.7264 6.34394
53.9266 6.26895
54.1269 6.12172
54.3274 5.98456
54.528 5.83094
54.7289 5.65223
54.9301 5.44093
55.1314 5.34668
55.3328 5.134
55.5344 4.9314
55.7361 4.79918

File: Ni3Fe_FD0164.xy
TT I
1.27165 7.75847
1.45013 6.36999
1.62863 5.66947
1.80712 5.35853
1.98562 4.70658
2.16411 4.73539
2.34263 4.12476
2.52115 4.10577
2.69965 5.88119
2.87818 8.41854
3.05672 11.2338
3.23527 14.787
3.4138 19.1519
3.59237 21.9331
3.77094 25.1622
3.9495 28.6134
4.12809 32.7068
4.30669 37.806
4.4853 45.2143
4.6639 53.9467
4.84253 66.419
5.02118 90.3426
5.19981 533.867
5.37848 424.622
5.55716 107.428
5.73586 95.9743
5.91455 104.785
6.09328 2794.82
6.27201 88.6361
6.45075 66.6987
6.62952 60.2387
6.8083 55.8278
6.98711 53.3617
7.16591 52.3476
7.34475 52.296
7.5236 56.1543
7.70247 54.5139
7.88135 56.6422
8.06026 60.6344
8.23919 68.0447
8.41812 83.9814
8.59709 905.242
8.77609 115.939
8.9551 85.6509
9.13412 81.5275
9.31318 86.3273
9.49226 83.785
9.67134 88.7034
9.85047 98.866
10.0296 540.607
10.2088 972.52
10.388 104.791
10.5672 340.347
10.7465 90.5291
10.9257 75.9905
11.105 70.2024
11.2844 66.3559
11.4637 63.5367
11.6431 62.3859
11.8225 61.2151
12.002 65.2576
12.1814 119.715
12.3609 74.9615
12.5405 63.1699
12.72 65.2968
12.8996 69.6578
13.0792 79.2548
13.2589 207.278
13.4386 208.592
13.6183 195.654
13.7981 154.291
13.9779 76.2676
14.1577 73.9157
14.3376 69.3355
14.5175 68.4394
14.6974 69.921
14.8774 121.355
15.0574 205.556
15.2374 69.1717
15.4175 66.182
15.5976 65.8041
15.7778 107.461
15.958 186.434
16.1382 61.6186
16.3185 57.5769
16.4988 55.0279
16.6792 54.1679
16.8596 54.5601
17.04 55.5661
17.2205 65.8328
17.401 81.1388
17.5815 59.11
17.7622 61.6398
17.9428 83.6703
18.1237 116.516
18.3044 89.0785
18.4852 94.9721
18.666 61.0097
18.8469 58.3554
19.0278 56.9471
19.2088 61.8601
19.3898 69.5261
19.5709 56.4361
19.752 53.6289
19.9332 58.4124
20.1144 67.4605
20.2957 61.4862
20.477 59.153
20.6586 50.0158
20.84 49.3489
21.0215 49.1952
21.203 49.9585
21.3846 50.5646
21.5662 49.1672
21.7479 54.2695
21.9297 62.817
22.1115 56.6028
22.2933 52.622
22.4753 48.9691
22.6572 49.2614
22.8393 52.4544
23.0214 57.5018
23.2037 49.944
23.3859 51.8742
23.5682 54.1057
23.7505 53.3508
23.9329 45.9316
24.1154 44.6143
24.2979 43.7466
24.4805 43.3074
24.6631 43.2724
24.8458 42.7126
25.0286 43.2447
25.2114 44.9475
25.3943 45.1507
25.5773 42.0604
25.7605 40.9834
25.9436 41.2568
26.1268 41.9088
26.31 41.1135
26.4933 41.1016
26.6767 42.2173
26.8601 41.5325
27.0437 39.6538
27.2272 39.1433
27.4109 38.7359
27.5946 38.9339
27.7784 38.7871
27.9623 38.706
28.1462 39.6392
28.3304 38.206
28.5145 36.4643
28.6987 35.9541
28.8829 35.612
29.0673 35.3834
29.2517 34.7078
29.4361 34.4064
29.6207 33.7671
29.8053 33.3092
29.99 33.0103
30.1748 32.7421
30.3597 32.7894
30.5447 32.6005
30.7297 32.5307
30.915 32.2067
31.1002 31.6623
31.2855 31.4337
31.4708 31.1186
31.6563 30.9733
31.8418 30.469
32.0275 30.3661
32.2132 29.9635
32.399 29.3668
32.5848 28.9085
32.7708 28.5308
32.9569 28.3702
33.143 28.1428
33.3293 27.7985
33.5158 27.4225
33.7022 26.9729
33.8887 26.6498
34.0753 26.351
34.262 25.9419
34.4488 25.5771
34.6357 25.2783
34.8227 24.8961
35.0098 24.7283
35.1969 24.5567
35.3842 24.1864
35.5716 24.1415
35.759 23.735
35.9468 23.305
36.1345 23.2046
36.3222 22.9793
36.5101 22.7719
36.6981 22.4442
36.8861 22.1096
37.0743 21.756
37.2626 21.4715
37.451 21.1883
37.6395 21.0514
37.8281 20.7236
38.0168 20.486
38.2056 20.1842
38.3945 19.9342
38.5837 19.63
38.7728 19.4878
38.9621 19.2018
39.1514 18.8553
39.3409 18.7414
39.5304 18.4921
39.7201 18.266
39.9099 18.0097
40.0999 17.8126
40.2899 17.6002
40.48 17.3689
40.6703 17.1472
40.8607 16.9233
41.0512 16.7444
41.242 16.4824
41.4327 16.2798
41.6236 16.0382
41.8146 15.8814
42.0057 15.552
42.1969 15.4172
42.3882 15.2103
42.5797 14.9795
42.7713 14.8443
42.963 14.5971
43.1549 14.4122
43.3468 14.1735
43.5389 13.9688
43.7312 13.7585
43.9237 13.6577
44.1162 13.4335
44.3088 13.2249
44.5016 13.0701
44.6945 12.8776
44.8875 12.6768
45.0806 12.4921
45.2739 12.3117
45.4673 12.2232
45.6609 12.0035
45.8546 11.8321
46.0484 11.6804
46.2424 11.515
46.4365 11.3427
46.631 11.1689
46.8254 10.9615
47.0199 10.8358
47.2146 10.6604
47.4095 10.5314
47.6044 10.3345
47.7996 10.1792
47.9948 10.0734
48.1902 9.90514
48.3858 9.79823
48.5815 9.62902
48.7774 9.51162
48.9734 9.36966
49.1696 9.18731
49.3661 9.06024
49.5626 8.8854
49.7592 8.83161
49.956 8.70367
50.153 8.53885
50.3501 8.41993
50.5474 8.28216
50.7448 8.18506
50.9424 8.06688
51.1402 7.9126
51.3381 7.76177
51.5362 7.64894
51.7344 7.55092
51.9328 7.40208
52.1316 7.25204
52.3304 7.14417
52.5293 7.04554
52.7284 6.91592
52.9276 6.77567
53.1271 6.72588
53.3267 6.58078
53.5265 6.47981
53.7264 6.33175
53.9266 6.23667
54.1269 6.11467
54.3274 5.99364
54.528 5.85723
54.7289 5.618
54.9301 5.50073
55.1314 5.34483
55.3328 5.09883
55.5344 4.92574
55.7361 4.82469

File: Ni3Fe_FD0165.xy
TT I
1.27165 7.84467
1.45013 6.62038
1.62863 5.96208
1.80712 5.13855
1.98562 5.03872
2.16411 4.52209
2.34263 3.66896
2.52115 4.18758
2.69965 5.64402
2.87818 7.42239
3.05672 11.4907
3.23527 15.1465
3.4138 18.9776
3.59237 21.7704
3.77094 24.9749
3.9495 28.3686
4.12809 33.0049
4.30669 38.279
4.4853 45.2193
4.6639 54.3089
4.84253 66.4638
5.02118 90.4158
5.19981 536.813
5.37848 420.11
5.55716 107.623
5.73586 95.4047
5.91455 105.25
6.09328 2809.59
6.27201 88.7392
6.45075 66.4467
6.62952 60.0584
6.8083 55.8842
6.98711 54.0585
7.16591 52.4684
7.34475 52.3792
7.5236 55.9648
7.70247 54.2097
7.88135 56.1725
8.06026 60.8214
8.23919 68.4037
8.41812 83.6311
8.59709 907.89
8.77609 115.044
8.9551 85.5177
9.13412 81.6661
9.31318 86.1643
9.49226 83.8279
9.67134 89.4229
9.85047 98.8702
10.0296 542.487
10.2088 960.406
10.388 104.933
10.5672 341.393
10.7465 90.8541
10.9257 76.0775
11.105 70.3853
11.2844 66.3807
11.4637 63.9704
11.6431 62.3781
11.8225 61.2382
12.002 65.0436
12.1814 119.575
12.3609 74.9084
12.5405 63.1934
12.72 65.5319
12.8996 70.0551
13.0792 79.5197
13.2589 207.517
13.4386 205.314
13.6183 196.133
13.7981 152.346
13.9779 76.1699
14.1577 74.0451
14.3376 69.4846
14.5175 68.6773
14.6974 70.0703
14.8774 121.048
15.0574 204.859
15.2374 69.2034
15.4175 66.485
15.5976 65.901
15.7778 107.327
15.958 186.168
16.1382 62.0716
16.3185 57.4141
16.4988 55.2035
16.6792 54.2609
16.8596 54.4524
17.04 55.4502
17.2205 65.6804
17.401 80.7595
17.5815 59.3505
17.7622 61.4431
17.9428 83.7385
18.1237 116.699
18.3044 88.5014
18.4852 94.8739
18.666 60.9709
18.8469 58.6261
19.0278 57.0759
19.2088 61.7821
19.3898 69.7562
19.5709 56.2251
19.752 53.4939
19.9332 58.5045
20.1144 67.5658
20.2957 61.3264
20.477 59.088
20.6586 49.9596
20.84 49.2919
21.0215 49.119
21.203 50.0152
21.3846 50.6125
21.5662 49.1738
21.7479 54.3402
21.9297 62.6578
22.1115 56.7303
22.2933 52.5053
22.4753 49.2912
22.6572 49.2769
22.8393 52.4674
23.0214 57.551
23.2037 50.0048
23.3859 51.8283
23.5682 54.1282
23.7505 53.0044
23.9329 45.8603
24.1154 44.6074
24.2979 43.7373
24.4805 43.0888
24.6631 43.3813
24.8458 42.7271
25.0286 43.2184
25.2114 44.9586
25.3943 45.0099
25.5773 41.9798
25.7605 40.8124
25.9436 41.1179
26.1268 41.8498
26.31 41.1329
26.4933 41.1495
26.6767 42.3655
26.8601 41.5677
27.0437 39.7607
27.2272 39.1859
27.4109 38.8563
27.5946 38.9886
27.7784 38.7246
27.9623 38.6687
28.1462 39.5915
28.3304 38.134
28.5145 36.384
28.6987 36.1681
28.8829 35.7219
29.0673 35.3299
29.2517 34.7083
29.4361 34.4706
29.6207 33.6189
29.8053 33.244
29.99 32.8545
30.1748 32.7085
30.3597 32.7076
30.5447 32.5322
30.7297 32.5372
30.915 32.3423
31.1002 31.6142
31.2855 31.3735
31.4708 31.139
31.6563 31.0252
31.8418 30.3704
32.0275 30.3325
32.2132 29.8622
32.399 29.3406
32.5848 28.7897
32.7708 28.5757
32.9569 28.4001
33.143 28.1512
33.3293 27.8289
33.5158 27.4249
33.7022 27.0076
33.8887 26.6489
34.0753 26.3917
34.262 25.9936
34.4488 25.658
34.6357 25.3446
34.8227 24.9668
35.0098 24.7951
35.1969 24.5187
35.3842 24.2693
35.5716 24.153
35.759 23.7919
35.9468 23.3423
36.1345 23.2241
36.3222 22.9114
36.5101 22.696
36.6981 22.4088
36.8861 22.0975
37.0743 21.6811
37.2626 21.5044
37.451 21.2641
37.6395 21.0541
37.8281 20.7576
38.0168 20.4166
38.2056 20.1883
38.3945 19.9699
38.5837 19.6449
38.7728 19.4491
38.9621 19.2234
39.1514 18.9205
39.3409 18.6736
39.5304 18.4976
39.7201 18.2558
39.9099 18.0756
40.0999 17.8306
40.2899 17.5588
40.48 17.2945
40.6703 17.1152
40.8607 16.9101
41.0512 16.6608
41.242 16.4349
41.4327 16.2747
41.6236 16.0059
41.8146 15.83
42.0057 15.6029
42.1969 15.3504
42.3882 15.2294
42.5797 14.994
42.7713 14.7862
42.963 14.5517
43.1549 14.3563
43.3468 14.1581
43.5389 14.0338
43.7312 13.8118
43.9237 13.6446
44.1162 13.4434
44.3088 13.1987
44.5016 13.0937
44.6945 12.866
44.8875 12.7027
45.0806 12.4777
45.2739 12.3477
45.4673 12.1883
45.6609 11.9793
45.8546 11.8585
46.0484 11.6883
46.2424 11.4795
46.4365 11.3304
46.631 11.138
46.8254 10.9895
47.0199 10.8269
47.2146 10.6949
47.4095 10.5253
47.6044 10.3554
47.7996 10.2183
47.9948 10.0406
48.1902 9.89818
48.3858 9.75598
48.5815 9.66623
48.7774 9.50097
48.9734 9.36901
49.1696 9.19613
49.3661 9.08986
49.5626 8.94555
49.7592 8.80368
49.956 8.66515
50.153 8.53018
50.3501 8.37576
50.5474 8.28439
50.7448 8.16122
50.9424 8.01749
51.1402 7.9058
51.3381 7.79167
51.5362 7.64177
51.7344 7.53549
51.9328 7.42169
52.1316 7.27056
52.3304 7.17813
52.5293 7.04758
52.7284 6.93971
52.9276 6.81306
53.1271 6.74084
53.3267 6.58422
53.5265 6.42688
53.7264 6.35838
53.9266 6.24889
54.1269 6.10487
54.3274 5.96066
54.528 5.78121
54.7289 5.64416
54.9301 5.46879
55.1314 5.36054
55.3328 5.17295
55.5344 4.94377
55.7361 4.80268

File: Ni3Fe_FD0166.xy
TT I
1.27165 7.7942
1.45013 6.62385
1.62863 5.47115
1.80712 5.68139
1.98562 4.39413
2.16411 4.62992
2.34263 4.51071
2.52115 4.53204
2.69965 5.91305
2.87818 8.29972
3.05672 11.2487
3.23527 15.0319
3.4138 18.6289
3.59237 21.9826
3.77094 24.8145
3.9495 28.9976
4.12809 32.6916
4.30669 38.0635
4.4853 45.4121
4.6639 53.9142
4.84253 66.8475
5.02118 90.953
5.19981 536.502
5.37848 420.245
5.55716 107.749
5.73586 96.0964
5.91455 105.236
6.09328 2825.05
6.27201 88.8355
6.45075 66.6535
6.62952 60.0605
6.8083 55.7566
6.98711 53.7907
7.16591 52.8803
7.34475 52.4556
7.5236 56.082
7.70247 54.2735
7.88135 56.4718
8.06026 60.7321
8.23919 68.4006
8.41812 84.1624
8.59709 907.648
8.77609 115.561
8.9551 85.5767
9.13412 81.9626
9.31318 86.2723
9.49226 84.0489
9.67134 89.1747
9.85047 98.9145
10.0296 541.439
10.2088 958.715
10.388 105.176
10.5672 342.147
10.7465 90.4297
10.9257 76.1086
11.105 70.3676
11.2844 66.7171
11.4637 63.9025
11.6431 62.5257
11.8225 61.6333
12.002 65.4377
12.1814 120.319
12.3609 74.7012
12.5405 63.4443
12.72 65.5211
12.8996 70.3785
13.0792 79.2423
13.2589 208.351
13.4386 205.501
13.6183 196.707
13.7981 155.195
13.9779 76.455
14.1577 74.0859
14.3376 69.2527
14.5175 68.6217
14.6974 70.1979
14.8774 121.42
15.0574 205.446
15.2374 68.9995
15.4175 66.6285
15.5976 65.8876
15.7778 107.441
15.958 186.093
16.1382 61.7536
16.3185 57.7359
16.4988 55.4086
16.6792 54.3243
16.8596 54.5611
17.04 55.5251
17.2205 65.6158
17.401 81.0053
17.5815 59.4495
17.7622 61.5068
17.9428 83.702
18.1237 116.821
18.3044 88.7482
18.4852 94.8444
18.666 61.2126
18.8469 58.4593
19.0278 57.0221
19.2088 61.9429
19.3898 69.9481
19.5709 56.4066
19.752 53.6316
19.9332 58.4296
20.1144 67.6953
20.2957 61.5375
20.477 59.0735
20.6586 49.9198
20.84 49.1458
21.0215 49.2181
21.203 50.0316
21.3846 50.7542
21.5662 49.2032
21.7479 54.3348
21.9297 62.7653
22.1115 56.4683
22.2933 52.6127
22.4753 49.0757
22.6572 49.2249
22.8393 52.4299
23.0214 57.6292
23.2037 50.0433
23.3859 52.1869
23.5682 54.0459
23.7505 53.307
23.9329 45.8751
24.1154 44.4894
24.2979 43.8329
24.4805 43.2793
24.6631 43.3662
24.8458 42.7229
25.0286 43.2229
25.2114 44.8836
25.3943 45.1622
25.5773 41.8933
25.7605 41.0478
25.9436 41.1788
26.1268 41.8646
26.31 41.1546
26.4933 41.1897
26.6767 42.3171
26.8601 41.5013
27.0437 39.6629
27.2272 39.1714
27.4109 38.9326
27.5946 38.9618
27.7784 38.6289
27.9623 38.8412
28.1462 39.5768
28.3304 38.0707
28.5145 36.5303
28.6987 36.1082
28.8829 35.6918
29.0673 35.2312
29.2517 34.7321
29.4361 34.4625
29.6207 33.812
29.8053 33.282
29.99 32.9922
30.1748 32.7751
30.3597 32.759
30.5447 32.5631
30.7297 32.5635
30.915 32.2657
31.1002 31.712
31.2855 31.2928
31.4708 31.0974
31.6563 31.1264
31.8418 30.5313
32.0275 30.4
32.2132 29.8718
32.399 29.2839
32.5848 28.8988
32.7708 28.513
32.9569 28.4199
33.143 28.0746
33.3293 27.7556
33.5158 27.4427
33.7022 26.895
33.8887 26.6559
34.0753 26.3672
34.262 26.0159
34.4488 25.6128
34.6357 25.2566
34.8227 24.9884
35.0098 24.7729
35.1969 24.5437
35.3842 24.2186
35.5716 24.0635
35.759 23.8147
35.9468 23.3876
36.1345 23.1936
36.3222 22.981
36.5101 22.7313
36.6981 22.4209
36.8861 22.0447
37.0743 21.7703
37.2626 21.5316
37.451 21.2981
37.6395 21.0514
37.8281 20.7983
38.0168 20.505
38.2056 20.2381
38.3945 19.9835
38.5837 19.7073
38.7728 19.4352
38.9621 19.227
39.1514 18.9407
39.3409 18.6811
39.5304 18.4371
39.7201 18.287
39.9099 18.0359
40.0999 17.7963
40.2899 17.5951
40.48 17.3303
40.6703 17.1601
40.8607 16.9186
41.0512 16.6958
41.242 16.4452
41.4327 16.2615
41.6236 16.0685
41.8146 15.8661
42.0057 15.6279
42.1969 15.419
42.3882 15.2385
42.5797 14.9859
42.7713 14.8014
42.963 14.5377
43.1549 14.3891
43.3468 14.2178
43.5389 14.0021
43.7312 13.8378
43.9237 13.6143
44.1162 13.4162
44.3088 13.2022
44.5016 13.0387
44.6945 12.8687
44.8875 12.7153
45.0806 12.5476
45.2739 12.3476
45.4673 12.1677
45.6609 12.0085
45.8546 11.8291
46.0484 11.6882
46.2424 11.5295
46.4365 11.3476
46.631 11.1352
46.8254 10.9697
47.0199 10.8258
47.2146 10.6826
47.4095 10.5133
47.6044 10.3458
47.7996 10.2029
47.9948 10.0372
48.1902 9.91226
48.3858 9.81797
48.5815 9.69029
48.7774 9.48782
48.9734 9.38256
49.1696 9.24727
49.3661 9.07207
49.5626 8.94637
49.7592 8.83958
49.956 8.68203
50.153 8.5459
50.3501 8.40629
50.5474 8.25298
50.7448 8.16825
50.9424 8.01844
51.1402 7.93732
51.3381 7.78217
51.5362 7.6706
51.7344 7.51389
51.9328 7.39798
52.1316 7.29987
52.3304 7.12882
52.5293 7.05823
52.7284 6.93922
52.9276 6.81891
53.1271 6.68359
53.3267 6.58863
53.5265 6.4888
53.7264 6.37081
53.9266 6.23599
54.1269 6.13818
54.3274 6.00563
54.528 5.86057
54.7289 5.68724
54.9301 5.50536
55.1314 5.34272
55.3328 5.15495
55.5344 4.92096
55.7361 4.81695