Folder: NiFe_MOF_catalyst_paper/XRD (part 123)

File: Ni3Fe_FD0664.xy
TT I
1.27165 7.82265
1.45013 6.44601
1.62863 5.45501
1.80712 4.77973
1.98562 4.70163
2.16411 4.59789
2.34263 5.72807
2.52115 7.03999
2.69965 8.74506
2.87818 8.89467
3.05672 11.0722
3.23527 15.0152
3.4138 18.6376
3.59237 23.7919
3.77094 26.174
3.9495 29.9988
4.12809 34.2894
4.30669 194.64
4.4853 63.3724
4.6639 55.4141
4.84253 67.5958
5.02118 87.2633
5.19981 350.192
5.37848 182.41
5.55716 101.8
5.73586 92.0239
5.91455 94.5118
6.09328 4525.98
6.27201 82.1021
6.45075 66.8289
6.62952 62.7898
6.8083 58.0948
6.98711 56.0278
7.16591 55.0247
7.34475 87.6282
7.5236 54.5412
7.70247 56.0594
7.88135 57.8429
8.06026 61.8388
8.23919 69.4807
8.41812 85.1845
8.59709 1202.35
8.77609 98.6826
8.9551 90.1716
9.13412 81.472
9.31318 82.1716
9.49226 84.466
9.67134 97.3843
9.85047 99.6042
10.0296 347.512
10.2088 375.917
10.388 104.255
10.5672 516.369
10.7465 86.2147
10.9257 78.1954
11.105 71.7989
11.2844 69.6804
11.4637 64.6425
11.6431 63.4317
11.8225 62.6224
12.002 63.5399
12.1814 153.602
12.3609 69.5863
12.5405 64.3136
12.72 69.4538
12.8996 70.5228
13.0792 79.0088
13.2589 242.523
13.4386 120.99
13.6183 251.755
13.7981 94.7109
13.9779 75.7196
14.1577 72.0277
14.3376 71.1986
14.5175 68.8488
14.6974 70.3493
14.8774 110.619
15.0574 143.431
15.2374 70.6037
15.4175 66.3153
15.5976 65.6782
15.7778 94.7737
15.958 153.767
16.1382 62.3699
16.3185 58.2619
16.4988 55.3747
16.6792 54.5152
16.8596 54.9575
17.04 55.5381
17.2205 66.7018
17.401 70.2468
17.5815 59.1825
17.7622 61.1152
17.9428 73.768
18.1237 142.405
18.3044 90.8426
18.4852 75.9384
18.666 60.3563
18.8469 57.8531
19.0278 57.0389
19.2088 59.4058
19.3898 77.1091
19.5709 54.0746
19.752 53.3039
19.9332 56.1311
20.1144 69.8435
20.2957 64.0843
20.477 53.2052
20.6586 49.6244
20.84 48.6636
21.0215 48.4814
21.203 50.9005
21.3846 48.7507
21.5662 48.654
21.7479 52.6609
21.9297 64.9502
22.1115 55.9976
22.2933 49.6293
22.4753 48.7576
22.6572 48.7669
22.8393 51.8827
23.0214 57.167
23.2037 48.8156
23.3859 49.5267
23.5682 57.3357
23.7505 47.9659
23.9329 45.0908
24.1154 44.0541
24.2979 43.3773
24.4805 42.9943
24.6631 42.757
24.8458 42.2442
25.0286 42.6802
25.2114 44.6878
25.3943 44.5601
25.5773 40.8993
25.7605 40.5121
25.9436 40.7682
26.1268 41.738
26.31 40.0067
26.4933 40.7903
26.6767 42.1315
26.8601 40.439
27.0437 38.8175
27.2272 38.4896
27.4109 38.4338
27.5946 38.4335
27.7784 37.8037
27.9623 38.5932
28.1462 38.8111
28.3304 37.171
28.5145 35.9205
28.6987 35.5164
28.8829 35.4893
29.0673 34.6798
29.2517 34.3076
29.4361 34.161
29.6207 33.0932
29.8053 32.8784
29.99 32.5467
30.1748 32.4399
30.3597 32.1942
30.5447 32.1103
30.7297 32.2551
30.915 31.6344
31.1002 31.0961
31.2855 30.8391
31.4708 30.8366
31.6563 30.3735
31.8418 30.132
32.0275 29.8501
32.2132 29.3228
32.399 28.8969
32.5848 28.4964
32.7708 28.0436
32.9569 27.9183
33.143 27.7793
33.3293 27.4074
33.5158 27.0369
33.7022 26.556
33.8887 26.3644
34.0753 25.9503
34.262 25.5365
34.4488 25.314
34.6357 24.9511
34.8227 24.6889
35.0098 24.4868
35.1969 24.2218
35.3842 23.9855
35.5716 23.666
35.759 23.4802
35.9468 23.1291
36.1345 22.8385
36.3222 22.683
36.5101 22.4203
36.6981 22.1626
36.8861 21.7078
37.0743 21.4568
37.2626 21.242
37.451 20.9798
37.6395 20.8324
37.8281 20.492
38.0168 20.1396
38.2056 19.9351
38.3945 19.6611
38.5837 19.4219
38.7728 19.217
38.9621 18.9635
39.1514 18.7346
39.3409 18.4458
39.5304 18.2327
39.7201 18.0788
39.9099 17.7747
40.0999 17.6042
40.2899 17.3495
40.48 17.115
40.6703 16.9021
40.8607 16.7378
41.0512 16.5115
41.242 16.2493
41.4327 16.077
41.6236 15.808
41.8146 15.6532
42.0057 15.4352
42.1969 15.1715
42.3882 15.0114
42.5797 14.7967
42.7713 14.6535
42.963 14.3785
43.1549 14.2
43.3468 14.0369
43.5389 13.8317
43.7312 13.6339
43.9237 13.4251
44.1162 13.2291
44.3088 13.0316
44.5016 12.9351
44.6945 12.7077
44.8875 12.547
45.0806 12.343
45.2739 12.2054
45.4673 12.0552
45.6609 11.82
45.8546 11.7316
46.0484 11.5492
46.2424 11.3758
46.4365 11.2208
46.631 11.0238
46.8254 10.8772
47.0199 10.6625
47.2146 10.5535
47.4095 10.3978
47.6044 10.2484
47.7996 10.0795
47.9948 9.95939
48.1902 9.76914
48.3858 9.65984
48.5815 9.52094
48.7774 9.3975
48.9734 9.24005
49.1696 9.08978
49.3661 8.92862
49.5626 8.79686
49.7592 8.66787
49.956 8.56534
50.153 8.41517
50.3501 8.29502
50.5474 8.19855
50.7448 8.04423
50.9424 7.93792
51.1402 7.81234
51.3381 7.68122
51.5362 7.54005
51.7344 7.39417
51.9328 7.28279
52.1316 7.15196
52.3304 7.0612
52.5293 6.9429
52.7284 6.85965
52.9276 6.68398
53.1271 6.59875
53.3267 6.48676
53.5265 6.38544
53.7264 6.26014
53.9266 6.17384
54.1269 6.05327
54.3274 5.96431
54.528 5.78229
54.7289 5.63613
54.9301 5.50141
55.1314 5.31898
55.3328 5.15449
55.5344 4.92004
55.7361 4.84018

File: Ni3Fe_FD0665.xy
TT I
1.27165 7.87674
1.45013 5.95642
1.62863 5.26733
1.80712 5.06347
1.98562 4.04148
2.16411 5.22093
2.34263 5.42634
2.52115 7.11721
2.69965 7.81233
2.87818 8.84944
3.05672 10.8871
3.23527 14.9998
3.4138 19.1748
3.59237 23.8156
3.77094 26.2899
3.9495 29.79
4.12809 34.7355
4.30669 187.481
4.4853 62.2804
4.6639 55.6183
4.84253 67.7576
5.02118 87.2488
5.19981 355.178
5.37848 181.771
5.55716 101.989
5.73586 92.4891
5.91455 94.2657
6.09328 4513.6
6.27201 82.2274
6.45075 67.3531
6.62952 62.2189
6.8083 58.5803
6.98711 55.9089
7.16591 55.1461
7.34475 85.4426
7.5236 54.623
7.70247 56.1991
7.88135 57.9162
8.06026 62.1966
8.23919 69.5601
8.41812 85.2743
8.59709 1205.46
8.77609 98.5978
8.9551 90.5781
9.13412 82.1601
9.31318 82.6966
9.49226 84.412
9.67134 96.9651
9.85047 99.9156
10.0296 351.367
10.2088 370.851
10.388 104.313
10.5672 514.163
10.7465 86.1489
10.9257 78.1042
11.105 71.9176
11.2844 69.8703
11.4637 64.9912
11.6431 63.6843
11.8225 62.3811
12.002 63.6523
12.1814 153.852
12.3609 69.4841
12.5405 64.4442
12.72 69.299
12.8996 71.0295
13.0792 79.1897
13.2589 243.829
13.4386 120.791
13.6183 253.139
13.7981 94.6182
13.9779 75.7566
14.1577 72.1783
14.3376 71.2141
14.5175 68.9172
14.6974 70.2807
14.8774 111.234
15.0574 142.441
15.2374 70.6488
15.4175 66.5482
15.5976 65.7841
15.7778 95.431
15.958 153.075
16.1382 62.3493
16.3185 58.4209
16.4988 55.3252
16.6792 54.4556
16.8596 55.0707
17.04 55.8672
17.2205 67.164
17.401 70.0498
17.5815 59.1377
17.7622 61.2439
17.9428 73.9394
18.1237 142.824
18.3044 90.9592
18.4852 75.8869
18.666 60.3374
18.8469 57.8858
19.0278 56.8538
19.2088 59.484
19.3898 77.0686
19.5709 54.043
19.752 53.089
19.9332 56.2434
20.1144 69.7086
20.2957 64.0402
20.477 53.2879
20.6586 49.5492
20.84 48.58
21.0215 48.4916
21.203 50.8571
21.3846 48.7478
21.5662 48.8571
21.7479 52.6262
21.9297 64.8419
22.1115 56.1464
22.2933 49.7187
22.4753 48.7867
22.6572 49.0041
22.8393 52.0639
23.0214 57.1823
23.2037 48.6953
23.3859 49.7909
23.5682 57.2211
23.7505 47.8079
23.9329 45.0482
24.1154 44.0062
24.2979 43.4109
24.4805 42.881
24.6631 42.6422
24.8458 42.3059
25.0286 42.7609
25.2114 44.6001
25.3943 44.4858
25.5773 40.7914
25.7605 40.4247
25.9436 40.8733
26.1268 41.6803
26.31 39.965
26.4933 40.6561
26.6767 42.0919
26.8601 40.4052
27.0437 38.8875
27.2272 38.5514
27.4109 38.4639
27.5946 38.2673
27.7784 37.7826
27.9623 38.4001
28.1462 38.7842
28.3304 37.1841
28.5145 36.0396
28.6987 35.5807
28.8829 35.4062
29.0673 34.5362
29.2517 34.2375
29.4361 34.0455
29.6207 33.1589
29.8053 32.8353
29.99 32.6633
30.1748 32.4378
30.3597 32.2448
30.5447 32.1816
30.7297 32.1469
30.915 31.5788
31.1002 31.1596
31.2855 30.9829
31.4708 30.7223
31.6563 30.3765
31.8418 30.101
32.0275 29.8321
32.2132 29.3236
32.399 28.9744
32.5848 28.454
32.7708 28.1268
32.9569 27.9836
33.143 27.8545
33.3293 27.4414
33.5158 27.0364
33.7022 26.5777
33.8887 26.3856
34.0753 25.9364
34.262 25.6499
34.4488 25.2899
34.6357 24.983
34.8227 24.7137
35.0098 24.4455
35.1969 24.2344
35.3842 23.9981
35.5716 23.7211
35.759 23.5298
35.9468 23.0275
36.1345 22.8177
36.3222 22.6468
36.5101 22.4032
36.6981 22.0643
36.8861 21.7674
37.0743 21.4978
37.2626 21.2215
37.451 20.9738
37.6395 20.7905
37.8281 20.4054
38.0168 20.1989
38.2056 19.954
38.3945 19.7203
38.5837 19.4397
38.7728 19.1973
38.9621 18.9012
39.1514 18.6744
39.3409 18.4329
39.5304 18.2391
39.7201 18.0525
39.9099 17.8596
40.0999 17.6083
40.2899 17.3214
40.48 17.0721
40.6703 16.8797
40.8607 16.6665
41.0512 16.4968
41.242 16.3178
41.4327 16.0553
41.6236 15.8215
41.8146 15.6208
42.0057 15.4119
42.1969 15.2103
42.3882 15.0269
42.5797 14.8507
42.7713 14.602
42.963 14.4376
43.1549 14.2314
43.3468 14.0391
43.5389 13.8688
43.7312 13.6216
43.9237 13.4447
44.1162 13.2344
44.3088 13.0665
44.5016 12.8707
44.6945 12.7275
44.8875 12.5411
45.0806 12.342
45.2739 12.1437
45.4673 12.0587
45.6609 11.8717
45.8546 11.7
46.0484 11.5201
46.2424 11.3529
46.4365 11.2467
46.631 11.0134
46.8254 10.8357
47.0199 10.6923
47.2146 10.5728
47.4095 10.4229
47.6044 10.2513
47.7996 10.0979
47.9948 9.92041
48.1902 9.7838
48.3858 9.63766
48.5815 9.52013
48.7774 9.38134
48.9734 9.25214
49.1696 9.05389
49.3661 8.94183
49.5626 8.79432
49.7592 8.6925
49.956 8.56372
50.153 8.40538
50.3501 8.28725
50.5474 8.19017
50.7448 8.05229
50.9424 7.89853
51.1402 7.82873
51.3381 7.6757
51.5362 7.53491
51.7344 7.40549
51.9328 7.3383
52.1316 7.18838
52.3304 7.05864
52.5293 6.94471
52.7284 6.82893
52.9276 6.72362
53.1271 6.64604
53.3267 6.46927
53.5265 6.38167
53.7264 6.24113
53.9266 6.16239
54.1269 6.06693
54.3274 5.91286
54.528 5.79698
54.7289 5.62579
54.9301 5.47603
55.1314 5.34686
55.3328 5.16582
55.5344 4.95421
55.7361 4.82442

File: Ni3Fe_FD0666.xy
TT I
1.27165 6.88357
1.45013 6.09533
1.62863 5.28783
1.80712 4.66344
1.98562 5.36094
2.16411 4.68758
2.34263 6.12816
2.52115 6.81687
2.69965 8.08856
2.87818 9.53513
3.05672 11.1912
3.23527 15.3156
3.4138 18.9332
3.59237 23.8686
3.77094 26.1477
3.9495 29.9573
4.12809 34.804
4.30669 182.918
4.4853 61.8855
4.6639 54.9901
4.84253 67.5122
5.02118 87.0289
5.19981 359.627
5.37848 181.448
5.55716 102.048
5.73586 91.8781
5.91455 94.7608
6.09328 4493.4
6.27201 82.4814
6.45075 66.9814
6.62952 62.3756
6.8083 58.0828
6.98711 55.6629
7.16591 54.9589
7.34475 84.7107
7.5236 54.5894
7.70247 55.9064
7.88135 57.9
8.06026 61.9228
8.23919 69.4107
8.41812 85.221
8.59709 1201.28
8.77609 98.6239
8.9551 90.235
9.13412 81.9762
9.31318 82.3739
9.49226 84.4718
9.67134 96.8474
9.85047 99.7392
10.0296 353.66
10.2088 369.816
10.388 104.112
10.5672 512.704
10.7465 86.0338
10.9257 77.8166
11.105 71.5085
11.2844 69.7584
11.4637 64.7941
11.6431 63.4955
11.8225 62.1094
12.002 63.6002
12.1814 154.145
12.3609 69.1187
12.5405 64.3815
12.72 69.0805
12.8996 70.8769
13.0792 79.103
13.2589 243.952
13.4386 121.561
13.6183 253.143
13.7981 94.7168
13.9779 75.4262
14.1577 72.12
14.3376 70.9274
14.5175 68.7159
14.6974 70.3991
14.8774 111.285
15.0574 142.551
15.2374 70.7231
15.4175 66.236
15.5976 65.7789
15.7778 95.4853
15.958 153.591
16.1382 62.02
16.3185 58.2719
16.4988 55.4034
16.6792 54.3545
16.8596 55.0698
17.04 55.6455
17.2205 66.9133
17.401 70.1256
17.5815 59.1559
17.7622 61.2681
17.9428 74.1465
18.1237 142.733
18.3044 90.9566
18.4852 75.8389
18.666 60.1885
18.8469 57.8757
19.0278 56.8235
19.2088 59.5823
19.3898 76.7919
19.5709 54.0224
19.752 52.9113
19.9332 56.3135
20.1144 69.9347
20.2957 64.1364
20.477 53.0802
20.6586 49.5853
20.84 48.7991
21.0215 48.4641
21.203 50.6194
21.3846 48.7589
21.5662 48.6603
21.7479 52.7235
21.9297 64.6939
22.1115 56.1054
22.2933 49.6314
22.4753 48.7695
22.6572 48.8718
22.8393 52.0074
23.0214 57.1426
23.2037 48.6835
23.3859 49.8014
23.5682 57.0972
23.7505 47.8841
23.9329 45.1089
24.1154 44.0398
24.2979 43.399
24.4805 42.8626
24.6631 42.5903
24.8458 42.0494
25.0286 42.7987
25.2114 44.6623
25.3943 44.5669
25.5773 40.7306
25.7605 40.4244
25.9436 40.8199
26.1268 41.7656
26.31 39.9242
26.4933 40.8289
26.6767 42.0729
26.8601 40.2838
27.0437 38.8561
27.2272 38.4779
27.4109 38.4682
27.5946 38.3554
27.7784 37.7682
27.9623 38.341
28.1462 38.8441
28.3304 36.9561
28.5145 35.9463
28.6987 35.6307
28.8829 35.4197
29.0673 34.5774
29.2517 34.3057
29.4361 34.176
29.6207 33.0774
29.8053 32.8732
29.99 32.5174
30.1748 32.3766
30.3597 32.3279
30.5447 32.1736
30.7297 32.3122
30.915 31.5659
31.1002 31.1479
31.2855 30.8981
31.4708 30.8439
31.6563 30.306
31.8418 30.0874
32.0275 29.9174
32.2132 29.3503
32.399 28.8719
32.5848 28.449
32.7708 28.1748
32.9569 27.9883
33.143 27.7792
33.3293 27.3672
33.5158 27.0461
33.7022 26.5501
33.8887 26.3398
34.0753 26.0404
34.262 25.6086
34.4488 25.193
34.6357 24.9126
34.8227 24.6378
35.0098 24.4978
35.1969 24.1792
35.3842 23.9756
35.5716 23.7227
35.759 23.4728
35.9468 23.0391
36.1345 22.8631
36.3222 22.5904
36.5101 22.4167
36.6981 22.0801
36.8861 21.7909
37.0743 21.5187
37.2626 21.2242
37.451 20.9107
37.6395 20.8271
37.8281 20.4622
38.0168 20.2007
38.2056 19.9645
38.3945 19.6683
38.5837 19.4669
38.7728 19.1637
38.9621 18.9424
39.1514 18.644
39.3409 18.4386
39.5304 18.2299
39.7201 18.0261
39.9099 17.7668
40.0999 17.5952
40.2899 17.3087
40.48 17.2019
40.6703 16.9122
40.8607 16.7099
41.0512 16.4946
41.242 16.2521
41.4327 16.063
41.6236 15.8449
41.8146 15.6027
42.0057 15.353
42.1969 15.2241
42.3882 15.0427
42.5797 14.8182
42.7713 14.6165
42.963 14.4
43.1549 14.2261
43.3468 13.9702
43.5389 13.8548
43.7312 13.6154
43.9237 13.3959
44.1162 13.3122
44.3088 13.0669
44.5016 12.8689
44.6945 12.7301
44.8875 12.5707
45.0806 12.3574
45.2739 12.1611
45.4673 12.0163
45.6609 11.8938
45.8546 11.7545
46.0484 11.5044
46.2424 11.3567
46.4365 11.2001
46.631 11.038
46.8254 10.8337
47.0199 10.6924
47.2146 10.531
47.4095 10.412
47.6044 10.2044
47.7996 10.0938
47.9948 9.91266
48.1902 9.77333
48.3858 9.64682
48.5815 9.52432
48.7774 9.33908
48.9734 9.24577
49.1696 9.07226
49.3661 8.95457
49.5626 8.79591
49.7592 8.67829
49.956 8.55468
50.153 8.41956
50.3501 8.25436
50.5474 8.18756
50.7448 8.03119
50.9424 7.94536
51.1402 7.801
51.3381 7.6611
51.5362 7.54937
51.7344 7.41155
51.9328 7.28777
52.1316 7.16231
52.3304 7.05918
52.5293 6.94777
52.7284 6.85338
52.9276 6.66889
53.1271 6.58882
53.3267 6.47969
53.5265 6.39307
53.7264 6.25623
53.9266 6.18573
54.1269 6.03561
54.3274 5.97385
54.528 5.80634
54.7289 5.6074
54.9301 5.49865
55.1314 5.33958
55.3328 5.21161
55.5344 4.95639
55.7361 4.78317

File: Ni3Fe_FD0667.xy
TT I
1.27165 7.54769
1.45013 6.08489
1.62863 5.87216
1.80712 4.99186
1.98562 5.35033
2.16411 5.35203
2.34263 5.62426
2.52115 7.43232
2.69965 8.22518
2.87818 8.92316
3.05672 11.3679
3.23527 14.8995
3.4138 18.747
3.59237 23.7593
3.77094 25.9465
3.9495 29.5487
4.12809 34.4077
4.30669 179.591
4.4853 61.4011
4.6639 55.1829
4.84253 67.7502
5.02118 87.3504
5.19981 364.719
5.37848 180.813
5.55716 101.73
5.73586 92.098
5.91455 94.412
6.09328 4504.23
6.27201 81.7602
6.45075 67.1624
6.62952 62.375
6.8083 58.35
6.98711 55.6593
7.16591 55.0763
7.34475 83.9048
7.5236 54.4805
7.70247 55.7963
7.88135 57.4242
8.06026 61.9501
8.23919 69.6172
8.41812 84.9531
8.59709 1221.03
8.77609 98.2566
8.9551 89.7981
9.13412 81.6926
9.31318 82.1339
9.49226 84.1921
9.67134 96.7045
9.85047 99.809
10.0296 355.409
10.2088 370.817
10.388 104.292
10.5672 515.181
10.7465 86.0616
10.9257 77.7492
11.105 71.9373
11.2844 69.5662
11.4637 64.7957
11.6431 63.3966
11.8225 62.4156
12.002 63.6146
12.1814 154.83
12.3609 69.1181
12.5405 64.2773
12.72 69.5662
12.8996 70.8616
13.0792 79.2035
13.2589 243.902
13.4386 120.899
13.6183 253.155
13.7981 94.7331
13.9779 75.6311
14.1577 72.199
14.3376 71.1294
14.5175 68.5938
14.6974 70.4125
14.8774 111.395
15.0574 142.511
15.2374 70.4142
15.4175 66.5341
15.5976 65.8976
15.7778 95.9377
15.958 154.028
16.1382 61.9793
16.3185 58.4798
16.4988 55.454
16.6792 54.2329
16.8596 55.2265
17.04 55.7864
17.2205 66.955
17.401 70.1282
17.5815 59.054
17.7622 61.1453
17.9428 73.9698
18.1237 142.842
18.3044 91.0362
18.4852 75.8114
18.666 60.1023
18.8469 57.8203
19.0278 56.8183
19.2088 59.5456
19.3898 76.8403
19.5709 53.9948
19.752 53.3421
19.9332 56.2195
20.1144 69.7702
20.2957 64.2608
20.477 52.9816
20.6586 49.4725
20.84 48.9382
21.0215 48.4991
21.203 50.8146
21.3846 48.6976
21.5662 48.7361
21.7479 52.5237
21.9297 64.9039
22.1115 55.8379
22.2933 49.6886
22.4753 48.7016
22.6572 48.6471
22.8393 52.0213
23.0214 57.0464
23.2037 48.6534
23.3859 49.6792
23.5682 57.0823
23.7505 47.8868
23.9329 45.1587
24.1154 44.0071
24.2979 43.3098
24.4805 42.7017
24.6631 42.5625
24.8458 41.9691
25.0286 42.9323
25.2114 44.6763
25.3943 44.4013
25.5773 40.7882
25.7605 40.2602
25.9436 40.7405
26.1268 41.6919
26.31 40.0038
26.4933 40.5998
26.6767 42.1573
26.8601 40.2993
27.0437 38.746
27.2272 38.4768
27.4109 38.3309
27.5946 38.2589
27.7784 37.9093
27.9623 38.3046
28.1462 38.7815
28.3304 37.0351
28.5145 35.9004
28.6987 35.5275
28.8829 35.4423
29.0673 34.6048
29.2517 34.3018
29.4361 34.044
29.6207 33.0016
29.8053 32.803
29.99 32.5092
30.1748 32.4106
30.3597 32.1585
30.5447 32.1598
30.7297 32.133
30.915 31.5565
31.1002 31.0044
31.2855 30.8203
31.4708 30.8921
31.6563 30.3411
31.8418 30.0001
32.0275 29.9338
32.2132 29.3284
32.399 28.8417
32.5848 28.4503
32.7708 28.1115
32.9569 27.9533
33.143 27.7005
33.3293 27.3475
33.5158 26.9004
33.7022 26.6025
33.8887 26.2479
34.0753 25.937
34.262 25.6213
34.4488 25.1938
34.6357 24.8999
34.8227 24.6686
35.0098 24.4261
35.1969 24.1331
35.3842 24.033
35.5716 23.7969
35.759 23.4282
35.9468 23.0802
36.1345 22.8322
36.3222 22.5615
36.5101 22.347
36.6981 22.0333
36.8861 21.82
37.0743 21.4936
37.2626 21.1876
37.451 21.0101
37.6395 20.8119
37.8281 20.4371
38.0168 20.1924
38.2056 19.9286
38.3945 19.6664
38.5837 19.4617
38.7728 19.2273
38.9621 18.8789
39.1514 18.7084
39.3409 18.4594
39.5304 18.177
39.7201 17.9947
39.9099 17.8162
40.0999 17.6059
40.2899 17.292
40.48 17.0797
40.6703 16.9393
40.8607 16.7375
41.0512 16.5412
41.242 16.2302
41.4327 16.0569
41.6236 15.8076
41.8146 15.6225
42.0057 15.3923
42.1969 15.1935
42.3882 15.0147
42.5797 14.7832
42.7713 14.6242
42.963 14.4169
43.1549 14.2367
43.3468 13.9705
43.5389 13.8066
43.7312 13.6494
43.9237 13.438
44.1162 13.2959
44.3088 13.0533
44.5016 12.9128
44.6945 12.685
44.8875 12.5359
45.0806 12.3348
45.2739 12.1584
45.4673 12.0704
45.6609 11.8057
45.8546 11.6643
46.0484 11.5049
46.2424 11.3428
46.4365 11.2273
46.631 11.0358
46.8254 10.8525
47.0199 10.6961
47.2146 10.548
47.4095 10.4008
47.6044 10.1939
47.7996 10.0831
47.9948 9.92901
48.1902 9.80275
48.3858 9.64312
48.5815 9.51978
48.7774 9.40079
48.9734 9.24902
49.1696 9.09961
49.3661 8.9315
49.5626 8.77617
49.7592 8.69357
49.956 8.56548
50.153 8.42931
50.3501 8.3131
50.5474 8.19458
50.7448 8.04448
50.9424 7.90233
51.1402 7.78967
51.3381 7.64221
51.5362 7.52746
51.7344 7.43324
51.9328 7.31959
52.1316 7.17334
52.3304 7.02997
52.5293 6.9173
52.7284 6.84575
52.9276 6.71433
53.1271 6.61181
53.3267 6.47309
53.5265 6.34595
53.7264 6.24598
53.9266 6.19924
54.1269 6.04873
54.3274 5.92856
54.528 5.7909
54.7289 5.65855
54.9301 5.49463
55.1314 5.34921
55.3328 5.14228
55.5344 4.96483
55.7361 4.79427

File: Ni3Fe_FD0668.xy
TT I
1.27165 7.25712
1.45013 6.09321
1.62863 4.59517
1.80712 5.34623
1.98562 4.75413
2.16411 4.99587
2.34263 5.22169
2.52115 6.87501
2.69965 8.11109
2.87818 8.48147
3.05672 11.132
3.23527 14.7716
3.4138 18.7769
3.59237 23.2107
3.77094 26.281
3.9495 29.9628
4.12809 34.6929
4.30669 175.748
4.4853 60.4595
4.6639 55.5596
4.84253 67.2399
5.02118 86.8839
5.19981 368.251
5.37848 181.553
5.55716 101.693
5.73586 92.1988
5.91455 94.3386
6.09328 4470.66
6.27201 82.0391
6.45075 67.2697
6.62952 62.503
6.8083 58.1723
6.98711 55.8916
7.16591 55.0698
7.34475 83.3172
7.5236 54.8493
7.70247 55.9691
7.88135 57.9984
8.06026 62.2116
8.23919 69.4574
8.41812 85.0656
8.59709 1206.27
8.77609 98.7143
8.9551 89.7933
9.13412 82.2971
9.31318 82.5119
9.49226 84.6478
9.67134 96.8971
9.85047 100.038
10.0296 357.528
10.2088 371.967
10.388 104.69
10.5672 513.267
10.7465 86.4576
10.9257 77.9022
11.105 71.5967
11.2844 69.6462
11.4637 64.7151
11.6431 63.7656
11.8225 62.239
12.002 63.7645
12.1814 153.785
12.3609 68.9498
12.5405 64.1932
12.72 69.1764
12.8996 70.8389
13.0792 79.3521
13.2589 245.113
13.4386 120.791
13.6183 252.951
13.7981 94.938
13.9779 75.8235
14.1577 71.9727
14.3376 71.0545
14.5175 68.8987
14.6974 70.5476
14.8774 112.126
15.0574 141.804
15.2374 70.3625
15.4175 66.4
15.5976 65.7247
15.7778 95.5923
15.958 153.47
16.1382 62.1125
16.3185 58.3411
16.4988 55.4785
16.6792 54.4978
16.8596 54.8076
17.04 55.7499
17.2205 66.8925
17.401 70.1405
17.5815 59.1034
17.7622 61.3741
17.9428 74.1796
18.1237 142.962
18.3044 91.0553
18.4852 75.6089
18.666 60.1666
18.8469 57.769
19.0278 56.7203
19.2088 59.3531
19.3898 76.813
19.5709 53.9804
19.752 53.3357
19.9332 56.2348
20.1144 69.8571
20.2957 64.143
20.477 53.0951
20.6586 49.6687
20.84 48.7441
21.0215 48.3635
21.203 50.8927
21.3846 48.7787
21.5662 48.7369
21.7479 52.7122
21.9297 64.9365
22.1115 56.1141
22.2933 49.425
22.4753 48.712
22.6572 48.8089
22.8393 52.0755
23.0214 57.2336
23.2037 48.6786
23.3859 49.7266
23.5682 57.2018
23.7505 47.9774
23.9329 45.1796
24.1154 43.9487
24.2979 43.3321
24.4805 42.8501
24.6631 42.5883
24.8458 42.0367
25.0286 42.865
25.2114 44.7529
25.3943 44.4279
25.5773 40.8576
25.7605 40.4356
25.9436 40.7859
26.1268 41.651
26.31 40.18
26.4933 40.6986
26.6767 42.2513
26.8601 40.4272
27.0437 38.7457
27.2272 38.475
27.4109 38.398
27.5946 38.3672
27.7784 37.7674
27.9623 38.4688
28.1462 38.7462
28.3304 37.1031
28.5145 35.8921
28.6987 35.6259
28.8829 35.4026
29.0673 34.7522
29.2517 34.3134
29.4361 34.145
29.6207 33.0632
29.8053 32.8468
29.99 32.4667
30.1748 32.5059
30.3597 32.2324
30.5447 32.1285
30.7297 32.3027
30.915 31.5723
31.1002 31.039
31.2855 30.8784
31.4708 30.747
31.6563 30.3939
31.8418 30.1738
32.0275 29.8918
32.2132 29.3351
32.399 28.8115
32.5848 28.4924
32.7708 28.2406
32.9569 27.9654
33.143 27.8212
33.3293 27.4677
33.5158 27.0212
33.7022 26.5606
33.8887 26.3285
34.0753 25.9254
34.262 25.667
34.4488 25.3443
34.6357 24.9282
34.8227 24.6683
35.0098 24.4936
35.1969 24.1243
35.3842 24.058
35.5716 23.7676
35.759 23.3946
35.9468 23.16
36.1345 22.9048
36.3222 22.6916
36.5101 22.372
36.6981 22.0782
36.8861 21.7622
37.0743 21.5312
37.2626 21.3044
37.451 21.0538
37.6395 20.8495
37.8281 20.4417
38.0168 20.2672
38.2056 19.9361
38.3945 19.6821
38.5837 19.4035
38.7728 19.2025
38.9621 18.9824
39.1514 18.6625
39.3409 18.4375
39.5304 18.138
39.7201 18.0597
39.9099 17.8057
40.0999 17.6001
40.2899 17.3418
40.48 17.1205
40.6703 16.9306
40.8607 16.6716
41.0512 16.4346
41.242 16.248
41.4327 16.0154
41.6236 15.8514
41.8146 15.6852
42.0057 15.4146
42.1969 15.2211
42.3882 15.019
42.5797 14.8443
42.7713 14.6749
42.963 14.3699
43.1549 14.2081
43.3468 14.0325
43.5389 13.8061
43.7312 13.611
43.9237 13.4369
44.1162 13.2261
44.3088 13.0572
44.5016 12.8935
44.6945 12.765
44.8875 12.5521
45.0806 12.3329
45.2739 12.2009
45.4673 12.0405
45.6609 11.8318
45.8546 11.6731
46.0484 11.5177
46.2424 11.3682
46.4365 11.2132
46.631 10.9987
46.8254 10.8839
47.0199 10.7359
47.2146 10.5279
47.4095 10.3736
47.6044 10.2541
47.7996 10.1019
47.9948 9.90182
48.1902 9.80541
48.3858 9.69251
48.5815 9.54248
48.7774 9.42448
48.9734 9.2341
49.1696 9.07146
49.3661 8.97902
49.5626 8.78233
49.7592 8.70981
49.956 8.56875
50.153 8.42207
50.3501 8.28913
50.5474 8.17471
50.7448 8.04621
50.9424 7.8984
51.1402 7.83189
51.3381 7.64158
51.5362 7.54635
51.7344 7.41386
51.9328 7.30071
52.1316 7.16776
52.3304 7.08195
52.5293 6.94871
52.7284 6.81258
52.9276 6.70579
53.1271 6.61363
53.3267 6.47565
53.5265 6.37514
53.7264 6.24764
53.9266 6.16776
54.1269 6.01026
54.3274 5.93349
54.528 5.80234
54.7289 5.62918
54.9301 5.50022
55.1314 5.32221
55.3328 5.13587
55.5344 4.95751
55.7361 4.79402