Folder: NiFe_MOF_catalyst_paper/XRD (part 182)

File: Ni3Fe_FD0985.xy
TT I
1.27165 7.19225
1.45013 6.05349
1.62863 4.85284
1.80712 5.1148
1.98562 4.2834
2.16411 4.7487
2.34263 5.76785
2.52115 7.51306
2.69965 8.88014
2.87818 8.80309
3.05672 11.213
3.23527 15.2846
3.4138 19.2303
3.59237 24.4834
3.77094 25.8142
3.9495 29.6335
4.12809 34.4738
4.30669 235.338
4.4853 66.7428
4.6639 54.4181
4.84253 65.7302
5.02118 83.9761
5.19981 271.664
5.37848 172.24
5.55716 100.148
5.73586 89.9154
5.91455 89.8065
6.09328 4584.06
6.27201 80.6405
6.45075 66.263
6.62952 61.8384
6.8083 57.8588
6.98711 54.9274
7.16591 54.5978
7.34475 94.276
7.5236 53.9123
7.70247 55.1416
7.88135 56.8092
8.06026 61.3612
8.23919 68.5434
8.41812 83.2256
8.59709 1118.57
8.77609 96.3272
8.9551 90.3996
9.13412 80.5399
9.31318 80.2824
9.49226 82.6644
9.67134 97.4573
9.85047 97.4955
10.0296 291.045
10.2088 366.929
10.388 102.129
10.5672 534.782
10.7465 84.7389
10.9257 77.0919
11.105 70.6198
11.2844 69.2604
11.4637 63.7728
11.6431 62.3268
11.8225 61.2915
12.002 62.0267
12.1814 150.037
12.3609 69.274
12.5405 63.1916
12.72 68.8833
12.8996 69.3985
13.0792 76.8508
13.2589 227.683
13.4386 119.744
13.6183 242.331
13.7981 94.3682
13.9779 74.4005
14.1577 70.8843
14.3376 70.3372
14.5175 67.477
14.6974 68.6611
14.8774 104.181
15.0574 147.078
15.2374 70.0628
15.4175 65.0614
15.5976 64.2747
15.7778 89.2709
15.958 152.257
16.1382 61.6643
16.3185 57.8782
16.4988 54.3065
16.6792 53.1987
16.8596 53.9791
17.04 54.3898
17.2205 64.7387
17.401 68.6314
17.5815 57.7128
17.7622 59.7949
17.9428 70.4268
18.1237 138.21
18.3044 88.8335
18.4852 75.4188
18.666 59.2951
18.8469 56.9567
19.0278 55.772
19.2088 57.9157
19.3898 75.6808
19.5709 53.004
19.752 52.2737
19.9332 54.7621
20.1144 68.7755
20.2957 63.1364
20.477 52.4547
20.6586 48.8192
20.84 47.8218
21.0215 47.5907
21.203 50.1006
21.3846 47.7607
21.5662 47.6344
21.7479 51.1518
21.9297 63.4927
22.1115 55.2086
22.2933 48.9237
22.4753 47.907
22.6572 47.4976
22.8393 50.6305
23.0214 56.3258
23.2037 47.6166
23.3859 48.4733
23.5682 56.5611
23.7505 47.2648
23.9329 44.323
24.1154 43.3022
24.2979 42.503
24.4805 42.0599
24.6631 41.9143
24.8458 41.3913
25.0286 41.888
25.2114 43.6526
25.3943 43.7119
25.5773 40.1013
25.7605 39.7388
25.9436 39.953
26.1268 41.0101
26.31 39.3214
26.4933 39.927
26.6767 41.4756
26.8601 39.6905
27.0437 38.1329
27.2272 37.7696
27.4109 37.7114
27.5946 37.6286
27.7784 37.1172
27.9623 37.7514
28.1462 38.1861
28.3304 36.4927
28.5145 35.3316
28.6987 34.8668
28.8829 34.8682
29.0673 34.077
29.2517 33.809
29.4361 33.4024
29.6207 32.5294
29.8053 32.3333
29.99 31.9596
30.1748 31.8464
30.3597 31.6631
30.5447 31.5633
30.7297 31.6813
30.915 30.9779
31.1002 30.4775
31.2855 30.3256
31.4708 30.2188
31.6563 29.7927
31.8418 29.5485
32.0275 29.4557
32.2132 28.8263
32.399 28.3436
32.5848 27.9642
32.7708 27.6778
32.9569 27.4693
33.143 27.2591
33.3293 26.8437
33.5158 26.494
33.7022 26.098
33.8887 25.8018
34.0753 25.5021
34.262 25.1869
34.4488 24.8147
34.6357 24.488
34.8227 24.218
35.0098 24.0116
35.1969 23.7186
35.3842 23.5255
35.5716 23.3317
35.759 22.9877
35.9468 22.6602
36.1345 22.4692
36.3222 22.2448
36.5101 21.9719
36.6981 21.6763
36.8861 21.4014
37.0743 21.0908
37.2626 20.9036
37.451 20.6066
37.6395 20.4348
37.8281 20.1466
38.0168 19.8466
38.2056 19.6434
38.3945 19.3595
38.5837 19.1041
38.7728 18.8144
38.9621 18.5689
39.1514 18.3496
39.3409 18.1162
39.5304 17.9087
39.7201 17.725
39.9099 17.4775
40.0999 17.2751
40.2899 17.0504
40.48 16.8106
40.6703 16.5843
40.8607 16.4062
41.0512 16.1825
41.242 15.9554
41.4327 15.7784
41.6236 15.5724
41.8146 15.3293
42.0057 15.0861
42.1969 14.995
42.3882 14.711
42.5797 14.5363
42.7713 14.3901
42.963 14.1958
43.1549 14.0232
43.3468 13.6982
43.5389 13.5755
43.7312 13.3769
43.9237 13.1975
44.1162 13.0337
44.3088 12.8523
44.5016 12.6739
44.6945 12.491
44.8875 12.2952
45.0806 12.1403
45.2739 11.9742
45.4673 11.8486
45.6609 11.6401
45.8546 11.4973
46.0484 11.3084
46.2424 11.1855
46.4365 11.0414
46.631 10.8511
46.8254 10.6807
47.0199 10.5192
47.2146 10.427
47.4095 10.2025
47.6044 10.0563
47.7996 9.89858
47.9948 9.76962
48.1902 9.64248
48.3858 9.50006
48.5815 9.37703
48.7774 9.23184
48.9734 9.07029
49.1696 8.95381
49.3661 8.80568
49.5626 8.66721
49.7592 8.53299
49.956 8.4196
50.153 8.2779
50.3501 8.124
50.5474 8.02004
50.7448 7.92462
50.9424 7.77726
51.1402 7.68376
51.3381 7.53007
51.5362 7.44757
51.7344 7.28689
51.9328 7.14975
52.1316 7.041
52.3304 6.99546
52.5293 6.82442
52.7284 6.70809
52.9276 6.60448
53.1271 6.52981
53.3267 6.34717
53.5265 6.28301
53.7264 6.18864
53.9266 6.08056
54.1269 5.96918
54.3274 5.86502
54.528 5.74115
54.7289 5.52252
54.9301 5.36092
55.1314 5.27611
55.3328 5.0387
55.5344 4.89358
55.7361 4.72681

File: Ni3Fe_FD0986.xy
TT I
1.27165 7.42272
1.45013 5.99063
1.62863 5.40188
1.80712 5.14795
1.98562 4.88769
2.16411 5.56609
2.34263 6.11457
2.52115 6.90776
2.69965 8.42252
2.87818 8.96463
3.05672 11.5207
3.23527 15.7229
3.4138 19.518
3.59237 23.8941
3.77094 26.1215
3.9495 29.7884
4.12809 34.6454
4.30669 238.378
4.4853 67.1542
4.6639 53.9112
4.84253 65.6028
5.02118 84.1699
5.19981 270.431
5.37848 172.743
5.55716 99.3197
5.73586 89.4085
5.91455 90.5563
6.09328 4594.83
6.27201 80.6353
6.45075 66.099
6.62952 62.2286
6.8083 57.5567
6.98711 54.7418
7.16591 54.5633
7.34475 95.6975
7.5236 54.0658
7.70247 55.146
7.88135 56.6896
8.06026 61.1954
8.23919 68.2862
8.41812 82.7746
8.59709 1112.92
8.77609 96.6427
8.9551 90.3934
9.13412 80.7281
9.31318 80.6835
9.49226 82.8468
9.67134 97.385
9.85047 97.1795
10.0296 289.105
10.2088 371.312
10.388 102.323
10.5672 535.103
10.7465 84.7447
10.9257 76.627
11.105 70.4641
11.2844 69.1542
11.4637 63.6883
11.6431 62.3098
11.8225 61.2616
12.002 61.9628
12.1814 149.537
12.3609 69.7069
12.5405 63.0615
12.72 69.0364
12.8996 69.1819
13.0792 76.7657
13.2589 226.515
13.4386 120.605
13.6183 241.196
13.7981 94.6243
13.9779 74.2325
14.1577 70.9349
14.3376 70.3247
14.5175 67.3968
14.6974 68.5544
14.8774 103.789
15.0574 148.484
15.2374 69.8904
15.4175 64.894
15.5976 64.2081
15.7778 88.8928
15.958 153.672
16.1382 61.6623
16.3185 57.5359
16.4988 54.3431
16.6792 53.381
16.8596 54.2136
17.04 54.3607
17.2205 64.8136
17.401 68.7787
17.5815 57.8789
17.7622 59.8815
17.9428 70.2934
18.1237 138.176
18.3044 88.4347
18.4852 75.5806
18.666 59.3013
18.8469 56.8585
19.0278 55.6753
19.2088 57.9229
19.3898 75.4309
19.5709 53.311
19.752 52.2598
19.9332 54.6475
20.1144 69.0269
20.2957 63.2339
20.477 52.3973
20.6586 48.5232
20.84 47.6756
21.0215 47.6106
21.203 49.9578
21.3846 47.8508
21.5662 47.6956
21.7479 51.0389
21.9297 63.5512
22.1115 55.2193
22.2933 48.7356
22.4753 47.9504
22.6572 47.8904
22.8393 50.7266
23.0214 56.2919
23.2037 47.9559
23.3859 48.428
23.5682 56.4522
23.7505 47.3184
23.9329 44.4247
24.1154 43.1014
24.2979 42.4608
24.4805 42.053
24.6631 42.0312
24.8458 41.3236
25.0286 41.8796
25.2114 43.7341
25.3943 43.8548
25.5773 40.0662
25.7605 39.6491
25.9436 39.9527
26.1268 40.9274
26.31 39.1843
26.4933 39.8395
26.6767 41.2795
26.8601 39.7322
27.0437 38.0258
27.2272 37.7723
27.4109 37.6794
27.5946 37.7248
27.7784 37.0216
27.9623 37.6435
28.1462 38.1443
28.3304 36.4173
28.5145 35.2292
28.6987 34.9215
28.8829 34.7445
29.0673 34.0011
29.2517 33.5954
29.4361 33.3824
29.6207 32.4413
29.8053 32.2554
29.99 31.886
30.1748 31.776
30.3597 31.477
30.5447 31.5676
30.7297 31.5599
30.915 30.9363
31.1002 30.5533
31.2855 30.2269
31.4708 30.2439
31.6563 29.8015
31.8418 29.6178
32.0275 29.2663
32.2132 28.7312
32.399 28.3405
32.5848 27.9167
32.7708 27.669
32.9569 27.4438
33.143 27.2514
33.3293 26.8277
33.5158 26.6005
33.7022 26.0679
33.8887 25.8351
34.0753 25.4846
34.262 25.1824
34.4488 24.7806
34.6357 24.4801
34.8227 24.2726
35.0098 23.9842
35.1969 23.7165
35.3842 23.5658
35.5716 23.3729
35.759 23.0397
35.9468 22.6485
36.1345 22.439
36.3222 22.2291
36.5101 22.0302
36.6981 21.7224
36.8861 21.3872
37.0743 21.0688
37.2626 20.8302
37.451 20.6159
37.6395 20.507
37.8281 20.1436
38.0168 19.7937
38.2056 19.6085
38.3945 19.391
38.5837 19.0289
38.7728 18.8121
38.9621 18.6186
39.1514 18.3759
39.3409 18.152
39.5304 17.8867
39.7201 17.7694
39.9099 17.5143
40.0999 17.2885
40.2899 16.993
40.48 16.7808
40.6703 16.5966
40.8607 16.3617
41.0512 16.2572
41.242 15.9719
41.4327 15.7887
41.6236 15.5185
41.8146 15.4525
42.0057 15.1534
42.1969 14.9859
42.3882 14.7562
42.5797 14.5745
42.7713 14.3321
42.963 14.1859
43.1549 13.972
43.3468 13.7873
43.5389 13.6083
43.7312 13.4271
43.9237 13.2151
44.1162 13.0352
44.3088 12.8909
44.5016 12.6987
44.6945 12.5268
44.8875 12.3488
45.0806 12.1338
45.2739 11.9625
45.4673 11.8344
45.6609 11.6301
45.8546 11.4585
46.0484 11.3471
46.2424 11.1592
46.4365 10.9935
46.631 10.839
46.8254 10.6805
47.0199 10.5286
47.2146 10.3812
47.4095 10.207
47.6044 10.0272
47.7996 9.90996
47.9948 9.77204
48.1902 9.61803
48.3858 9.51543
48.5815 9.37547
48.7774 9.21617
48.9734 9.09021
49.1696 8.93663
49.3661 8.78463
49.5626 8.63605
49.7592 8.53965
49.956 8.41341
50.153 8.25004
50.3501 8.16633
50.5474 8.01732
50.7448 7.90245
50.9424 7.78246
51.1402 7.67876
51.3381 7.53904
51.5362 7.40899
51.7344 7.30442
51.9328 7.16493
52.1316 7.02811
52.3304 6.91115
52.5293 6.81338
52.7284 6.73338
52.9276 6.60064
53.1271 6.51731
53.3267 6.40056
53.5265 6.28442
53.7264 6.19621
53.9266 6.05396
54.1269 5.96765
54.3274 5.84492
54.528 5.71878
54.7289 5.54296
54.9301 5.3998
55.1314 5.23765
55.3328 5.07993
55.5344 4.87889
55.7361 4.81278

File: Ni3Fe_FD0987.xy
TT I
1.27165 7.11165
1.45013 6.17652
1.62863 4.70374
1.80712 5.04041
1.98562 4.52304
2.16411 5.184
2.34263 5.19314
2.52115 7.61982
2.69965 7.92018
2.87818 8.95314
3.05672 11.4741
3.23527 14.989
3.4138 19.0802
3.59237 24.3526
3.77094 26.1185
3.9495 29.6125
4.12809 34.5798
4.30669 239.807
4.4853 67.3381
4.6639 54.1596
4.84253 65.2316
5.02118 84.026
5.19981 270.596
5.37848 172.282
5.55716 99.5385
5.73586 89.9946
5.91455 90.1924
6.09328 4594.61
6.27201 80.7537
6.45075 66.0021
6.62952 62.1579
6.8083 58.0044
6.98711 55.19
7.16591 54.5344
7.34475 95.4503
7.5236 54.0916
7.70247 55.2941
7.88135 56.6575
8.06026 61.1031
8.23919 68.3586
8.41812 83.2532
8.59709 1117.97
8.77609 96.5413
8.9551 91.0033
9.13412 80.5798
9.31318 80.9443
9.49226 82.494
9.67134 97.216
9.85047 97.5263
10.0296 289.722
10.2088 367.505
10.388 102.118
10.5672 536.905
10.7465 85.1451
10.9257 77.2653
11.105 70.6697
11.2844 69.2167
11.4637 63.7538
11.6431 62.5994
11.8225 61.5851
12.002 61.9899
12.1814 150.068
12.3609 69.7192
12.5405 63.3594
12.72 68.947
12.8996 69.3486
13.0792 76.6829
13.2589 227.027
13.4386 119.913
13.6183 241.506
13.7981 94.3976
13.9779 74.1337
14.1577 71.1867
14.3376 70.4695
14.5175 67.3624
14.6974 68.786
14.8774 103.609
15.0574 147.581
15.2374 69.6375
15.4175 64.9033
15.5976 64.1668
15.7778 89.0308
15.958 152.73
16.1382 61.6426
16.3185 57.777
16.4988 54.4264
16.6792 53.4788
16.8596 53.9838
17.04 54.4806
17.2205 64.6833
17.401 68.6746
17.5815 57.9496
17.7622 59.7973
17.9428 70.2182
18.1237 138.223
18.3044 88.5103
18.4852 75.3714
18.666 59.0533
18.8469 56.9281
19.0278 55.9362
19.2088 57.8279
19.3898 75.273
19.5709 52.9949
19.752 52.2441
19.9332 54.5071
20.1144 68.9778
20.2957 62.9718
20.477 52.5636
20.6586 48.5117
20.84 47.8876
21.0215 47.5025
21.203 49.9339
21.3846 47.8956
21.5662 47.6491
21.7479 51.072
21.9297 63.4719
22.1115 55.1804
22.2933 48.82
22.4753 47.9756
22.6572 47.6821
22.8393 50.5323
23.0214 56.219
23.2037 47.7543
23.3859 48.3468
23.5682 56.4169
23.7505 47.2724
23.9329 44.2661
24.1154 43.338
24.2979 42.5186
24.4805 42.0143
24.6631 42.0699
24.8458 41.3416
25.0286 41.9481
25.2114 43.7334
25.3943 43.7232
25.5773 39.9869
25.7605 39.6535
25.9436 40.1447
26.1268 40.9695
26.31 39.1462
26.4933 39.8496
26.6767 41.3767
26.8601 39.6179
27.0437 38.0647
27.2272 37.6435
27.4109 37.6321
27.5946 37.55
27.7784 37.0175
27.9623 37.6863
28.1462 38.0325
28.3304 36.4442
28.5145 35.2289
28.6987 34.9421
28.8829 34.7387
29.0673 33.9611
29.2517 33.6292
29.4361 33.4279
29.6207 32.4934
29.8053 32.3444
29.99 31.8569
30.1748 31.7953
30.3597 31.5276
30.5447 31.4335
30.7297 31.6099
30.915 30.9914
31.1002 30.5606
31.2855 30.2346
31.4708 30.247
31.6563 29.6866
31.8418 29.5969
32.0275 29.274
32.2132 28.8135
32.399 28.2999
32.5848 27.9311
32.7708 27.6786
32.9569 27.4631
33.143 27.3093
33.3293 26.739
33.5158 26.4674
33.7022 26.0844
33.8887 25.8157
34.0753 25.4144
34.262 25.22
34.4488 24.7828
34.6357 24.4716
34.8227 24.2434
35.0098 24.032
35.1969 23.7675
35.3842 23.5656
35.5716 23.2922
35.759 23.0998
35.9468 22.6067
36.1345 22.4816
36.3222 22.343
36.5101 22.0135
36.6981 21.6802
36.8861 21.3628
37.0743 21.1001
37.2626 20.8458
37.451 20.6129
37.6395 20.4788
37.8281 20.1264
38.0168 19.8708
38.2056 19.6561
38.3945 19.3129
38.5837 19.1226
38.7728 18.8416
38.9621 18.5996
39.1514 18.3536
39.3409 18.1258
39.5304 17.9892
39.7201 17.7349
39.9099 17.5204
40.0999 17.2775
40.2899 17.0683
40.48 16.7934
40.6703 16.6144
40.8607 16.4363
41.0512 16.2109
41.242 15.9659
41.4327 15.7729
41.6236 15.4833
41.8146 15.4201
42.0057 15.1383
42.1969 14.9404
42.3882 14.7769
42.5797 14.5514
42.7713 14.3523
42.963 14.1576
43.1549 13.9652
43.3468 13.7203
43.5389 13.5798
43.7312 13.3901
43.9237 13.2478
44.1162 13.041
44.3088 12.8672
44.5016 12.6739
44.6945 12.4812
44.8875 12.3208
45.0806 12.1115
45.2739 11.9716
45.4673 11.8402
45.6609 11.6425
45.8546 11.4882
46.0484 11.3373
46.2424 11.1267
46.4365 11.0171
46.631 10.8302
46.8254 10.6611
47.0199 10.5316
47.2146 10.3678
47.4095 10.2036
47.6044 10.0518
47.7996 9.93432
47.9948 9.76404
48.1902 9.65138
48.3858 9.49029
48.5815 9.365
48.7774 9.22982
48.9734 9.0895
49.1696 8.92974
49.3661 8.74912
49.5626 8.66212
49.7592 8.51423
49.956 8.41454
50.153 8.28442
50.3501 8.14436
50.5474 8.04669
50.7448 7.93811
50.9424 7.7887
51.1402 7.63563
51.3381 7.53346
51.5362 7.41536
51.7344 7.28317
51.9328 7.19102
52.1316 7.04793
52.3304 6.93821
52.5293 6.83584
52.7284 6.73405
52.9276 6.59258
53.1271 6.51847
53.3267 6.36635
53.5265 6.30015
53.7264 6.16483
53.9266 6.08754
54.1269 5.96746
54.3274 5.82268
54.528 5.69367
54.7289 5.56303
54.9301 5.36904
55.1314 5.2608
55.3328 5.04886
55.5344 4.87324
55.7361 4.71068

File: Ni3Fe_FD0988.xy
TT I
1.27165 6.84246
1.45013 6.76435
1.62863 5.16696
1.80712 4.4427
1.98562 4.8241
2.16411 4.99047
2.34263 5.28502
2.52115 7.26999
2.69965 8.36448
2.87818 8.37093
3.05672 11.2155
3.23527 15.4044
3.4138 19.197
3.59237 24.5648
3.77094 26.3331
3.9495 29.5754
4.12809 34.6464
4.30669 241.714
4.4853 67.6905
4.6639 54.4889
4.84253 65.4636
5.02118 83.9079
5.19981 269.813
5.37848 173.16
5.55716 99.4856
5.73586 89.6519
5.91455 90.1187
6.09328 4549.23
6.27201 81.0046
6.45075 65.7508
6.62952 61.8425
6.8083 58.0458
6.98711 55.0159
7.16591 54.2476
7.34475 96.4308
7.5236 54.0702
7.70247 55.2205
7.88135 56.8691
8.06026 61.1641
8.23919 68.1742
8.41812 82.9228
8.59709 1116.68
8.77609 96.639
8.9551 90.299
9.13412 80.0367
9.31318 80.7155
9.49226 82.8344
9.67134 97.4342
9.85047 97.4266
10.0296 287.259
10.2088 372.785
10.388 102.144
10.5672 533.26
10.7465 84.5306
10.9257 77.4722
11.105 70.3473
11.2844 69.6158
11.4637 63.3463
11.6431 62.3476
11.8225 61.2627
12.002 61.8509
12.1814 149.806
12.3609 70.0363
12.5405 63.2345
12.72 69.1298
12.8996 69.5115
13.0792 76.4207
13.2589 225.526
13.4386 120.875
13.6183 240.84
13.7981 94.5802
13.9779 74.3019
14.1577 70.8224
14.3376 70.3142
14.5175 67.1155
14.6974 68.6042
14.8774 103.295
15.0574 149.153
15.2374 69.6097
15.4175 65.1614
15.5976 63.9643
15.7778 88.7985
15.958 153.516
16.1382 61.6833
16.3185 57.5756
16.4988 54.3874
16.6792 53.3767
16.8596 54.1931
17.04 54.4313
17.2205 64.4206
17.401 68.6423
17.5815 57.8119
17.7622 59.6978
17.9428 70.0249
18.1237 138.0
18.3044 88.3538
18.4852 75.6644
18.666 59.1592
18.8469 56.649
19.0278 55.5882
19.2088 57.7934
19.3898 75.2454
19.5709 53.1048
19.752 52.0223
19.9332 54.6388
20.1144 68.7349
20.2957 62.934
20.477 52.4749
20.6586 48.5615
20.84 47.7614
21.0215 47.4262
21.203 49.9437
21.3846 47.9946
21.5662 47.5302
21.7479 51.0749
21.9297 63.5189
22.1115 55.2389
22.2933 48.692
22.4753 47.9991
22.6572 47.6699
22.8393 50.6394
23.0214 56.4339
23.2037 47.8049
23.3859 48.3759
23.5682 56.368
23.7505 47.3229
23.9329 44.248
24.1154 43.2188
24.2979 42.5502
24.4805 42.0352
24.6631 41.9648
24.8458 41.3557
25.0286 41.8488
25.2114 43.5942
25.3943 43.706
25.5773 40.0601
25.7605 39.72
25.9436 39.9965
26.1268 40.8473
26.31 39.2643
26.4933 39.7506
26.6767 41.3588
26.8601 39.6181
27.0437 38.064
27.2272 37.5677
27.4109 37.639
27.5946 37.6992
27.7784 37.0199
27.9623 37.6248
28.1462 38.1088
28.3304 36.5265
28.5145 35.3298
28.6987 34.8659
28.8829 34.7772
29.0673 34.0174
29.2517 33.6428
29.4361 33.4944
29.6207 32.5423
29.8053 32.2459
29.99 31.9617
30.1748 31.7779
30.3597 31.5502
30.5447 31.5286
30.7297 31.5858
30.915 31.0347
31.1002 30.4467
31.2855 30.2232
31.4708 30.2856
31.6563 29.8409
31.8418 29.6563
32.0275 29.2892
32.2132 28.7369
32.399 28.4037
32.5848 27.9463
32.7708 27.606
32.9569 27.49
33.143 27.2444
33.3293 26.8739
33.5158 26.4407
33.7022 26.0344
33.8887 25.8568
34.0753 25.4843
34.262 25.264
34.4488 24.7446
34.6357 24.4821
34.8227 24.1919
35.0098 24.0347
35.1969 23.7352
35.3842 23.5821
35.5716 23.3621
35.759 23.0404
35.9468 22.6344
36.1345 22.4883
36.3222 22.2521
36.5101 22.065
36.6981 21.705
36.8861 21.4355
37.0743 21.109
37.2626 20.8601
37.451 20.5347
37.6395 20.4157
37.8281 20.0568
38.0168 19.8545
38.2056 19.5831
38.3945 19.3031
38.5837 19.0814
38.7728 18.8861
38.9621 18.6231
39.1514 18.3329
39.3409 18.114
39.5304 17.9632
39.7201 17.6702
39.9099 17.5308
40.0999 17.2101
40.2899 17.0469
40.48 16.8108
40.6703 16.6037
40.8607 16.4557
41.0512 16.2405
41.242 15.9492
41.4327 15.7855
41.6236 15.5151
41.8146 15.3462
42.0057 15.1482
42.1969 14.8976
42.3882 14.7885
42.5797 14.5532
42.7713 14.4034
42.963 14.1593
43.1549 13.9511
43.3468 13.8076
43.5389 13.5592
43.7312 13.3804
43.9237 13.2
44.1162 13.0173
44.3088 12.8643
44.5016 12.6678
44.6945 12.4934
44.8875 12.328
45.0806 12.167
45.2739 11.9925
45.4673 11.8034
45.6609 11.6517
45.8546 11.4753
46.0484 11.2781
46.2424 11.1472
46.4365 11.0289
46.631 10.8573
46.8254 10.6969
47.0199 10.529
47.2146 10.3905
47.4095 10.2099
47.6044 10.0613
47.7996 9.90995
47.9948 9.73836
48.1902 9.63412
48.3858 9.49919
48.5815 9.3825
48.7774 9.22997
48.9734 9.03357
49.1696 8.96477
49.3661 8.78196
49.5626 8.62893
49.7592 8.54498
49.956 8.40693
50.153 8.29735
50.3501 8.14133
50.5474 8.00844
50.7448 7.9469
50.9424 7.77863
51.1402 7.6655
51.3381 7.56104
51.5362 7.42324
51.7344 7.30983
51.9328 7.15357
52.1316 7.05273
52.3304 6.93493
52.5293 6.8574
52.7284 6.70437
52.9276 6.58551
53.1271 6.52335
53.3267 6.39921
53.5265 6.27431
53.7264 6.15205
53.9266 6.06977
54.1269 5.90605
54.3274 5.84655
54.528 5.7041
54.7289 5.50042
54.9301 5.3867
55.1314 5.25718
55.3328 5.01933
55.5344 4.86107
55.7361 4.73439

File: Ni3Fe_FD0989.xy
TT I
1.27165 7.26939
1.45013 5.99766
1.62863 5.14982
1.80712 4.92519
1.98562 4.98115
2.16411 4.81419
2.34263 5.7877
2.52115 7.45051
2.69965 9.1
2.87818 8.93366
3.05672 11.1359
3.23527 15.6536
3.4138 19.1252
3.59237 24.0907
3.77094 26.3208
3.9495 29.8485
4.12809 34.9726
4.30669 243.362
4.4853 67.5868
4.6639 54.627
4.84253 66.0787
5.02118 83.8422
5.19981 269.765
5.37848 172.625
5.55716 98.9948
5.73586 89.4995
5.91455 90.1904
6.09328 4553.53
6.27201 81.1289
6.45075 66.1109
6.62952 62.0679
6.8083 57.3881
6.98711 55.1618
7.16591 54.8889
7.34475 96.5071
7.5236 53.9563
7.70247 55.2112
7.88135 56.908
8.06026 61.1353
8.23919 68.0678
8.41812 83.0583
8.59709 1115.77
8.77609 96.4636
8.9551 90.8836
9.13412 80.3972
9.31318 80.894
9.49226 82.8791
9.67134 97.4586
9.85047 97.3128
10.0296 287.934
10.2088 372.722
10.388 101.93
10.5672 533.818
10.7465 84.4836
10.9257 76.9195
11.105 70.706
11.2844 69.4374
11.4637 63.6986
11.6431 62.5182
11.8225 61.0245
12.002 61.9479
12.1814 150.559
12.3609 69.7101
12.5405 63.1235
12.72 69.2737
12.8996 69.2526
13.0792 76.7561
13.2589 225.305
13.4386 121.158
13.6183 240.419
13.7981 94.6448
13.9779 74.0034
14.1577 71.103
14.3376 70.4453
14.5175 67.4604
14.6974 68.8088
14.8774 103.38
15.0574 149.136
15.2374 69.5407
15.4175 64.9863
15.5976 64.2578
15.7778 88.9579
15.958 152.901
16.1382 61.6548
16.3185 57.5134
16.4988 54.4595
16.6792 53.4857
16.8596 54.1805
17.04 54.4002
17.2205 64.5919
17.401 68.8191
17.5815 57.8035
17.7622 59.7473
17.9428 69.9442
18.1237 138.022
18.3044 88.0924
18.4852 75.673
18.666 59.3098
18.8469 56.8013
19.0278 55.7213
19.2088 57.7961
19.3898 75.318
19.5709 53.1093
19.752 52.1344
19.9332 54.6415
20.1144 68.8709
20.2957 62.8712
20.477 52.3498
20.6586 48.5677
20.84 47.8497
21.0215 47.5714
21.203 49.8871
21.3846 47.7313
21.5662 47.8065
21.7479 51.3228
21.9297 63.5278
22.1115 55.1647
22.2933 48.9452
22.4753 47.9284
22.6572 47.7271
22.8393 50.6108
23.0214 56.4495
23.2037 47.7906
23.3859 48.3584
23.5682 56.3237
23.7505 47.3845
23.9329 44.3161
24.1154 43.362
24.2979 42.5744
24.4805 42.024
24.6631 41.9947
24.8458 41.3324
25.0286 41.9326
25.2114 43.6357
25.3943 43.7795
25.5773 40.0941
25.7605 39.5531
25.9436 39.9201
26.1268 40.9438
26.31 39.1585
26.4933 39.8075
26.6767 41.3275
26.8601 39.5247
27.0437 38.1415
27.2272 37.6911
27.4109 37.7134
27.5946 37.6374
27.7784 37.0875
27.9623 37.6444
28.1462 38.0544
28.3304 36.427
28.5145 35.2978
28.6987 34.7924
28.8829 34.802
29.0673 33.9532
29.2517 33.65
29.4361 33.4115
29.6207 32.5278
29.8053 32.2638
29.99 32.0148
30.1748 31.8482
30.3597 31.636
30.5447 31.6031
30.7297 31.6637
30.915 30.9447
31.1002 30.5706
31.2855 30.2939
31.4708 30.1307
31.6563 29.7461
31.8418 29.6466
32.0275 29.2404
32.2132 28.7799
32.399 28.4187
32.5848 27.8891
32.7708 27.5961
32.9569 27.4231
33.143 27.2176
33.3293 26.9189
33.5158 26.5336
33.7022 26.0766
33.8887 25.8231
34.0753 25.4855
34.262 25.0995
34.4488 24.8156
34.6357 24.5301
34.8227 24.2201
35.0098 24.043
35.1969 23.6945
35.3842 23.5297
35.5716 23.349
35.759 23.0041
35.9468 22.7557
36.1345 22.3965
36.3222 22.2095
36.5101 22.0642
36.6981 21.6793
36.8861 21.429
37.0743 21.1327
37.2626 20.853
37.451 20.5283
37.6395 20.4201
37.8281 20.1029
38.0168 19.8323
38.2056 19.5441
38.3945 19.2545
38.5837 19.1127
38.7728 18.8005
38.9621 18.5821
39.1514 18.4353
39.3409 18.1421
39.5304 17.9277
39.7201 17.7213
39.9099 17.5197
40.0999 17.2825
40.2899 17.013
40.48 16.7708
40.6703 16.6408
40.8607 16.4023
41.0512 16.187
41.242 15.9961
41.4327 15.7996
41.6236 15.4968
41.8146 15.41
42.0057 15.174
42.1969 14.9099
42.3882 14.7981
42.5797 14.5556
42.7713 14.3601
42.963 14.1986
43.1549 13.9472
43.3468 13.724
43.5389 13.5735
43.7312 13.3784
43.9237 13.2114
44.1162 13.0218
44.3088 12.8734
44.5016 12.6456
44.6945 12.5097
44.8875 12.3279
45.0806 12.1386
45.2739 11.9484
45.4673 11.8083
45.6609 11.6235
45.8546 11.5243
46.0484 11.2828
46.2424 11.1451
46.4365 11.0413
46.631 10.8008
46.8254 10.677
47.0199 10.5113
47.2146 10.3806
47.4095 10.1705
47.6044 10.0502
47.7996 9.89288
47.9948 9.71577
48.1902 9.62499
48.3858 9.45597
48.5815 9.3428
48.7774 9.22399
48.9734 9.10308
49.1696 8.94731
49.3661 8.7856
49.5626 8.65794
49.7592 8.5598
49.956 8.40919
50.153 8.25254
50.3501 8.15898
50.5474 8.01818
50.7448 7.86947
50.9424 7.77489
51.1402 7.70301
51.3381 7.49458
51.5362 7.43522
51.7344 7.32494
51.9328 7.16012
52.1316 7.04384
52.3304 6.96673
52.5293 6.85192
52.7284 6.73788
52.9276 6.59129
53.1271 6.50751
53.3267 6.34341
53.5265 6.27127
53.7264 6.15504
53.9266 6.08601
54.1269 5.93245
54.3274 5.84348
54.528 5.72782
54.7289 5.61007
54.9301 5.4149
55.1314 5.22647
55.3328 5.07207
55.5344 4.8911
55.7361 4.74496