Folder: NiFe_MOF_catalyst_paper/XRD (part 74)

File: Ni3Fe_FD0392.xy
TT I
1.27165 7.43998
1.45013 6.32751
1.62863 5.57277
1.80712 5.01635
1.98562 4.96217
2.16411 5.07752
2.34263 4.84548
2.52115 6.06129
2.69965 6.99222
2.87818 8.20088
3.05672 11.3967
3.23527 14.7509
3.4138 18.8312
3.59237 24.8517
3.77094 26.3069
3.9495 30.6701
4.12809 35.4221
4.30669 227.576
4.4853 67.5929
4.6639 56.3493
4.84253 68.7036
5.02118 89.8067
5.19981 450.977
5.37848 224.341
5.55716 105.163
5.73586 95.3981
5.91455 98.7121
6.09328 4013.82
6.27201 87.0405
6.45075 69.5101
6.62952 64.5697
6.8083 60.2172
6.98711 57.0151
7.16591 57.3209
7.34475 95.1826
7.5236 56.0097
7.70247 57.4777
7.88135 59.1893
8.06026 63.6551
8.23919 71.4616
8.41812 87.944
8.59709 1129.65
8.77609 105.011
8.9551 94.7728
9.13412 84.1462
9.31318 85.0677
9.49226 86.3943
9.67134 101.789
9.85047 102.783
10.0296 380.03
10.2088 500.362
10.388 108.203
10.5672 478.003
10.7465 89.2961
10.9257 80.8476
11.105 73.8177
11.2844 72.6277
11.4637 66.5492
11.6431 65.2925
11.8225 64.0161
12.002 65.3138
12.1814 148.285
12.3609 73.692
12.5405 66.1748
12.72 72.1081
12.8996 72.824
13.0792 81.0074
13.2589 233.943
13.4386 138.885
13.6183 237.635
13.7981 106.547
13.9779 77.6154
14.1577 74.4371
14.3376 73.7224
14.5175 70.695
14.6974 72.2096
14.8774 113.149
15.0574 164.354
15.2374 73.2346
15.4175 68.1047
15.5976 67.5514
15.7778 97.5665
15.958 169.018
16.1382 64.5036
16.3185 60.4243
16.4988 57.0212
16.6792 55.9472
16.8596 56.7117
17.04 57.3098
17.2205 67.8971
17.401 74.7466
17.5815 60.8957
17.7622 62.8451
17.9428 76.3988
18.1237 137.583
18.3044 90.596
18.4852 82.276
18.666 62.1149
18.8469 59.7297
19.0278 58.5276
19.2088 61.2166
19.3898 77.0167
19.5709 55.8444
19.752 54.6874
19.9332 57.9844
20.1144 70.7446
20.2957 64.2677
20.477 55.8125
20.6586 50.9729
20.84 50.2551
21.0215 49.9145
21.203 51.8644
21.3846 50.4554
21.5662 50.1237
21.7479 53.8639
21.9297 65.5944
22.1115 57.2099
22.2933 51.466
22.4753 50.3903
22.6572 50.2709
22.8393 53.0609
23.0214 58.9497
23.2037 50.1469
23.3859 51.1516
23.5682 57.4192
23.7505 50.1505
23.9329 46.5735
24.1154 45.32
24.2979 44.6838
24.4805 44.0404
24.6631 43.9708
24.8458 43.4187
25.0286 43.8798
25.2114 45.7498
25.3943 45.7835
25.5773 42.0571
25.7605 41.6246
25.9436 41.8435
26.1268 42.7293
26.31 41.2771
26.4933 41.835
26.6767 43.1656
26.8601 41.6469
27.0437 39.8669
27.2272 39.5206
27.4109 39.3144
27.5946 39.2474
27.7784 38.587
27.9623 39.1603
28.1462 39.6699
28.3304 38.1824
28.5145 37.0605
28.6987 36.6623
28.8829 36.2635
29.0673 35.6171
29.2517 35.2599
29.4361 35.0125
29.6207 34.0323
29.8053 33.7715
29.99 33.4706
30.1748 33.2034
30.3597 33.1743
30.5447 32.942
30.7297 33.0771
30.915 32.4291
31.1002 31.9423
31.2855 31.6234
31.4708 31.5758
31.6563 31.2308
31.8418 30.8997
32.0275 30.6901
32.2132 30.1429
32.399 29.6277
32.5848 29.2011
32.7708 28.8234
32.9569 28.7412
33.143 28.3809
33.3293 28.0861
33.5158 27.7161
33.7022 27.2385
33.8887 26.995
34.0753 26.6556
34.262 26.335
34.4488 25.9874
34.6357 25.6173
34.8227 25.3115
35.0098 25.0749
35.1969 24.8172
35.3842 24.611
35.5716 24.3621
35.759 24.0793
35.9468 23.7059
36.1345 23.5026
36.3222 23.2422
36.5101 22.9218
36.6981 22.7099
36.8861 22.3276
37.0743 22.0608
37.2626 21.8448
37.451 21.5775
37.6395 21.2897
37.8281 21.0326
38.0168 20.7542
38.2056 20.4215
38.3945 20.173
38.5837 19.9758
38.7728 19.6817
38.9621 19.4722
39.1514 19.1629
39.3409 18.8473
39.5304 18.7061
39.7201 18.5063
39.9099 18.296
40.0999 18.0802
40.2899 17.7682
40.48 17.5597
40.6703 17.3463
40.8607 17.1593
41.0512 16.9557
41.242 16.6715
41.4327 16.458
41.6236 16.2477
41.8146 16.0272
42.0057 15.8016
42.1969 15.5955
42.3882 15.4044
42.5797 15.2164
42.7713 14.9916
42.963 14.7455
43.1549 14.5623
43.3468 14.3975
43.5389 14.1743
43.7312 13.995
43.9237 13.8171
44.1162 13.6367
44.3088 13.4022
44.5016 13.2458
44.6945 13.0394
44.8875 12.9041
45.0806 12.6835
45.2739 12.5551
45.4673 12.3566
45.6609 12.1001
45.8546 11.9392
46.0484 11.8334
46.2424 11.6417
46.4365 11.4994
46.631 11.3309
46.8254 11.0872
47.0199 10.9519
47.2146 10.814
47.4095 10.6379
47.6044 10.4654
47.7996 10.3384
47.9948 10.1998
48.1902 10.0418
48.3858 9.91925
48.5815 9.74923
48.7774 9.61555
48.9734 9.45294
49.1696 9.30954
49.3661 9.15725
49.5626 9.03396
49.7592 8.93855
49.956 8.77444
50.153 8.63942
50.3501 8.53559
50.5474 8.38486
50.7448 8.25043
50.9424 8.16219
51.1402 7.97847
51.3381 7.89277
51.5362 7.73008
51.7344 7.61982
51.9328 7.50027
52.1316 7.3689
52.3304 7.24605
52.5293 7.15962
52.7284 7.00529
52.9276 6.88816
53.1271 6.84529
53.3267 6.63792
53.5265 6.53782
53.7264 6.40011
53.9266 6.30455
54.1269 6.21838
54.3274 6.09544
54.528 5.9368
54.7289 5.7563
54.9301 5.60619
55.1314 5.49596
55.3328 5.30165
55.5344 5.14129
55.7361 4.88128

File: Ni3Fe_FD0393.xy
TT I
1.27165 7.34759
1.45013 6.1553
1.62863 5.74833
1.80712 5.14575
1.98562 4.5829
2.16411 4.95751
2.34263 5.0188
2.52115 6.25772
2.69965 7.6633
2.87818 8.1724
3.05672 11.074
3.23527 15.0023
3.4138 18.7653
3.59237 24.4147
3.77094 26.6728
3.9495 30.3828
4.12809 35.8319
4.30669 229.032
4.4853 67.8216
4.6639 56.4529
4.84253 68.771
5.02118 89.6582
5.19981 452.304
5.37848 223.668
5.55716 105.57
5.73586 95.0168
5.91455 98.4406
6.09328 4030.65
6.27201 86.6497
6.45075 69.3144
6.62952 64.6125
6.8083 60.4048
6.98711 57.3126
7.16591 57.0448
7.34475 95.1403
7.5236 56.0869
7.70247 57.2767
7.88135 59.0874
8.06026 64.0119
8.23919 71.1365
8.41812 87.9456
8.59709 1125.47
8.77609 105.01
8.9551 94.7188
9.13412 83.6423
9.31318 85.4123
9.49226 86.4841
9.67134 101.47
9.85047 102.921
10.0296 380.322
10.2088 498.334
10.388 108.539
10.5672 478.189
10.7465 89.4074
10.9257 80.5599
11.105 73.8036
11.2844 72.5189
11.4637 66.8885
11.6431 65.4731
11.8225 64.1329
12.002 65.4027
12.1814 148.631
12.3609 73.6609
12.5405 66.2947
12.72 72.0234
12.8996 72.7994
13.0792 81.2207
13.2589 233.922
13.4386 138.789
13.6183 237.795
13.7981 106.428
13.9779 77.9106
14.1577 74.6902
14.3376 73.8679
14.5175 70.726
14.6974 72.3404
14.8774 113.132
15.0574 163.683
15.2374 73.509
15.4175 68.0929
15.5976 67.772
15.7778 97.7354
15.958 168.92
16.1382 64.7035
16.3185 60.5467
16.4988 57.0939
16.6792 56.0956
16.8596 56.8425
17.04 57.5644
17.2205 67.7717
17.401 74.8972
17.5815 60.8679
17.7622 62.9077
17.9428 76.5084
18.1237 137.416
18.3044 90.8266
18.4852 82.1064
18.666 62.2575
18.8469 59.6179
19.0278 58.3903
19.2088 61.3428
19.3898 77.1619
19.5709 55.8467
19.752 54.7716
19.9332 57.8497
20.1144 70.6641
20.2957 64.364
20.477 55.9129
20.6586 51.0669
20.84 50.3157
21.0215 49.9291
21.203 51.959
21.3846 50.4172
21.5662 49.9688
21.7479 53.9801
21.9297 65.7932
22.1115 57.0714
22.2933 51.5617
22.4753 50.2654
22.6572 50.2265
22.8393 53.1168
23.0214 58.689
23.2037 50.1868
23.3859 50.9418
23.5682 57.2745
23.7505 50.0203
23.9329 46.4302
24.1154 45.5455
24.2979 44.5854
24.4805 44.1462
24.6631 44.0185
24.8458 43.4219
25.0286 43.9344
25.2114 45.7068
25.3943 45.8083
25.5773 42.0367
25.7605 41.5644
25.9436 41.97
26.1268 42.6875
26.31 41.2399
26.4933 41.8729
26.6767 43.095
26.8601 41.6306
27.0437 39.8554
27.2272 39.6235
27.4109 39.3669
27.5946 39.4341
27.7784 38.8437
27.9623 39.2921
28.1462 39.7799
28.3304 38.2911
28.5145 36.8445
28.6987 36.5921
28.8829 36.297
29.0673 35.5483
29.2517 35.1734
29.4361 35.0917
29.6207 33.9138
29.8053 33.7538
29.99 33.4311
30.1748 33.2414
30.3597 33.0936
30.5447 32.962
30.7297 33.0444
30.915 32.4672
31.1002 31.9006
31.2855 31.7058
31.4708 31.5265
31.6563 31.1931
31.8418 30.915
32.0275 30.698
32.2132 30.1338
32.399 29.687
32.5848 29.1917
32.7708 28.9581
32.9569 28.6682
33.143 28.5126
33.3293 28.1202
33.5158 27.7217
33.7022 27.2331
33.8887 27.0785
34.0753 26.7114
34.262 26.3772
34.4488 25.939
34.6357 25.6146
34.8227 25.3283
35.0098 25.1584
35.1969 24.8253
35.3842 24.5509
35.5716 24.3891
35.759 24.0525
35.9468 23.6308
36.1345 23.5125
36.3222 23.1729
36.5101 22.9241
36.6981 22.6297
36.8861 22.3339
37.0743 22.0611
37.2626 21.8309
37.451 21.461
37.6395 21.3722
37.8281 20.9872
38.0168 20.7492
38.2056 20.5359
38.3945 20.1584
38.5837 19.9527
38.7728 19.7037
38.9621 19.4297
39.1514 19.1502
39.3409 18.9455
39.5304 18.6415
39.7201 18.5188
39.9099 18.3026
40.0999 18.0866
40.2899 17.792
40.48 17.5282
40.6703 17.3394
40.8607 17.1332
41.0512 16.9728
41.242 16.5983
41.4327 16.5123
41.6236 16.2194
41.8146 16.0942
42.0057 15.8449
42.1969 15.5856
42.3882 15.3935
42.5797 15.2454
42.7713 14.9669
42.963 14.7642
43.1549 14.6126
43.3468 14.354
43.5389 14.1761
43.7312 13.9698
43.9237 13.77
44.1162 13.5811
44.3088 13.413
44.5016 13.194
44.6945 13.055
44.8875 12.8435
45.0806 12.6643
45.2739 12.5005
45.4673 12.3403
45.6609 12.1521
45.8546 11.9692
46.0484 11.8234
46.2424 11.6323
46.4365 11.5129
46.631 11.3089
46.8254 11.1359
47.0199 10.9561
47.2146 10.8041
47.4095 10.6272
47.6044 10.4879
47.7996 10.3694
47.9948 10.2059
48.1902 10.0424
48.3858 9.90183
48.5815 9.7668
48.7774 9.61509
48.9734 9.4829
49.1696 9.34002
49.3661 9.19632
49.5626 9.0458
49.7592 8.90176
49.956 8.78979
50.153 8.63665
50.3501 8.50285
50.5474 8.34855
50.7448 8.25151
50.9424 8.1469
51.1402 8.00897
51.3381 7.886
51.5362 7.74504
51.7344 7.6037
51.9328 7.45594
52.1316 7.32257
52.3304 7.24132
52.5293 7.09228
52.7284 6.99987
52.9276 6.87505
53.1271 6.80161
53.3267 6.67699
53.5265 6.52521
53.7264 6.43626
53.9266 6.35395
54.1269 6.2518
54.3274 6.07972
54.528 5.95315
54.7289 5.77195
54.9301 5.62097
55.1314 5.48079
55.3328 5.27448
55.5344 5.05903
55.7361 4.93318

File: Ni3Fe_FD0395.xy
TT I
1.27165 7.50937
1.45013 6.26935
1.62863 5.27607
1.80712 5.22886
1.98562 4.95813
2.16411 4.84503
2.34263 5.17263
2.52115 6.40196
2.69965 7.56031
2.87818 8.66756
3.05672 11.1661
3.23527 14.7712
3.4138 19.3811
3.59237 24.8481
3.77094 26.8197
3.9495 30.6707
4.12809 35.5805
4.30669 237.604
4.4853 68.5982
4.6639 56.0536
4.84253 68.6502
5.02118 89.3978
5.19981 443.107
5.37848 225.17
5.55716 105.392
5.73586 94.4805
5.91455 98.246
6.09328 4025.26
6.27201 86.8413
6.45075 69.1489
6.62952 64.2382
6.8083 60.183
6.98711 57.2839
7.16591 56.5663
7.34475 97.4799
7.5236 56.159
7.70247 57.6509
7.88135 59.3144
8.06026 63.6766
8.23919 71.2447
8.41812 87.4869
8.59709 1104.85
8.77609 104.445
8.9551 94.6506
9.13412 83.7983
9.31318 84.7232
9.49226 86.3262
9.67134 101.92
9.85047 102.177
10.0296 374.465
10.2088 512.031
10.388 108.26
10.5672 476.764
10.7465 89.7004
10.9257 80.4681
11.105 73.791
11.2844 72.3985
11.4637 66.1924
11.6431 64.9931
11.8225 64.3151
12.002 65.2369
12.1814 147.493
12.3609 74.0185
12.5405 65.95
12.72 72.4381
12.8996 72.7753
13.0792 80.8759
13.2589 231.791
13.4386 139.075
13.6183 234.82
13.7981 106.895
13.9779 77.8087
14.1577 74.4733
14.3376 73.6958
14.5175 70.5741
14.6974 72.0439
14.8774 112.123
15.0574 166.387
15.2374 73.1359
15.4175 67.8827
15.5976 67.5332
15.7778 96.6622
15.958 171.402
16.1382 64.7939
16.3185 60.2742
16.4988 56.8367
16.6792 55.9323
16.8596 56.7451
17.04 57.2398
17.2205 67.8463
17.401 74.7818
17.5815 60.657
17.7622 62.9678
17.9428 76.5406
18.1237 137.74
18.3044 90.6453
18.4852 82.3416
18.666 62.0071
18.8469 59.5226
19.0278 58.2674
19.2088 61.2102
19.3898 76.999
19.5709 55.7866
19.752 54.5933
19.9332 57.6976
20.1144 70.5956
20.2957 64.3427
20.477 55.8831
20.6586 50.9445
20.84 50.0965
21.0215 49.8341
21.203 51.8567
21.3846 50.4899
21.5662 50.0481
21.7479 53.9346
21.9297 65.5747
22.1115 57.1223
22.2933 51.474
22.4753 50.2587
22.6572 50.0787
22.8393 52.9417
23.0214 59.036
23.2037 50.2475
23.3859 51.0664
23.5682 57.3777
23.7505 50.1968
23.9329 46.3468
24.1154 45.3493
24.2979 44.5305
24.4805 43.8544
24.6631 43.997
24.8458 43.4161
25.0286 43.8324
25.2114 45.8042
25.3943 45.7994
25.5773 41.9831
25.7605 41.5431
25.9436 41.9661
26.1268 42.6323
26.31 41.3166
26.4933 41.751
26.6767 43.1261
26.8601 41.4648
27.0437 39.8584
27.2272 39.5313
27.4109 39.3016
27.5946 39.3386
27.7784 38.7441
27.9623 39.2666
28.1462 39.7913
28.3304 38.225
28.5145 36.895
28.6987 36.5512
28.8829 36.2527
29.0673 35.4979
29.2517 35.1421
29.4361 35.0856
29.6207 33.9766
29.8053 33.7232
29.99 33.4487
30.1748 33.2497
30.3597 33.1136
30.5447 32.9296
30.7297 32.9809
30.915 32.4578
31.1002 31.8709
31.2855 31.5346
31.4708 31.4839
31.6563 31.2049
31.8418 30.9037
32.0275 30.6714
32.2132 30.1181
32.399 29.6075
32.5848 29.2575
32.7708 28.8664
32.9569 28.7295
33.143 28.4223
33.3293 28.0908
33.5158 27.6916
33.7022 27.1915
33.8887 26.9428
34.0753 26.6566
34.262 26.2682
34.4488 25.9191
34.6357 25.615
34.8227 25.3195
35.0098 25.0806
35.1969 24.803
35.3842 24.6408
35.5716 24.4648
35.759 24.0354
35.9468 23.6979
36.1345 23.3762
36.3222 23.1838
36.5101 22.9362
36.6981 22.6563
36.8861 22.4144
37.0743 22.0405
37.2626 21.8132
37.451 21.5368
37.6395 21.335
37.8281 20.9725
38.0168 20.6762
38.2056 20.5291
38.3945 20.207
38.5837 19.9523
38.7728 19.7248
38.9621 19.4649
39.1514 19.169
39.3409 18.9356
39.5304 18.7289
39.7201 18.4319
39.9099 18.2566
40.0999 18.0491
40.2899 17.7703
40.48 17.5853
40.6703 17.2674
40.8607 17.1435
41.0512 16.9311
41.242 16.6899
41.4327 16.514
41.6236 16.197
41.8146 15.9956
42.0057 15.8135
42.1969 15.6339
42.3882 15.5082
42.5797 15.2173
42.7713 15.0051
42.963 14.7698
43.1549 14.6011
43.3468 14.395
43.5389 14.1541
43.7312 14.001
43.9237 13.7847
44.1162 13.6134
44.3088 13.3982
44.5016 13.2543
44.6945 13.0408
44.8875 12.8467
45.0806 12.6955
45.2739 12.4865
45.4673 12.3793
45.6609 12.1477
45.8546 12.0137
46.0484 11.8463
46.2424 11.6654
46.4365 11.4987
46.631 11.3031
46.8254 11.1164
47.0199 10.9567
47.2146 10.8199
47.4095 10.6282
47.6044 10.4597
47.7996 10.348
47.9948 10.2186
48.1902 10.0634
48.3858 9.89233
48.5815 9.74832
48.7774 9.61644
48.9734 9.40775
49.1696 9.31782
49.3661 9.18102
49.5626 9.04049
49.7592 8.91865
49.956 8.77697
50.153 8.62671
50.3501 8.49748
50.5474 8.39884
50.7448 8.24058
50.9424 8.17844
51.1402 7.98615
51.3381 7.81951
51.5362 7.75222
51.7344 7.59386
51.9328 7.4897
52.1316 7.34766
52.3304 7.23451
52.5293 7.10802
52.7284 7.01654
52.9276 6.88
53.1271 6.79022
53.3267 6.66753
53.5265 6.55037
53.7264 6.43716
53.9266 6.3212
54.1269 6.19493
54.3274 6.06981
54.528 5.95995
54.7289 5.75114
54.9301 5.60006
55.1314 5.51436
55.3328 5.29543
55.5344 5.11859
55.7361 4.94741

File: Ni3Fe_FD0397.xy
TT I
1.27165 7.68513
1.45013 6.37188
1.62863 5.40831
1.80712 5.36865
1.98562 4.68508
2.16411 5.4073
2.34263 5.06225
2.52115 6.11866
2.69965 7.00953
2.87818 8.94159
3.05672 11.3085
3.23527 14.6286
3.4138 19.3862
3.59237 24.9219
3.77094 27.1251
3.9495 30.427
4.12809 36.0948
4.30669 240.914
4.4853 68.9314
4.6639 56.3203
4.84253 68.6554
5.02118 89.4676
5.19981 441.958
5.37848 224.882
5.55716 105.303
5.73586 95.1023
5.91455 98.0347
6.09328 3978.88
6.27201 87.0675
6.45075 69.3561
6.62952 64.5848
6.8083 60.2116
6.98711 57.4831
7.16591 57.113
7.34475 97.9308
7.5236 56.2272
7.70247 57.5975
7.88135 59.0617
8.06026 63.8594
8.23919 71.2252
8.41812 87.5793
8.59709 1104.77
8.77609 104.534
8.9551 94.7831
9.13412 83.5892
9.31318 84.8324
9.49226 86.6068
9.67134 102.174
9.85047 102.535
10.0296 372.455
10.2088 505.647
10.388 107.941
10.5672 477.521
10.7465 89.3799
10.9257 80.651
11.105 73.7523
11.2844 72.5583
11.4637 66.4792
11.6431 65.3293
11.8225 63.8548
12.002 65.2337
12.1814 147.067
12.3609 73.8549
12.5405 66.1647
12.72 72.2717
12.8996 72.6116
13.0792 80.742
13.2589 231.928
13.4386 138.655
13.6183 234.525
13.7981 106.735
13.9779 77.7459
14.1577 74.4683
14.3376 73.9667
14.5175 70.6873
14.6974 72.2864
14.8774 111.833
15.0574 165.601
15.2374 73.4074
15.4175 68.2447
15.5976 67.4295
15.7778 96.8954
15.958 170.267
16.1382 64.786
16.3185 60.3891
16.4988 56.817
16.6792 56.0152
16.8596 56.7541
17.04 57.3538
17.2205 67.6725
17.401 74.8909
17.5815 60.633
17.7622 62.9311
17.9428 76.3184
18.1237 137.863
18.3044 90.4326
18.4852 82.1515
18.666 62.0161
18.8469 59.7273
19.0278 58.3945
19.2088 61.1646
19.3898 77.3202
19.5709 55.7716
19.752 54.4186
19.9332 57.7924
20.1144 70.6701
20.2957 64.3125
20.477 55.9715
20.6586 50.7353
20.84 49.9593
21.0215 50.0598
21.203 51.8281
21.3846 50.4954
21.5662 50.0855
21.7479 53.7492
21.9297 65.6038
22.1115 57.2932
22.2933 51.6189
22.4753 50.2219
22.6572 50.2355
22.8393 52.9068
23.0214 58.9799
23.2037 50.1549
23.3859 51.0787
23.5682 57.4518
23.7505 50.049
23.9329 46.3886
24.1154 45.347
24.2979 44.545
24.4805 43.9736
24.6631 43.8543
24.8458 43.2792
25.0286 43.9074
25.2114 45.6697
25.3943 45.806
25.5773 42.0816
25.7605 41.4975
25.9436 41.7607
26.1268 42.768
26.31 41.3108
26.4933 41.6064
26.6767 43.061
26.8601 41.4581
27.0437 39.9343
27.2272 39.5001
27.4109 39.2813
27.5946 39.4944
27.7784 38.8592
27.9623 39.2052
28.1462 39.7801
28.3304 38.1533
28.5145 36.8307
28.6987 36.5133
28.8829 36.4089
29.0673 35.5854
29.2517 35.1693
29.4361 34.957
29.6207 33.9941
29.8053 33.6623
29.99 33.4199
30.1748 33.1499
30.3597 33.0968
30.5447 32.9327
30.7297 33.0533
30.915 32.4656
31.1002 31.9032
31.2855 31.6621
31.4708 31.5785
31.6563 31.0868
31.8418 30.893
32.0275 30.6492
32.2132 30.2158
32.399 29.5566
32.5848 29.1957
32.7708 28.8342
32.9569 28.6677
33.143 28.5069
33.3293 28.0656
33.5158 27.6423
33.7022 27.2363
33.8887 27.0278
34.0753 26.6694
34.262 26.2092
34.4488 25.9569
34.6357 25.6661
34.8227 25.3999
35.0098 25.1573
35.1969 24.7866
35.3842 24.5896
35.5716 24.3297
35.759 24.0439
35.9468 23.6861
36.1345 23.5339
36.3222 23.2107
36.5101 22.9832
36.6981 22.6994
36.8861 22.3986
37.0743 21.9672
37.2626 21.7534
37.451 21.5357
37.6395 21.3
37.8281 20.9815
38.0168 20.6802
38.2056 20.4704
38.3945 20.1882
38.5837 19.9452
38.7728 19.7324
38.9621 19.4075
39.1514 19.1429
39.3409 18.8644
39.5304 18.6996
39.7201 18.478
39.9099 18.2967
40.0999 18.0641
40.2899 17.8421
40.48 17.5484
40.6703 17.3336
40.8607 17.1891
41.0512 16.8765
41.242 16.6521
41.4327 16.5105
41.6236 16.2532
41.8146 16.0309
42.0057 15.7976
42.1969 15.6234
42.3882 15.3871
42.5797 15.1867
42.7713 15.0351
42.963 14.7881
43.1549 14.6123
43.3468 14.3922
43.5389 14.1865
43.7312 13.9361
43.9237 13.7894
44.1162 13.6461
44.3088 13.3856
44.5016 13.1978
44.6945 13.0293
44.8875 12.8344
45.0806 12.6451
45.2739 12.4608
45.4673 12.3389
45.6609 12.16
45.8546 11.9933
46.0484 11.816
46.2424 11.6219
46.4365 11.4974
46.631 11.2949
46.8254 11.1022
47.0199 10.9971
47.2146 10.8275
47.4095 10.6304
47.6044 10.5006
47.7996 10.3187
47.9948 10.1814
48.1902 10.0451
48.3858 9.9075
48.5815 9.78509
48.7774 9.66752
48.9734 9.45759
49.1696 9.30625
49.3661 9.2188
49.5626 9.05266
49.7592 8.93018
49.956 8.78652
50.153 8.65378
50.3501 8.47676
50.5474 8.3942
50.7448 8.28206
50.9424 8.11215
51.1402 7.99431
51.3381 7.87596
51.5362 7.75097
51.7344 7.57648
51.9328 7.48874
52.1316 7.34443
52.3304 7.28539
52.5293 7.14096
52.7284 7.00624
52.9276 6.89522
53.1271 6.7932
53.3267 6.64379
53.5265 6.55434
53.7264 6.4254
53.9266 6.32687
54.1269 6.18825
54.3274 6.09947
54.528 5.94228
54.7289 5.76686
54.9301 5.62861
55.1314 5.50192
55.3328 5.27541
55.5344 5.10602
55.7361 4.96108

File: Ni3Fe_FD0399.xy
TT I
1.27165 7.53255
1.45013 7.13988
1.62863 5.30836
1.80712 5.03409
1.98562 4.68025
2.16411 4.91278
2.34263 4.91605
2.52115 6.31748
2.69965 7.48052
2.87818 9.13989
3.05672 11.5156
3.23527 14.9724
3.4138 19.0358
3.59237 24.8294
3.77094 26.6368
3.9495 30.0327
4.12809 36.1124
4.30669 243.397
4.4853 69.2743
4.6639 57.0557
4.84253 68.5355
5.02118 89.4741
5.19981 439.672
5.37848 223.046
5.55716 105.209
5.73586 95.1931
5.91455 98.0919
6.09328 3972.53
6.27201 87.336
6.45075 69.0862
6.62952 64.7657
6.8083 60.5282
6.98711 57.5817
7.16591 57.1844
7.34475 99.2681
7.5236 56.1052
7.70247 57.7708
7.88135 59.3622
8.06026 63.3732
8.23919 71.0454
8.41812 88.1646
8.59709 1106.32
8.77609 104.524
8.9551 94.5772
9.13412 83.8799
9.31318 84.889
9.49226 86.4695
9.67134 102.497
9.85047 102.483
10.0296 370.09
10.2088 501.049
10.388 108.087
10.5672 485.735
10.7465 89.402
10.9257 80.6009
11.105 73.3616
11.2844 72.7838
11.4637 66.4011
11.6431 65.3736
11.8225 63.7881
12.002 65.2744
12.1814 146.751
12.3609 73.8102
12.5405 66.2142
12.72 72.2112
12.8996 72.5067
13.0792 80.8318
13.2589 230.563
13.4386 137.951
13.6183 232.95
13.7981 106.186
13.9779 77.5311
14.1577 74.3546
14.3376 73.5598
14.5175 70.61
14.6974 72.3832
14.8774 111.991
15.0574 164.503
15.2374 73.5316
15.4175 67.8355
15.5976 67.4813
15.7778 97.1233
15.958 171.099
16.1382 64.6847
16.3185 60.5113
16.4988 57.2028
16.6792 55.8629
16.8596 56.7455
17.04 57.2354
17.2205 67.4964
17.401 74.5051
17.5815 60.8139
17.7622 62.5494
17.9428 76.16
18.1237 137.449
18.3044 90.0048
18.4852 82.2709
18.666 62.3486
18.8469 59.3923
19.0278 58.3381
19.2088 61.1757
19.3898 77.2776
19.5709 55.8279
19.752 54.5282
19.9332 57.7329
20.1144 70.5756
20.2957 64.1297
20.477 55.7675
20.6586 50.7809
20.84 50.1022
21.0215 49.9436
21.203 51.8383
21.3846 50.3929
21.5662 50.0414
21.7479 53.6663
21.9297 65.5327
22.1115 56.9698
22.2933 51.6054
22.4753 50.0258
22.6572 50.18
22.8393 52.8249
23.0214 58.8823
23.2037 50.1126
23.3859 51.13
23.5682 57.3684
23.7505 50.054
23.9329 46.345
24.1154 45.2737
24.2979 44.5623
24.4805 43.9323
24.6631 43.9407
24.8458 43.2331
25.0286 43.9334
25.2114 45.7525
25.3943 45.6513
25.5773 41.9984
25.7605 41.5325
25.9436 41.8334
26.1268 42.6065
26.31 41.1208
26.4933 41.616
26.6767 42.9592
26.8601 41.5825
27.0437 39.8104
27.2272 39.4939
27.4109 39.2522
27.5946 39.3382
27.7784 38.8294
27.9623 39.2942
28.1462 39.7097
28.3304 38.1318
28.5145 36.8787
28.6987 36.5011
28.8829 36.3147
29.0673 35.53
29.2517 35.2033
29.4361 34.974
29.6207 33.9131
29.8053 33.7921
29.99 33.3126
30.1748 33.2616
30.3597 33.0078
30.5447 32.8209
30.7297 32.9505
30.915 32.4218
31.1002 31.9123
31.2855 31.4989
31.4708 31.3953
31.6563 31.1373
31.8418 30.8438
32.0275 30.6146
32.2132 30.0972
32.399 29.6517
32.5848 29.2007
32.7708 28.759
32.9569 28.6431
33.143 28.4112
33.3293 28.0264
33.5158 27.6986
33.7022 27.2418
33.8887 27.0095
34.0753 26.5547
34.262 26.3358
34.4488 25.8371
34.6357 25.6367
34.8227 25.2838
35.0098 25.1567
35.1969 24.8007
35.3842 24.5615
35.5716 24.3565
35.759 23.981
35.9468 23.672
36.1345 23.4467
36.3222 23.2328
36.5101 23.0117
36.6981 22.7412
36.8861 22.3883
37.0743 22.0737
37.2626 21.8235
37.451 21.4009
37.6395 21.3206
37.8281 21.0259
38.0168 20.6924
38.2056 20.4872
38.3945 20.1914
38.5837 19.8967
38.7728 19.7002
38.9621 19.4568
39.1514 19.2112
39.3409 18.859
39.5304 18.6174
39.7201 18.5196
39.9099 18.2952
40.0999 17.9858
40.2899 17.8285
40.48 17.5284
40.6703 17.3655
40.8607 17.1762
41.0512 16.9056
41.242 16.6439
41.4327 16.4738
41.6236 16.2041
41.8146 16.0323
42.0057 15.7712
42.1969 15.599
42.3882 15.4607
42.5797 15.1746
42.7713 15.0008
42.963 14.747
43.1549 14.6101
43.3468 14.4274
43.5389 14.1981
43.7312 13.9813
43.9237 13.7915
44.1162 13.5438
44.3088 13.3555
44.5016 13.1977
44.6945 13.0455
44.8875 12.8672
45.0806 12.6469
45.2739 12.5209
45.4673 12.3
45.6609 12.1578
45.8546 11.9853
46.0484 11.81
46.2424 11.6087
46.4365 11.4863
46.631 11.2932
46.8254 11.1062
47.0199 10.948
47.2146 10.8122
47.4095 10.6217
47.6044 10.4759
47.7996 10.3205
47.9948 10.1885
48.1902 10.0432
48.3858 9.90385
48.5815 9.73275
48.7774 9.6012
48.9734 9.47414
49.1696 9.34676
49.3661 9.2058
49.5626 9.03046
49.7592 8.88914
49.956 8.7909
50.153 8.65746
50.3501 8.48877
50.5474 8.36978
50.7448 8.27566
50.9424 8.14137
51.1402 7.988
51.3381 7.85421
51.5362 7.73168
51.7344 7.58693
51.9328 7.50134
52.1316 7.33698
52.3304 7.25778
52.5293 7.12025
52.7284 7.01278
52.9276 6.8702
53.1271 6.75224
53.3267 6.66476
53.5265 6.52929
53.7264 6.41847
53.9266 6.30008
54.1269 6.17751
54.3274 6.06323
54.528 5.94067
54.7289 5.76935
54.9301 5.59885
55.1314 5.49149
55.3328 5.2686
55.5344 5.072
55.7361 4.9242