Folder: NiFe_MOF_catalyst_paper/XRD (part 129)

File: Ni3Fe_FD0695.xy
TT I
1.27165 7.31939
1.45013 6.05812
1.62863 4.97189
1.80712 4.97054
1.98562 4.34303
2.16411 4.71113
2.34263 5.19868
2.52115 6.58338
2.69965 8.29096
2.87818 9.16071
3.05672 11.1643
3.23527 15.4855
3.4138 18.8237
3.59237 23.367
3.77094 26.1437
3.9495 29.4958
4.12809 34.1398
4.30669 118.246
4.4853 55.7686
4.6639 55.6469
4.84253 68.1118
5.02118 87.7277
5.19981 430.235
5.37848 193.156
5.55716 102.137
5.73586 93.3634
5.91455 96.2244
6.09328 4620.58
6.27201 80.8082
6.45075 69.1204
6.62952 62.949
6.8083 58.856
6.98711 55.4311
7.16591 55.9366
7.34475 70.9536
7.5236 54.3511
7.70247 56.8203
7.88135 57.7635
8.06026 62.284
8.23919 69.3436
8.41812 84.5042
8.59709 1241.23
8.77609 98.4259
8.9551 89.5953
9.13412 82.7633
9.31318 84.176
9.49226 84.9231
9.67134 95.7487
9.85047 101.009
10.0296 366.32
10.2088 358.105
10.388 105.512
10.5672 515.363
10.7465 86.3412
10.9257 77.7358
11.105 71.625
11.2844 68.5534
11.4637 64.5364
11.6431 63.3762
11.8225 62.4586
12.002 64.4885
12.1814 156.173
12.3609 67.2102
12.5405 64.8062
12.72 68.3717
12.8996 71.344
13.0792 80.2234
13.2589 249.586
13.4386 120.527
13.6183 257.277
13.7981 93.5567
13.9779 76.0475
14.1577 71.9266
14.3376 70.4444
14.5175 69.1318
14.6974 70.6453
14.8774 114.356
15.0574 139.881
15.2374 69.8219
15.4175 66.3452
15.5976 65.8813
15.7778 97.0735
15.958 149.707
16.1382 61.525
16.3185 57.8376
16.4988 55.2731
16.6792 54.4357
16.8596 54.8699
17.04 55.8954
17.2205 67.0987
17.401 69.9424
17.5815 59.2237
17.7622 61.294
17.9428 74.3513
18.1237 142.103
18.3044 91.3173
18.4852 75.3063
18.666 60.2583
18.8469 57.8163
19.0278 56.8323
19.2088 59.3493
19.3898 76.1626
19.5709 54.0127
19.752 53.2457
19.9332 56.3639
20.1144 69.8365
20.2957 64.1435
20.477 52.8909
20.6586 49.4061
20.84 48.6676
21.0215 48.4711
21.203 50.8297
21.3846 48.6927
21.5662 48.874
21.7479 52.9224
21.9297 64.8073
22.1115 55.7755
22.2933 49.5481
22.4753 48.7027
22.6572 48.8498
22.8393 52.207
23.0214 57.0971
23.2037 48.6167
23.3859 49.9698
23.5682 57.306
23.7505 47.687
23.9329 45.162
24.1154 44.0666
24.2979 43.2927
24.4805 42.8748
24.6631 42.6511
24.8458 42.2087
25.0286 42.7564
25.2114 44.6509
25.3943 44.4455
25.5773 40.6942
25.7605 40.3968
25.9436 40.6899
26.1268 41.614
26.31 40.1437
26.4933 40.7409
26.6767 42.2705
26.8601 40.354
27.0437 38.7064
27.2272 38.477
27.4109 38.3263
27.5946 38.2683
27.7784 37.7556
27.9623 38.4089
28.1462 38.6275
28.3304 37.0009
28.5145 35.8926
28.6987 35.6287
28.8829 35.3051
29.0673 34.5285
29.2517 34.2405
29.4361 34.1235
29.6207 33.1472
29.8053 32.835
29.99 32.5575
30.1748 32.4573
30.3597 32.1601
30.5447 32.1159
30.7297 32.1313
30.915 31.6448
31.1002 31.0943
31.2855 30.8817
31.4708 30.8258
31.6563 30.2739
31.8418 30.1046
32.0275 29.7944
32.2132 29.2678
32.399 28.8482
32.5848 28.3859
32.7708 28.0683
32.9569 27.9603
33.143 27.6939
33.3293 27.2747
33.5158 26.9727
33.7022 26.5146
33.8887 26.316
34.0753 25.8605
34.262 25.5153
34.4488 25.2521
34.6357 24.9482
34.8227 24.6153
35.0098 24.4242
35.1969 24.1255
35.3842 23.9909
35.5716 23.7606
35.759 23.3997
35.9468 23.0953
36.1345 22.8463
36.3222 22.5768
36.5101 22.3686
36.6981 22.0746
36.8861 21.8922
37.0743 21.4209
37.2626 21.2503
37.451 20.9667
37.6395 20.817
37.8281 20.4149
38.0168 20.1888
38.2056 19.8986
38.3945 19.6729
38.5837 19.3659
38.7728 19.1789
38.9621 18.97
39.1514 18.6814
39.3409 18.4158
39.5304 18.1719
39.7201 17.9677
39.9099 17.8304
40.0999 17.5028
40.2899 17.2838
40.48 17.1315
40.6703 16.8752
40.8607 16.723
41.0512 16.4921
41.242 16.2263
41.4327 16.0424
41.6236 15.7925
41.8146 15.595
42.0057 15.3813
42.1969 15.1596
42.3882 15.0527
42.5797 14.7126
42.7713 14.6313
42.963 14.4129
43.1549 14.2191
43.3468 14.0448
43.5389 13.8306
43.7312 13.6
43.9237 13.4001
44.1162 13.2817
44.3088 13.0067
44.5016 12.9153
44.6945 12.6811
44.8875 12.5416
45.0806 12.3707
45.2739 12.2157
45.4673 12.0217
45.6609 11.8342
45.8546 11.6817
46.0484 11.4766
46.2424 11.3611
46.4365 11.1997
46.631 10.9943
46.8254 10.8304
47.0199 10.6582
47.2146 10.5428
47.4095 10.386
47.6044 10.2169
47.7996 10.0613
47.9948 9.91934
48.1902 9.79428
48.3858 9.67527
48.5815 9.51413
48.7774 9.36893
48.9734 9.24193
49.1696 9.09444
49.3661 8.91025
49.5626 8.76425
49.7592 8.68648
49.956 8.53985
50.153 8.43162
50.3501 8.29675
50.5474 8.18867
50.7448 8.02536
50.9424 7.89315
51.1402 7.79383
51.3381 7.64062
51.5362 7.55523
51.7344 7.45208
51.9328 7.29191
52.1316 7.14123
52.3304 7.04058
52.5293 6.93671
52.7284 6.83262
52.9276 6.70253
53.1271 6.57132
53.3267 6.4823
53.5265 6.35642
53.7264 6.26642
53.9266 6.2019
54.1269 6.02687
54.3274 5.93922
54.528 5.79614
54.7289 5.61591
54.9301 5.48847
55.1314 5.34862
55.3328 5.13573
55.5344 4.93415
55.7361 4.81831

File: Ni3Fe_FD0696.xy
TT I
1.27165 7.58279
1.45013 5.95014
1.62863 5.77152
1.80712 4.31873
1.98562 4.41101
2.16411 4.8254
2.34263 5.20548
2.52115 5.88713
2.69965 8.01081
2.87818 9.06314
3.05672 10.7763
3.23527 14.6884
3.4138 18.541
3.59237 23.1871
3.77094 25.6817
3.9495 29.5949
4.12809 34.3547
4.30669 117.394
4.4853 55.3327
4.6639 55.5675
4.84253 68.1869
5.02118 87.4312
5.19981 429.011
5.37848 192.807
5.55716 102.746
5.73586 92.5817
5.91455 95.5211
6.09328 4573.84
6.27201 81.0199
6.45075 68.974
6.62952 62.6524
6.8083 58.9165
6.98711 55.242
7.16591 55.817
7.34475 70.1723
7.5236 54.4861
7.70247 56.2826
7.88135 57.5598
8.06026 62.4043
8.23919 69.3766
8.41812 83.8729
8.59709 1245.65
8.77609 98.2313
8.9551 89.2869
9.13412 82.5315
9.31318 84.3321
9.49226 84.6652
9.67134 95.3313
9.85047 100.969
10.0296 365.632
10.2088 356.888
10.388 105.413
10.5672 513.332
10.7465 86.1213
10.9257 77.8664
11.105 71.1745
11.2844 68.5012
11.4637 64.8828
11.6431 62.9842
11.8225 62.6013
12.002 64.321
12.1814 155.441
12.3609 67.4382
12.5405 64.5391
12.72 68.2441
12.8996 71.2805
13.0792 80.7118
13.2589 248.31
13.4386 120.134
13.6183 258.063
13.7981 93.5118
13.9779 75.6021
14.1577 71.9878
14.3376 70.4056
14.5175 68.8499
14.6974 70.7462
14.8774 114.035
15.0574 139.618
15.2374 69.6363
15.4175 66.2071
15.5976 66.171
15.7778 96.6872
15.958 149.825
16.1382 61.4135
16.3185 57.8623
16.4988 55.4729
16.6792 54.3672
16.8596 54.6744
17.04 56.1046
17.2205 67.3358
17.401 69.7023
17.5815 59.0624
17.7622 61.4757
17.9428 74.2453
18.1237 142.379
18.3044 91.5008
18.4852 75.2172
18.666 60.0773
18.8469 57.9696
19.0278 56.637
19.2088 59.2961
19.3898 75.7625
19.5709 54.0206
19.752 53.2207
19.9332 56.2019
20.1144 69.6643
20.2957 64.0744
20.477 52.9009
20.6586 49.5426
20.84 48.6991
21.0215 48.4963
21.203 50.7053
21.3846 48.7153
21.5662 49.0102
21.7479 52.8439
21.9297 64.897
22.1115 56.0228
22.2933 49.566
22.4753 48.5627
22.6572 48.831
22.8393 52.2378
23.0214 56.9548
23.2037 48.6317
23.3859 49.6978
23.5682 57.2171
23.7505 47.8522
23.9329 45.0424
24.1154 43.8791
24.2979 43.3437
24.4805 42.7829
24.6631 42.5701
24.8458 42.2093
25.0286 42.7689
25.2114 44.5759
25.3943 44.4935
25.5773 40.8013
25.7605 40.3282
25.9436 40.8051
26.1268 41.6728
26.31 40.0957
26.4933 40.771
26.6767 42.0997
26.8601 40.2566
27.0437 38.7752
27.2272 38.4707
27.4109 38.4636
27.5946 38.4309
27.7784 37.7623
27.9623 38.3375
28.1462 38.7856
28.3304 37.0495
28.5145 35.8928
28.6987 35.6084
28.8829 35.2847
29.0673 34.686
29.2517 34.2027
29.4361 34.0669
29.6207 33.0387
29.8053 32.7932
29.99 32.4508
30.1748 32.4573
30.3597 32.1603
30.5447 31.9536
30.7297 32.2267
30.915 31.5471
31.1002 31.106
31.2855 30.829
31.4708 30.7891
31.6563 30.2632
31.8418 30.0546
32.0275 29.8062
32.2132 29.342
32.399 28.8862
32.5848 28.4661
32.7708 28.0882
32.9569 27.9918
33.143 27.7184
33.3293 27.3087
33.5158 27.0141
33.7022 26.5273
33.8887 26.3093
34.0753 25.9575
34.262 25.4805
34.4488 25.2532
34.6357 24.9643
34.8227 24.6105
35.0098 24.4575
35.1969 24.1634
35.3842 23.8821
35.5716 23.7913
35.759 23.3756
35.9468 23.0385
36.1345 22.8152
36.3222 22.5336
36.5101 22.3889
36.6981 22.1192
36.8861 21.7365
37.0743 21.4193
37.2626 21.2415
37.451 20.9614
37.6395 20.8085
37.8281 20.3767
38.0168 20.2246
38.2056 19.9319
38.3945 19.629
38.5837 19.3886
38.7728 19.1455
38.9621 18.9527
39.1514 18.6842
39.3409 18.3706
39.5304 18.177
39.7201 17.9676
39.9099 17.8232
40.0999 17.5793
40.2899 17.3449
40.48 17.0586
40.6703 16.8935
40.8607 16.7275
41.0512 16.5037
41.242 16.2074
41.4327 16.0119
41.6236 15.8238
41.8146 15.6311
42.0057 15.3894
42.1969 15.1798
42.3882 14.9998
42.5797 14.7998
42.7713 14.5726
42.963 14.3815
43.1549 14.2073
43.3468 13.9817
43.5389 13.7785
43.7312 13.5686
43.9237 13.4434
44.1162 13.2358
44.3088 13.0411
44.5016 12.879
44.6945 12.7061
44.8875 12.5156
45.0806 12.3614
45.2739 12.1389
45.4673 12.0161
45.6609 11.7914
45.8546 11.6997
46.0484 11.5304
46.2424 11.3233
46.4365 11.1557
46.631 10.9911
46.8254 10.8001
47.0199 10.6589
47.2146 10.5458
47.4095 10.3828
47.6044 10.2067
47.7996 10.0831
47.9948 9.90351
48.1902 9.76273
48.3858 9.62524
48.5815 9.49895
48.7774 9.38384
48.9734 9.21459
49.1696 9.08406
49.3661 8.9631
49.5626 8.80364
49.7592 8.68619
49.956 8.54509
50.153 8.398
50.3501 8.29189
50.5474 8.15049
50.7448 8.05419
50.9424 7.87712
51.1402 7.80394
51.3381 7.64667
51.5362 7.52448
51.7344 7.45111
51.9328 7.30393
52.1316 7.14182
52.3304 7.04585
52.5293 6.90487
52.7284 6.85805
52.9276 6.67699
53.1271 6.63395
53.3267 6.46939
53.5265 6.32545
53.7264 6.28378
53.9266 6.16389
54.1269 6.06599
54.3274 5.9337
54.528 5.80464
54.7289 5.66472
54.9301 5.47177
55.1314 5.35416
55.3328 5.11577
55.5344 4.95846
55.7361 4.82218

File: Ni3Fe_FD0697.xy
TT I
1.27165 7.9017
1.45013 6.59152
1.62863 5.08948
1.80712 4.62649
1.98562 4.40452
2.16411 4.3167
2.34263 5.2542
2.52115 6.94594
2.69965 7.69764
2.87818 8.96456
3.05672 11.1148
3.23527 15.3371
3.4138 18.9948
3.59237 23.3326
3.77094 26.018
3.9495 29.4589
4.12809 34.4208
4.30669 116.218
4.4853 55.1355
4.6639 55.5389
4.84253 68.3779
5.02118 87.6488
5.19981 431.103
5.37848 192.964
5.55716 102.552
5.73586 92.9932
5.91455 95.8933
6.09328 4571.71
6.27201 80.9
6.45075 69.0285
6.62952 62.8631
6.8083 59.038
6.98711 55.7124
7.16591 55.9651
7.34475 69.9927
7.5236 54.0935
7.70247 56.6167
7.88135 57.3835
8.06026 62.6115
8.23919 69.3208
8.41812 84.162
8.59709 1248.77
8.77609 98.3104
8.9551 89.5966
9.13412 82.6483
9.31318 84.3823
9.49226 84.8595
9.67134 95.3141
9.85047 101.193
10.0296 365.55
10.2088 358.327
10.388 105.812
10.5672 512.633
10.7465 86.0407
10.9257 77.7013
11.105 71.3057
11.2844 68.7182
11.4637 64.8258
11.6431 63.3944
11.8225 62.5232
12.002 64.4537
12.1814 155.584
12.3609 67.2887
12.5405 64.656
12.72 68.3345
12.8996 71.001
13.0792 80.3441
13.2589 249.266
13.4386 120.547
13.6183 258.72
13.7981 93.6611
13.9779 75.5896
14.1577 71.6346
14.3376 70.2217
14.5175 68.754
14.6974 70.7072
14.8774 114.391
15.0574 139.308
15.2374 69.6275
15.4175 66.4449
15.5976 65.932
15.7778 97.0296
15.958 149.63
16.1382 61.3708
16.3185 57.6049
16.4988 55.314
16.6792 54.2255
16.8596 54.9608
17.04 56.0772
17.2205 67.4836
17.401 69.8219
17.5815 59.0796
17.7622 61.217
17.9428 74.3701
18.1237 142.392
18.3044 91.3314
18.4852 75.1004
18.666 60.1904
18.8469 57.9414
19.0278 56.8447
19.2088 59.4256
19.3898 76.2813
19.5709 53.8621
19.752 53.351
19.9332 56.4686
20.1144 69.6755
20.2957 64.144
20.477 53.1174
20.6586 49.6867
20.84 48.8625
21.0215 48.6173
21.203 50.7911
21.3846 48.6653
21.5662 48.968
21.7479 52.9811
21.9297 64.9089
22.1115 55.9647
22.2933 49.6753
22.4753 48.6856
22.6572 48.9906
22.8393 52.1791
23.0214 57.1248
23.2037 48.7906
23.3859 49.7228
23.5682 57.1145
23.7505 47.8416
23.9329 45.2508
24.1154 44.0496
24.2979 43.47
24.4805 42.9452
24.6631 42.6917
24.8458 42.0886
25.0286 42.8654
25.2114 44.6151
25.3943 44.4838
25.5773 40.867
25.7605 40.2261
25.9436 40.7183
26.1268 41.6471
26.31 40.1029
26.4933 40.7401
26.6767 42.1726
26.8601 40.3235
27.0437 38.7506
27.2272 38.2773
27.4109 38.2658
27.5946 38.2402
27.7784 37.7174
27.9623 38.4749
28.1462 38.7517
28.3304 37.0205
28.5145 35.9119
28.6987 35.5797
28.8829 35.4149
29.0673 34.6175
29.2517 34.2818
29.4361 34.1069
29.6207 33.1266
29.8053 32.8723
29.99 32.4437
30.1748 32.3671
30.3597 32.1636
30.5447 32.1716
30.7297 32.1609
30.915 31.5712
31.1002 31.0406
31.2855 30.8698
31.4708 30.7028
31.6563 30.3045
31.8418 30.0626
32.0275 29.7951
32.2132 29.3402
32.399 28.8237
32.5848 28.4051
32.7708 28.0535
32.9569 27.9305
33.143 27.7431
33.3293 27.2953
33.5158 26.9316
33.7022 26.568
33.8887 26.2483
34.0753 25.9239
34.262 25.5736
34.4488 25.2425
34.6357 24.8704
34.8227 24.6695
35.0098 24.4814
35.1969 24.1277
35.3842 23.9281
35.5716 23.6839
35.759 23.4064
35.9468 23.0661
36.1345 22.8808
36.3222 22.6281
36.5101 22.3018
36.6981 22.0673
36.8861 21.7328
37.0743 21.3939
37.2626 21.1654
37.451 20.9454
37.6395 20.7896
37.8281 20.3689
38.0168 20.1614
38.2056 19.874
38.3945 19.6255
38.5837 19.3925
38.7728 19.1639
38.9621 18.8851
39.1514 18.7229
39.3409 18.4249
39.5304 18.2405
39.7201 18.0097
39.9099 17.8134
40.0999 17.5301
40.2899 17.3563
40.48 17.0836
40.6703 16.8938
40.8607 16.6823
41.0512 16.4788
41.242 16.2148
41.4327 16.001
41.6236 15.7534
41.8146 15.6457
42.0057 15.3633
42.1969 15.1747
42.3882 14.9947
42.5797 14.8086
42.7713 14.6066
42.963 14.3576
43.1549 14.1661
43.3468 13.9394
43.5389 13.7709
43.7312 13.6149
43.9237 13.4326
44.1162 13.1756
44.3088 13.0786
44.5016 12.8164
44.6945 12.7066
44.8875 12.4859
45.0806 12.3278
45.2739 12.2005
45.4673 12.0329
45.6609 11.8531
45.8546 11.6449
46.0484 11.467
46.2424 11.3149
46.4365 11.1668
46.631 11.0019
46.8254 10.8666
47.0199 10.6582
47.2146 10.4977
47.4095 10.3601
47.6044 10.1898
47.7996 10.0669
47.9948 9.93419
48.1902 9.76175
48.3858 9.65799
48.5815 9.51335
48.7774 9.35646
48.9734 9.24467
49.1696 9.09093
49.3661 8.93709
49.5626 8.79851
49.7592 8.64949
49.956 8.57118
50.153 8.39457
50.3501 8.25646
50.5474 8.14657
50.7448 8.03053
50.9424 7.92121
51.1402 7.79346
51.3381 7.66526
51.5362 7.56194
51.7344 7.409
51.9328 7.27073
52.1316 7.18553
52.3304 7.02437
52.5293 6.91162
52.7284 6.79986
52.9276 6.69596
53.1271 6.60731
53.3267 6.43286
53.5265 6.35195
53.7264 6.24031
53.9266 6.11401
54.1269 6.08558
54.3274 5.91977
54.528 5.77211
54.7289 5.65538
54.9301 5.50714
55.1314 5.34106
55.3328 5.15959
55.5344 5.00795
55.7361 4.80857

File: Ni3Fe_FD0698.xy
TT I
1.27165 7.31368
1.45013 5.73861
1.62863 4.70967
1.80712 4.90269
1.98562 4.40564
2.16411 4.58082
2.34263 4.69162
2.52115 6.80031
2.69965 8.30536
2.87818 8.64362
3.05672 10.9424
3.23527 15.0517
3.4138 18.658
3.59237 22.7712
3.77094 25.6289
3.9495 29.1938
4.12809 34.1646
4.30669 115.509
4.4853 54.8787
4.6639 55.946
4.84253 68.1937
5.02118 87.192
5.19981 430.417
5.37848 193.621
5.55716 102.36
5.73586 92.969
5.91455 95.8623
6.09328 4577.04
6.27201 80.7017
6.45075 68.9158
6.62952 62.3944
6.8083 58.7497
6.98711 55.5701
7.16591 55.6536
7.34475 69.5984
7.5236 54.2631
7.70247 56.5241
7.88135 57.3753
8.06026 62.4452
8.23919 69.1263
8.41812 84.6662
8.59709 1251.52
8.77609 97.8944
8.9551 89.4675
9.13412 82.5561
9.31318 84.3124
9.49226 85.1919
9.67134 95.8238
9.85047 101.301
10.0296 366.752
10.2088 357.722
10.388 106.05
10.5672 513.746
10.7465 86.2585
10.9257 77.6612
11.105 71.3723
11.2844 68.7661
11.4637 64.6624
11.6431 63.4269
11.8225 62.6016
12.002 64.2719
12.1814 155.786
12.3609 67.3955
12.5405 64.5998
12.72 68.1124
12.8996 71.5146
13.0792 80.1961
13.2589 248.988
13.4386 120.84
13.6183 258.784
13.7981 93.9867
13.9779 75.6709
14.1577 71.9203
14.3376 70.4593
14.5175 68.9399
14.6974 70.5695
14.8774 114.15
15.0574 139.977
15.2374 69.5087
15.4175 66.3385
15.5976 65.9068
15.7778 97.1225
15.958 149.995
16.1382 61.4329
16.3185 57.8877
16.4988 55.3446
16.6792 54.2183
16.8596 54.8964
17.04 55.9565
17.2205 67.3882
17.401 69.825
17.5815 59.1726
17.7622 61.3585
17.9428 74.2615
18.1237 142.201
18.3044 91.5369
18.4852 75.1588
18.666 60.4417
18.8469 57.873
19.0278 56.663
19.2088 59.5358
19.3898 76.1146
19.5709 54.0598
19.752 53.3035
19.9332 56.4467
20.1144 69.812
20.2957 64.2873
20.477 52.8634
20.6586 49.464
20.84 48.6476
21.0215 48.4813
21.203 50.8597
21.3846 48.7024
21.5662 48.9974
21.7479 52.7714
21.9297 64.9056
22.1115 56.0053
22.2933 49.6566
22.4753 48.6443
22.6572 48.7818
22.8393 52.1433
23.0214 56.967
23.2037 48.6365
23.3859 49.689
23.5682 57.4292
23.7505 48.0652
23.9329 45.1162
24.1154 43.9607
24.2979 43.3955
24.4805 42.7851
24.6631 42.7182
24.8458 42.2005
25.0286 42.93
25.2114 44.5843
25.3943 44.366
25.5773 40.8119
25.7605 40.3954
25.9436 40.8193
26.1268 41.7272
26.31 40.0985
26.4933 40.62
26.6767 42.0864
26.8601 40.3676
27.0437 38.8379
27.2272 38.4778
27.4109 38.3709
27.5946 38.4054
27.7784 37.8405
27.9623 38.51
28.1462 38.8155
28.3304 37.0102
28.5145 35.8885
28.6987 35.5333
28.8829 35.3545
29.0673 34.6211
29.2517 34.2705
29.4361 34.1724
29.6207 33.0756
29.8053 32.8055
29.99 32.4024
30.1748 32.3593
30.3597 32.1275
30.5447 32.2109
30.7297 32.1283
30.915 31.5644
31.1002 31.0855
31.2855 30.7992
31.4708 30.8407
31.6563 30.2023
31.8418 30.0829
32.0275 29.8544
32.2132 29.3195
32.399 28.8742
32.5848 28.3466
32.7708 28.1804
32.9569 27.9961
33.143 27.7972
33.3293 27.288
33.5158 26.9878
33.7022 26.5111
33.8887 26.2528
34.0753 25.8421
34.262 25.6567
34.4488 25.2586
34.6357 24.9279
34.8227 24.603
35.0098 24.4917
35.1969 24.1709
35.3842 23.9348
35.5716 23.6793
35.759 23.441
35.9468 23.0922
36.1345 22.8235
36.3222 22.5772
36.5101 22.3577
36.6981 22.0282
36.8861 21.8204
37.0743 21.4648
37.2626 21.1884
37.451 20.9299
37.6395 20.831
37.8281 20.4349
38.0168 20.1614
38.2056 19.8898
38.3945 19.6287
38.5837 19.4108
38.7728 19.1514
38.9621 18.8946
39.1514 18.6543
39.3409 18.4077
39.5304 18.3026
39.7201 18.0724
39.9099 17.8599
40.0999 17.5272
40.2899 17.3735
40.48 17.0941
40.6703 16.953
40.8607 16.6762
41.0512 16.5233
41.242 16.2078
41.4327 16.038
41.6236 15.8114
41.8146 15.5751
42.0057 15.3984
42.1969 15.2052
42.3882 14.9889
42.5797 14.8217
42.7713 14.5867
42.963 14.3515
43.1549 14.172
43.3468 13.9754
43.5389 13.7817
43.7312 13.6049
43.9237 13.4169
44.1162 13.2507
44.3088 13.0966
44.5016 12.886
44.6945 12.7213
44.8875 12.5041
45.0806 12.3438
45.2739 12.1655
45.4673 12.0442
45.6609 11.8287
45.8546 11.6742
46.0484 11.5048
46.2424 11.2899
46.4365 11.2043
46.631 11.0116
46.8254 10.8029
47.0199 10.6978
47.2146 10.5167
47.4095 10.381
47.6044 10.2126
47.7996 10.0454
47.9948 9.9321
48.1902 9.7842
48.3858 9.62054
48.5815 9.46697
48.7774 9.39627
48.9734 9.2063
49.1696 9.0748
49.3661 8.8958
49.5626 8.78838
49.7592 8.64215
49.956 8.57422
50.153 8.40344
50.3501 8.25762
50.5474 8.1669
50.7448 8.04228
50.9424 7.94794
51.1402 7.79515
51.3381 7.66299
51.5362 7.54947
51.7344 7.40084
51.9328 7.28463
52.1316 7.16392
52.3304 7.05965
52.5293 6.92931
52.7284 6.83506
52.9276 6.70343
53.1271 6.61411
53.3267 6.4819
53.5265 6.36825
53.7264 6.25193
53.9266 6.16648
54.1269 6.04524
54.3274 5.95111
54.528 5.77611
54.7289 5.59986
54.9301 5.49363
55.1314 5.35206
55.3328 5.12992
55.5344 4.93689
55.7361 4.77167

File: Ni3Fe_FD0699.xy
TT I
1.27165 7.25304
1.45013 6.11065
1.62863 4.9651
1.80712 5.45879
1.98562 4.46791
2.16411 4.50527
2.34263 5.46508
2.52115 7.56501
2.69965 8.23357
2.87818 8.68807
3.05672 11.2671
3.23527 15.1116
3.4138 18.5524
3.59237 23.007
3.77094 25.8013
3.9495 29.1228
4.12809 34.3672
4.30669 113.484
4.4853 54.7458
4.6639 55.6003
4.84253 68.3866
5.02118 87.9324
5.19981 431.588
5.37848 194.181
5.55716 102.559
5.73586 93.0204
5.91455 95.8591
6.09328 4587.3
6.27201 81.2303
6.45075 69.2845
6.62952 62.9499
6.8083 59.0203
6.98711 55.6161
7.16591 55.9855
7.34475 69.1437
7.5236 54.464
7.70247 56.5838
7.88135 57.4124
8.06026 62.8589
8.23919 69.355
8.41812 84.605
8.59709 1255.92
8.77609 98.0725
8.9551 89.7042
9.13412 82.8189
9.31318 84.4948
9.49226 84.971
9.67134 95.5299
9.85047 101.554
10.0296 366.573
10.2088 355.751
10.388 105.897
10.5672 513.731
10.7465 86.1285
10.9257 77.6925
11.105 71.5472
11.2844 68.6907
11.4637 64.7616
11.6431 63.5263
11.8225 62.603
12.002 64.589
12.1814 155.649
12.3609 67.1166
12.5405 64.9156
12.72 68.3304
12.8996 71.3594
13.0792 80.6991
13.2589 249.791
13.4386 120.656
13.6183 259.373
13.7981 93.7053
13.9779 75.5755
14.1577 71.8187
14.3376 70.4675
14.5175 68.8326
14.6974 70.6238
14.8774 114.437
15.0574 139.486
15.2374 69.5715
15.4175 66.2971
15.5976 66.2057
15.7778 97.1878
15.958 149.073
16.1382 61.5174
16.3185 58.0069
16.4988 55.333
16.6792 54.4072
16.8596 54.7529
17.04 55.9988
17.2205 67.4627
17.401 69.9474
17.5815 59.0836
17.7622 61.5129
17.9428 74.4896
18.1237 142.19
18.3044 91.4341
18.4852 75.0123
18.666 60.0618
18.8469 57.9561
19.0278 56.7824
19.2088 59.4934
19.3898 76.1095
19.5709 54.2025
19.752 53.3115
19.9332 56.3223
20.1144 69.9733
20.2957 64.1742
20.477 52.7896
20.6586 49.6148
20.84 48.792
21.0215 48.5606
21.203 50.9363
21.3846 48.7306
21.5662 48.9999
21.7479 52.9973
21.9297 64.8996
22.1115 55.9022
22.2933 49.5532
22.4753 48.7133
22.6572 49.0077
22.8393 52.1118
23.0214 57.1409
23.2037 48.8207
23.3859 49.8214
23.5682 57.2771
23.7505 47.7686
23.9329 45.2867
24.1154 43.8919
24.2979 43.2194
24.4805 42.8366
24.6631 42.8788
24.8458 42.2969
25.0286 43.0007
25.2114 44.6198
25.3943 44.4752
25.5773 40.8242
25.7605 40.3288
25.9436 40.9285
26.1268 41.6405
26.31 40.0316
26.4933 40.818
26.6767 42.0876
26.8601 40.3135
27.0437 38.7497
27.2272 38.5543
27.4109 38.4555
27.5946 38.2482
27.7784 37.8419
27.9623 38.4441
28.1462 38.7654
28.3304 36.9535
28.5145 35.839
28.6987 35.591
28.8829 35.4019
29.0673 34.5446
29.2517 34.3154
29.4361 34.1631
29.6207 33.0963
29.8053 32.8696
29.99 32.5446
30.1748 32.3512
30.3597 32.0748
30.5447 32.1628
30.7297 32.2076
30.915 31.5362
31.1002 31.1375
31.2855 30.7852
31.4708 30.7161
31.6563 30.2168
31.8418 30.0735
32.0275 29.8465
32.2132 29.2619
32.399 28.9226
32.5848 28.4477
32.7708 28.0894
32.9569 28.1083
33.143 27.7411
33.3293 27.36
33.5158 26.9303
33.7022 26.5615
33.8887 26.2156
34.0753 25.9977
34.262 25.6149
34.4488 25.1739
34.6357 24.9626
34.8227 24.6708
35.0098 24.4723
35.1969 24.2355
35.3842 23.9562
35.5716 23.6569
35.759 23.4142
35.9468 23.0699
36.1345 22.8333
36.3222 22.5836
36.5101 22.3673
36.6981 22.1275
36.8861 21.771
37.0743 21.5113
37.2626 21.2393
37.451 20.929
37.6395 20.8319
37.8281 20.4364
38.0168 20.2026
38.2056 19.9363
38.3945 19.6448
38.5837 19.4263
38.7728 19.0872
38.9621 18.9077
39.1514 18.6927
39.3409 18.438
39.5304 18.1782
39.7201 18.0167
39.9099 17.8074
40.0999 17.6061
40.2899 17.333
40.48 17.0878
40.6703 16.8331
40.8607 16.6709
41.0512 16.4561
41.242 16.2229
41.4327 16.0605
41.6236 15.7937
41.8146 15.6658
42.0057 15.3925
42.1969 15.2042
42.3882 15.0414
42.5797 14.7913
42.7713 14.6288
42.963 14.4114
43.1549 14.1983
43.3468 13.9741
43.5389 13.8253
43.7312 13.5806
43.9237 13.5288
44.1162 13.2414
44.3088 13.0977
44.5016 12.876
44.6945 12.7363
44.8875 12.526
45.0806 12.3375
45.2739 12.1863
45.4673 12.0675
45.6609 11.8298
45.8546 11.671
46.0484 11.4834
46.2424 11.3411
46.4365 11.196
46.631 11.0082
46.8254 10.8402
47.0199 10.688
47.2146 10.499
47.4095 10.3717
47.6044 10.2414
47.7996 10.0624
47.9948 9.91252
48.1902 9.77529
48.3858 9.62904
48.5815 9.50861
48.7774 9.4144
48.9734 9.25365
49.1696 9.09622
49.3661 8.9503
49.5626 8.80083
49.7592 8.68616
49.956 8.56143
50.153 8.427
50.3501 8.27555
50.5474 8.18265
50.7448 8.05636
50.9424 7.90291
51.1402 7.82276
51.3381 7.66754
51.5362 7.55254
51.7344 7.41167
51.9328 7.26612
52.1316 7.15747
52.3304 7.05333
52.5293 6.92696
52.7284 6.81399
52.9276 6.70281
53.1271 6.61641
53.3267 6.508
53.5265 6.37522
53.7264 6.23211
53.9266 6.16769
54.1269 6.03387
54.3274 5.94862
54.528 5.82019
54.7289 5.6586
54.9301 5.471
55.1314 5.35471
55.3328 5.1233
55.5344 4.98012
55.7361 4.79558