Folder: NiFe_MOF_catalyst_paper/XRD (part 64)

File: Ni3Fe_FD0333.xy
TT I
1.27165 7.86666
1.45013 6.76792
1.62863 5.71404
1.80712 4.78031
1.98562 5.01478
2.16411 4.60753
2.34263 5.07101
2.52115 6.4351
2.69965 7.57256
2.87818 8.66572
3.05672 11.4235
3.23527 15.658
3.4138 19.1471
3.59237 24.0697
3.77094 26.8296
3.9495 30.1442
4.12809 35.8716
4.30669 165.352
4.4853 61.7756
4.6639 57.1521
4.84253 69.5576
5.02118 91.5079
5.19981 566.384
5.37848 227.496
5.55716 106.642
5.73586 96.0559
5.91455 102.479
6.09328 4071.39
6.27201 86.6306
6.45075 69.4901
6.62952 63.994
6.8083 59.9442
6.98711 57.2865
7.16591 56.9347
7.34475 82.3627
7.5236 55.8831
7.70247 57.7539
7.88135 59.1335
8.06026 64.3818
8.23919 71.8411
8.41812 88.9398
8.59709 1164.65
8.77609 104.83
8.9551 92.7296
9.13412 84.6398
9.31318 85.8932
9.49226 87.2571
9.67134 99.4431
9.85047 103.641
10.0296 427.276
10.2088 491.814
10.388 109.829
10.5672 481.616
10.7465 89.8715
10.9257 80.266
11.105 73.6898
11.2844 71.508
11.4637 66.9157
11.6431 65.6461
11.8225 64.4923
12.002 66.1011
12.1814 148.753
12.3609 71.489
12.5405 66.2485
12.72 71.1062
12.8996 73.3462
13.0792 82.5898
13.2589 243.817
13.4386 133.565
13.6183 240.761
13.7981 103.037
13.9779 78.0686
14.1577 74.3878
14.3376 73.1541
14.5175 71.1951
14.6974 72.842
14.8774 118.43
15.0574 156.596
15.2374 72.7097
15.4175 68.6992
15.5976 68.3328
15.7778 101.793
15.958 165.392
16.1382 64.0346
16.3185 60.1591
16.4988 57.1932
16.6792 56.1037
16.8596 56.7236
17.04 57.86
17.2205 68.8454
17.401 74.3609
17.5815 60.9962
17.7622 63.2842
17.9428 78.8294
18.1237 139.914
18.3044 91.6707
18.4852 80.3951
18.666 62.155
18.8469 59.8499
19.0278 58.6103
19.2088 61.8219
19.3898 77.3099
19.5709 55.9964
19.752 55.0773
19.9332 58.4897
20.1144 71.5865
20.2957 64.7543
20.477 55.5775
20.6586 51.203
20.84 50.09
21.0215 50.2213
21.203 52.0458
21.3846 50.671
21.5662 50.552
21.7479 54.6917
21.9297 66.4115
22.1115 57.4499
22.2933 51.3415
22.4753 50.3604
22.6572 50.6981
22.8393 53.6543
23.0214 59.1408
23.2037 50.5318
23.3859 51.5983
23.5682 57.6436
23.7505 49.9772
23.9329 46.585
24.1154 45.4683
24.2979 44.9252
24.4805 44.0326
24.6631 44.1442
24.8458 43.5581
25.0286 44.3105
25.2114 46.0847
25.3943 46.0491
25.5773 42.2286
25.7605 41.7216
25.9436 42.1907
26.1268 42.9994
26.31 41.4548
26.4933 42.0795
26.6767 43.3908
26.8601 41.7731
27.0437 39.9975
27.2272 39.7717
27.4109 39.465
27.5946 39.5619
27.7784 40.1219
27.9623 39.7421
28.1462 39.9188
28.3304 38.3709
28.5145 36.9941
28.6987 36.734
28.8829 36.669
29.0673 36.3543
29.2517 35.4251
29.4361 35.2286
29.6207 34.2672
29.8053 33.8973
29.99 33.5229
30.1748 33.3365
30.3597 33.1886
30.5447 33.1116
30.7297 33.1355
30.915 32.6136
31.1002 32.1276
31.2855 31.8319
31.4708 31.7603
31.6563 31.3738
31.8418 31.0531
32.0275 30.8268
32.2132 30.2502
32.399 29.8087
32.5848 29.4013
32.7708 29.0796
32.9569 28.7799
33.143 28.5872
33.3293 28.1861
33.5158 27.8094
33.7022 27.4325
33.8887 27.1552
34.0753 26.794
34.262 26.4185
34.4488 26.0306
34.6357 25.7893
34.8227 25.4159
35.0098 25.1573
35.1969 24.9208
35.3842 24.7019
35.5716 24.5222
35.759 24.1747
35.9468 23.8351
36.1345 23.5726
36.3222 23.3591
36.5101 23.0398
36.6981 22.8105
36.8861 22.4358
37.0743 22.1902
37.2626 21.899
37.451 21.5893
37.6395 21.4251
37.8281 21.095
38.0168 20.754
38.2056 20.5767
38.3945 20.1968
38.5837 19.9502
38.7728 19.7756
38.9621 19.5927
39.1514 19.1938
39.3409 19.0109
39.5304 18.7882
39.7201 18.5892
39.9099 18.386
40.0999 18.0408
40.2899 17.8971
40.48 17.6335
40.6703 17.3738
40.8607 17.2386
41.0512 17.0382
41.242 16.7072
41.4327 16.5571
41.6236 16.2877
41.8146 16.1458
42.0057 15.8689
42.1969 15.7127
42.3882 15.4482
42.5797 15.3247
42.7713 15.0177
42.963 14.8559
43.1549 14.6029
43.3468 14.4251
43.5389 14.2877
43.7312 14.037
43.9237 13.8259
44.1162 13.6548
44.3088 13.3934
44.5016 13.2856
44.6945 13.1023
44.8875 12.9201
45.0806 12.7024
45.2739 12.5229
45.4673 12.3851
45.6609 12.1854
45.8546 12.0584
46.0484 11.8944
46.2424 11.6677
46.4365 11.5323
46.631 11.3584
46.8254 11.1851
47.0199 11.0145
47.2146 10.8441
47.4095 10.699
47.6044 10.5068
47.7996 10.371
47.9948 10.1687
48.1902 10.0537
48.3858 9.9366
48.5815 9.77796
48.7774 9.64061
48.9734 9.53674
49.1696 9.35951
49.3661 9.2517
49.5626 9.07039
49.7592 8.9676
49.956 8.84308
50.153 8.69692
50.3501 8.53558
50.5474 8.41966
50.7448 8.28921
50.9424 8.18101
51.1402 8.01481
51.3381 7.8925
51.5362 7.75347
51.7344 7.62415
51.9328 7.51937
52.1316 7.37605
52.3304 7.29376
52.5293 7.12641
52.7284 7.01188
52.9276 6.91735
53.1271 6.81045
53.3267 6.6941
53.5265 6.56601
53.7264 6.46882
53.9266 6.30114
54.1269 6.19697
54.3274 6.12249
54.528 5.94641
54.7289 5.77067
54.9301 5.63315
55.1314 5.51012
55.3328 5.31766
55.5344 5.08861
55.7361 4.92769

File: Ni3Fe_FD0334.xy
TT I
1.27165 7.15068
1.45013 6.70144
1.62863 5.34078
1.80712 5.05297
1.98562 5.02505
2.16411 4.83877
2.34263 4.39217
2.52115 5.86389
2.69965 7.60812
2.87818 8.07398
3.05672 11.323
3.23527 14.7725
3.4138 18.783
3.59237 23.8163
3.77094 26.2948
3.9495 30.1861
4.12809 34.8452
4.30669 161.665
4.4853 60.998
4.6639 56.8528
4.84253 69.7394
5.02118 91.9098
5.19981 567.14
5.37848 226.288
5.55716 106.93
5.73586 96.4184
5.91455 101.943
6.09328 4076.05
6.27201 86.4699
6.45075 69.656
6.62952 64.1266
6.8083 59.9665
6.98711 57.2411
7.16591 56.937
7.34475 81.5738
7.5236 55.871
7.70247 57.2451
7.88135 59.3256
8.06026 64.2738
8.23919 71.833
8.41812 88.8339
8.59709 1163.6
8.77609 104.785
8.9551 92.2285
9.13412 84.4989
9.31318 85.5984
9.49226 87.3077
9.67134 99.0782
9.85047 103.458
10.0296 427.214
10.2088 493.11
10.388 109.658
10.5672 483.093
10.7465 89.6167
10.9257 80.3634
11.105 73.9758
11.2844 71.2936
11.4637 66.8209
11.6431 65.5222
11.8225 64.2312
12.002 66.4012
12.1814 148.467
12.3609 71.4767
12.5405 66.4954
12.72 71.0891
12.8996 73.0229
13.0792 82.4903
13.2589 244.491
13.4386 133.098
13.6183 240.815
13.7981 102.628
13.9779 78.3133
14.1577 74.4737
14.3376 73.1221
14.5175 71.0341
14.6974 72.7112
14.8774 118.324
15.0574 156.051
15.2374 72.3467
15.4175 68.4184
15.5976 68.0008
15.7778 101.813
15.958 164.767
16.1382 63.9339
16.3185 60.1049
16.4988 57.1309
16.6792 56.0321
16.8596 56.7026
17.04 57.6034
17.2205 68.9018
17.401 74.0558
17.5815 60.9809
17.7622 63.2201
17.9428 78.6379
18.1237 140.008
18.3044 91.5904
18.4852 80.2697
18.666 62.2699
18.8469 59.846
19.0278 58.5487
19.2088 61.9489
19.3898 77.4265
19.5709 55.9231
19.752 55.0469
19.9332 58.3664
20.1144 71.3667
20.2957 64.4734
20.477 55.44
20.6586 51.2004
20.84 50.2072
21.0215 50.221
21.203 52.0832
21.3846 50.6515
21.5662 50.4456
21.7479 54.4929
21.9297 66.1484
22.1115 57.2442
22.2933 51.3212
22.4753 50.443
22.6572 50.664
22.8393 53.5931
23.0214 59.1242
23.2037 50.4588
23.3859 51.4832
23.5682 57.7999
23.7505 50.1024
23.9329 46.6263
24.1154 45.3894
24.2979 44.7001
24.4805 44.273
24.6631 44.1897
24.8458 43.6151
25.0286 44.2818
25.2114 46.0735
25.3943 46.0205
25.5773 42.1494
25.7605 41.6264
25.9436 42.1724
26.1268 42.9511
26.31 41.4139
26.4933 41.9997
26.6767 43.3247
26.8601 41.7838
27.0437 40.0466
27.2272 39.7251
27.4109 39.487
27.5946 39.5473
27.7784 39.0342
27.9623 39.4225
28.1462 39.893
28.3304 38.3682
28.5145 37.1051
28.6987 36.7335
28.8829 36.3938
29.0673 35.6957
29.2517 35.312
29.4361 35.2258
29.6207 34.1777
29.8053 33.9096
29.99 33.5518
30.1748 33.3745
30.3597 33.3007
30.5447 33.1469
30.7297 33.0855
30.915 32.5783
31.1002 31.9881
31.2855 31.7439
31.4708 31.7353
31.6563 31.311
31.8418 30.9542
32.0275 30.7725
32.2132 30.2134
32.399 29.7651
32.5848 29.3648
32.7708 28.9771
32.9569 28.8747
33.143 28.6666
33.3293 28.2467
33.5158 27.8343
33.7022 27.3566
33.8887 27.0573
34.0753 26.7511
34.262 26.502
34.4488 26.0725
34.6357 25.7845
34.8227 25.4025
35.0098 25.1299
35.1969 24.9204
35.3842 24.6875
35.5716 24.5134
35.759 24.2082
35.9468 23.7762
36.1345 23.5384
36.3222 23.3026
36.5101 23.1288
36.6981 22.789
36.8861 22.4678
37.0743 22.1633
37.2626 21.9505
37.451 21.6354
37.6395 21.4061
37.8281 21.1417
38.0168 20.7984
38.2056 20.5394
38.3945 20.2697
38.5837 19.9023
38.7728 19.7834
38.9621 19.5288
39.1514 19.2657
39.3409 18.9835
39.5304 18.7468
39.7201 18.5784
39.9099 18.3043
40.0999 18.1283
40.2899 17.8866
40.48 17.6605
40.6703 17.4565
40.8607 17.2312
41.0512 16.9334
41.242 16.7485
41.4327 16.5319
41.6236 16.2724
41.8146 16.1065
42.0057 15.8188
42.1969 15.614
42.3882 15.4591
42.5797 15.206
42.7713 15.0524
42.963 14.8167
43.1549 14.61
43.3468 14.3691
43.5389 14.2133
43.7312 14.0193
43.9237 13.8386
44.1162 13.7001
44.3088 13.4758
44.5016 13.2702
44.6945 13.0473
44.8875 12.8794
45.0806 12.7256
45.2739 12.5664
45.4673 12.3906
45.6609 12.1678
45.8546 12.0416
46.0484 11.8033
46.2424 11.6803
46.4365 11.5366
46.631 11.3152
46.8254 11.1471
47.0199 10.9942
47.2146 10.8935
47.4095 10.65
47.6044 10.5409
47.7996 10.3796
47.9948 10.2129
48.1902 10.079
48.3858 9.94304
48.5815 9.79705
48.7774 9.66802
48.9734 9.54438
49.1696 9.3492
49.3661 9.24352
49.5626 9.07421
49.7592 8.94299
49.956 8.80146
50.153 8.7188
50.3501 8.52482
50.5474 8.38751
50.7448 8.27671
50.9424 8.15543
51.1402 8.00569
51.3381 7.88186
51.5362 7.80578
51.7344 7.61411
51.9328 7.50419
52.1316 7.36224
52.3304 7.30304
52.5293 7.13431
52.7284 7.03872
52.9276 6.90494
53.1271 6.82331
53.3267 6.66917
53.5265 6.55682
53.7264 6.46422
53.9266 6.3035
54.1269 6.26351
54.3274 6.0903
54.528 5.94108
54.7289 5.79312
54.9301 5.62343
55.1314 5.542
55.3328 5.31753
55.5344 5.1188
55.7361 4.94336

File: Ni3Fe_FD0335.xy
TT I
1.27165 7.76048
1.45013 6.18143
1.62863 5.5823
1.80712 4.99802
1.98562 4.56756
2.16411 4.5878
2.34263 4.90768
2.52115 6.6427
2.69965 7.3651
2.87818 8.66312
3.05672 11.1806
3.23527 15.1933
3.4138 19.3558
3.59237 23.9906
3.77094 26.5056
3.9495 30.0908
4.12809 35.729
4.30669 160.401
4.4853 60.5481
4.6639 57.0186
4.84253 69.4374
5.02118 91.6055
5.19981 566.54
5.37848 226.206
5.55716 106.549
5.73586 96.0944
5.91455 101.632
6.09328 4072.34
6.27201 85.8473
6.45075 69.662
6.62952 64.3917
6.8083 60.3246
6.98711 56.9484
7.16591 56.4662
7.34475 81.2661
7.5236 55.7554
7.70247 57.5502
7.88135 59.4357
8.06026 63.9279
8.23919 71.6087
8.41812 88.8875
8.59709 1162.17
8.77609 104.862
8.9551 92.6176
9.13412 84.6508
9.31318 85.9098
9.49226 87.2368
9.67134 98.8859
9.85047 103.545
10.0296 429.029
10.2088 495.746
10.388 109.138
10.5672 483.272
10.7465 89.6626
10.9257 80.1847
11.105 73.7006
11.2844 71.302
11.4637 66.6091
11.6431 65.3415
11.8225 64.1828
12.002 66.0214
12.1814 148.275
12.3609 71.6714
12.5405 66.2857
12.72 70.8368
12.8996 73.1768
13.0792 82.552
13.2589 243.963
13.4386 133.066
13.6183 240.906
13.7981 102.702
13.9779 78.1665
14.1577 74.2403
14.3376 73.1374
14.5175 71.0951
14.6974 72.7594
14.8774 118.347
15.0574 156.413
15.2374 72.2825
15.4175 68.2388
15.5976 67.9697
15.7778 101.665
15.958 165.309
16.1382 63.7921
16.3185 60.0329
16.4988 57.0101
16.6792 56.1167
16.8596 56.8686
17.04 57.7864
17.2205 68.9847
17.401 74.474
17.5815 60.9505
17.7622 63.0742
17.9428 78.5057
18.1237 140.186
18.3044 91.6077
18.4852 80.7215
18.666 62.1742
18.8469 59.7127
19.0278 58.6286
19.2088 62.0157
19.3898 77.342
19.5709 55.9104
19.752 54.8728
19.9332 58.3852
20.1144 71.3771
20.2957 64.5517
20.477 55.3857
20.6586 51.1136
20.84 50.3597
21.0215 50.2348
21.203 52.1649
21.3846 50.5776
21.5662 50.4895
21.7479 54.6341
21.9297 66.4538
22.1115 57.1024
22.2933 51.4681
22.4753 50.3333
22.6572 50.599
22.8393 53.531
23.0214 58.9612
23.2037 50.485
23.3859 51.6423
23.5682 57.687
23.7505 49.9103
23.9329 46.6641
24.1154 45.3089
24.2979 44.6362
24.4805 44.2003
24.6631 44.1629
24.8458 43.5724
25.0286 44.2844
25.2114 45.9783
25.3943 46.0939
25.5773 42.0928
25.7605 41.6307
25.9436 42.1594
26.1268 42.7709
26.31 41.4481
26.4933 41.962
26.6767 43.5212
26.8601 41.5932
27.0437 40.118
27.2272 39.5861
27.4109 39.4664
27.5946 39.4849
27.7784 39.051
27.9623 39.5187
28.1462 39.9429
28.3304 38.4202
28.5145 37.02
28.6987 36.5784
28.8829 36.3478
29.0673 35.68
29.2517 35.4222
29.4361 35.1861
29.6207 34.0544
29.8053 33.987
29.99 33.6429
30.1748 33.4451
30.3597 33.1248
30.5447 33.063
30.7297 33.1071
30.915 32.6393
31.1002 32.0388
31.2855 31.8293
31.4708 31.7347
31.6563 31.2839
31.8418 31.0497
32.0275 30.7969
32.2132 30.328
32.399 29.8267
32.5848 29.2756
32.7708 28.9314
32.9569 28.8596
33.143 28.5743
33.3293 28.2182
33.5158 27.7871
33.7022 27.4468
33.8887 26.9975
34.0753 26.7252
34.262 26.4035
34.4488 26.1147
34.6357 25.6895
34.8227 25.3675
35.0098 25.2276
35.1969 24.8591
35.3842 24.6673
35.5716 24.4659
35.759 24.2069
35.9468 23.7441
36.1345 23.5881
36.3222 23.3157
36.5101 23.097
36.6981 22.8021
36.8861 22.4194
37.0743 22.1091
37.2626 21.8891
37.451 21.6064
37.6395 21.4373
37.8281 21.0419
38.0168 20.8511
38.2056 20.5447
38.3945 20.2691
38.5837 20.043
38.7728 19.7005
38.9621 19.4909
39.1514 19.2429
39.3409 19.016
39.5304 18.7245
39.7201 18.5974
39.9099 18.3519
40.0999 18.0855
40.2899 17.877
40.48 17.6335
40.6703 17.4083
40.8607 17.2451
41.0512 16.9863
41.242 16.7163
41.4327 16.5134
41.6236 16.2931
41.8146 16.1396
42.0057 15.8708
42.1969 15.6532
42.3882 15.4777
42.5797 15.2564
42.7713 15.0641
42.963 14.803
43.1549 14.6644
43.3468 14.408
43.5389 14.2449
43.7312 14.0437
43.9237 13.8591
44.1162 13.6271
44.3088 13.4469
44.5016 13.2529
44.6945 13.1145
44.8875 12.9109
45.0806 12.7328
45.2739 12.5436
45.4673 12.3743
45.6609 12.2163
45.8546 12.0489
46.0484 11.8033
46.2424 11.6943
46.4365 11.5124
46.631 11.3123
46.8254 11.1597
47.0199 10.983
47.2146 10.8676
47.4095 10.6616
47.6044 10.5248
47.7996 10.3572
47.9948 10.2267
48.1902 10.0556
48.3858 9.90376
48.5815 9.81298
48.7774 9.6279
48.9734 9.52182
49.1696 9.37571
49.3661 9.22354
49.5626 9.07942
49.7592 8.93054
49.956 8.81726
50.153 8.7006
50.3501 8.51884
50.5474 8.4221
50.7448 8.27764
50.9424 8.13739
51.1402 8.0093
51.3381 7.88403
51.5362 7.73315
51.7344 7.64106
51.9328 7.50259
52.1316 7.36855
52.3304 7.26167
52.5293 7.12317
52.7284 6.98644
52.9276 6.87302
53.1271 6.83106
53.3267 6.68126
53.5265 6.56578
53.7264 6.42147
53.9266 6.32445
54.1269 6.23343
54.3274 6.09077
54.528 5.96017
54.7289 5.76894
54.9301 5.62603
55.1314 5.48548
55.3328 5.32171
55.5344 5.06671
55.7361 4.96298

File: Ni3Fe_FD0336.xy
TT I
1.27165 8.06938
1.45013 6.32837
1.62863 5.73202
1.80712 5.19949
1.98562 5.09094
2.16411 4.86285
2.34263 5.57549
2.52115 6.16913
2.69965 6.68832
2.87818 8.86305
3.05672 11.2515
3.23527 15.4152
3.4138 19.016
3.59237 23.9165
3.77094 26.457
3.9495 30.0962
4.12809 34.7833
4.30669 157.402
4.4853 60.3961
4.6639 56.9492
4.84253 69.609
5.02118 91.7602
5.19981 571.378
5.37848 224.682
5.55716 106.121
5.73586 96.3382
5.91455 101.575
6.09328 4088.14
6.27201 85.9088
6.45075 69.4519
6.62952 64.1582
6.8083 59.7847
6.98711 56.9219
7.16591 56.4842
7.34475 80.7821
7.5236 56.2048
7.70247 57.5019
7.88135 59.5852
8.06026 63.862
8.23919 71.4154
8.41812 88.7013
8.59709 1165.51
8.77609 104.863
8.9551 92.7411
9.13412 84.5868
9.31318 85.5439
9.49226 87.5073
9.67134 98.9881
9.85047 103.4
10.0296 429.853
10.2088 490.92
10.388 109.639
10.5672 484.427
10.7465 89.4776
10.9257 80.0275
11.105 73.6395
11.2844 71.4975
11.4637 66.6105
11.6431 65.5143
11.8225 64.3349
12.002 66.121
12.1814 148.896
12.3609 71.6276
12.5405 66.6294
12.72 70.8941
12.8996 73.073
13.0792 82.4312
13.2589 244.602
13.4386 133.057
13.6183 241.929
13.7981 102.415
13.9779 78.1597
14.1577 74.323
14.3376 72.9708
14.5175 71.0157
14.6974 72.7335
14.8774 119.03
15.0574 155.73
15.2374 72.4896
15.4175 68.3511
15.5976 68.1825
15.7778 102.0
15.958 164.892
16.1382 63.8846
16.3185 60.0116
16.4988 57.019
16.6792 56.0335
16.8596 56.6948
17.04 57.7669
17.2205 68.9511
17.401 74.3336
17.5815 61.051
17.7622 63.2525
17.9428 78.6799
18.1237 139.892
18.3044 91.6151
18.4852 80.2623
18.666 62.3822
18.8469 59.7814
19.0278 58.6021
19.2088 62.0176
19.3898 77.4464
19.5709 56.0433
19.752 54.949
19.9332 58.4543
20.1144 71.4137
20.2957 64.3991
20.477 55.3731
20.6586 51.1203
20.84 50.3242
21.0215 50.1191
21.203 52.2016
21.3846 50.4605
21.5662 50.4418
21.7479 54.64
21.9297 66.4923
22.1115 57.2805
22.2933 51.4676
22.4753 50.2478
22.6572 50.6949
22.8393 53.6833
23.0214 58.9561
23.2037 50.4192
23.3859 51.4867
23.5682 57.7064
23.7505 49.9586
23.9329 46.6492
24.1154 45.3714
24.2979 44.8146
24.4805 44.2548
24.6631 44.2493
24.8458 43.5518
25.0286 44.215
25.2114 46.0381
25.3943 45.961
25.5773 42.1976
25.7605 41.7941
25.9436 42.1319
26.1268 42.9053
26.31 41.4917
26.4933 42.0477
26.6767 43.3795
26.8601 41.5713
27.0437 39.9273
27.2272 39.6143
27.4109 39.5863
27.5946 39.5645
27.7784 38.9572
27.9623 39.4973
28.1462 39.9691
28.3304 38.3984
28.5145 37.0244
28.6987 36.7558
28.8829 36.4028
29.0673 35.7495
29.2517 35.3581
29.4361 35.0673
29.6207 34.0176
29.8053 33.7467
29.99 33.6427
30.1748 33.4238
30.3597 33.3553
30.5447 33.1836
30.7297 33.1015
30.915 32.5377
31.1002 32.065
31.2855 31.7414
31.4708 31.7051
31.6563 31.2806
31.8418 31.0356
32.0275 30.8683
32.2132 30.2441
32.399 29.7425
32.5848 29.287
32.7708 28.9964
32.9569 28.914
33.143 28.4558
33.3293 28.2527
33.5158 27.8587
33.7022 27.3205
33.8887 27.0792
34.0753 26.7121
34.262 26.4354
34.4488 26.0371
34.6357 25.672
34.8227 25.4333
35.0098 25.2115
35.1969 24.8073
35.3842 24.6778
35.5716 24.5665
35.759 24.1485
35.9468 23.7457
36.1345 23.5787
36.3222 23.3518
36.5101 23.0716
36.6981 22.7059
36.8861 22.48
37.0743 22.1005
37.2626 21.8816
37.451 21.5776
37.6395 21.4417
37.8281 21.0234
38.0168 20.7774
38.2056 20.5254
38.3945 20.2163
38.5837 20.0234
38.7728 19.7626
38.9621 19.5641
39.1514 19.1961
39.3409 19.0309
39.5304 18.7529
39.7201 18.586
39.9099 18.4111
40.0999 18.0714
40.2899 17.8517
40.48 17.6142
40.6703 17.3846
40.8607 17.221
41.0512 17.0172
41.242 16.754
41.4327 16.5381
41.6236 16.3033
41.8146 16.1165
42.0057 15.8696
42.1969 15.6337
42.3882 15.4729
42.5797 15.219
42.7713 15.033
42.963 14.811
43.1549 14.6537
43.3468 14.405
43.5389 14.2175
43.7312 14.0138
43.9237 13.7904
44.1162 13.6232
44.3088 13.4495
44.5016 13.2609
44.6945 13.0958
44.8875 12.8921
45.0806 12.7508
45.2739 12.5022
45.4673 12.3535
45.6609 12.1701
45.8546 12.0539
46.0484 11.9069
46.2424 11.6547
46.4365 11.487
46.631 11.3445
46.8254 11.1699
47.0199 11.0016
47.2146 10.8509
47.4095 10.697
47.6044 10.525
47.7996 10.388
47.9948 10.2343
48.1902 10.0845
48.3858 9.93135
48.5815 9.8116
48.7774 9.62062
48.9734 9.48637
49.1696 9.35005
49.3661 9.23757
49.5626 9.04071
49.7592 8.93276
49.956 8.83039
50.153 8.67601
50.3501 8.55218
50.5474 8.40293
50.7448 8.29551
50.9424 8.13689
51.1402 8.02056
51.3381 7.8904
51.5362 7.74801
51.7344 7.65054
51.9328 7.49103
52.1316 7.3548
52.3304 7.28184
52.5293 7.09105
52.7284 7.01365
52.9276 6.87727
53.1271 6.81941
53.3267 6.67341
53.5265 6.52881
53.7264 6.47088
53.9266 6.28076
54.1269 6.22352
54.3274 6.12606
54.528 5.96403
54.7289 5.80968
54.9301 5.6237
55.1314 5.47174
55.3328 5.2835
55.5344 5.08772
55.7361 4.96233

File: Ni3Fe_FD0337.xy
TT I
1.27165 8.08175
1.45013 6.62953
1.62863 5.3898
1.80712 4.64503
1.98562 5.12299
2.16411 4.38581
2.34263 5.38833
2.52115 6.08505
2.69965 7.2718
2.87818 7.94664
3.05672 10.9844
3.23527 15.1677
3.4138 19.1601
3.59237 23.9742
3.77094 26.3013
3.9495 30.4096
4.12809 35.7398
4.30669 152.992
4.4853 60.4598
4.6639 57.1708
4.84253 70.0847
5.02118 92.1247
5.19981 581.185
5.37848 224.734
5.55716 106.917
5.73586 96.4587
5.91455 102.044
6.09328 4107.9
6.27201 86.5352
6.45075 69.6226
6.62952 64.2728
6.8083 60.2079
6.98711 57.4864
7.16591 56.986
7.34475 79.9502
7.5236 55.9509
7.70247 58.1526
7.88135 59.6024
8.06026 63.9699
8.23919 71.7312
8.41812 89.1446
8.59709 1176.39
8.77609 104.787
8.9551 92.5039
9.13412 85.0981
9.31318 85.7354
9.49226 87.6343
9.67134 99.4962
9.85047 103.981
10.0296 433.094
10.2088 478.918
10.388 109.951
10.5672 484.504
10.7465 89.8085
10.9257 80.1031
11.105 73.7816
11.2844 71.6472
11.4637 66.7716
11.6431 65.4986
11.8225 64.5315
12.002 66.2815
12.1814 149.716
12.3609 71.355
12.5405 66.6446
12.72 71.0251
12.8996 73.378
13.0792 83.0367
13.2589 245.968
13.4386 132.482
13.6183 242.594
13.7981 102.323
13.9779 78.0969
14.1577 74.21
14.3376 73.01
14.5175 71.2315
14.6974 72.9845
14.8774 119.153
15.0574 154.789
15.2374 72.6055
15.4175 68.615
15.5976 68.3346
15.7778 102.532
15.958 164.161
16.1382 63.9818
16.3185 60.0145
16.4988 57.2135
16.6792 56.0226
16.8596 56.8785
17.04 57.8538
17.2205 69.0874
17.401 73.8666
17.5815 61.0976
17.7622 63.3647
17.9428 78.7023
18.1237 139.95
18.3044 91.7914
18.4852 80.0777
18.666 62.2771
18.8469 59.8377
19.0278 58.6776
19.2088 61.9099
19.3898 77.1274
19.5709 55.9011
19.752 55.0026
19.9332 58.5636
20.1144 71.5698
20.2957 64.4782
20.477 55.2489
20.6586 51.1992
20.84 50.4725
21.0215 50.3384
21.203 52.1157
21.3846 50.753
21.5662 50.4996
21.7479 54.8388
21.9297 66.3745
22.1115 57.1363
22.2933 51.5318
22.4753 50.445
22.6572 50.5742
22.8393 53.8067
23.0214 59.1907
23.2037 50.3557
23.3859 51.5076
23.5682 57.6001
23.7505 49.8675
23.9329 46.5854
24.1154 45.4688
24.2979 44.8447
24.4805 44.2337
24.6631 44.2472
24.8458 43.4982
25.0286 44.2043
25.2114 45.8739
25.3943 46.0732
25.5773 42.1918
25.7605 41.7609
25.9436 42.0839
26.1268 42.9393
26.31 41.4533
26.4933 42.0058
26.6767 43.4437
26.8601 41.633
27.0437 40.1413
27.2272 39.7375
27.4109 39.5542
27.5946 39.4636
27.7784 38.8917
27.9623 39.4625
28.1462 39.9127
28.3304 38.278
28.5145 37.0085
28.6987 36.6679
28.8829 36.5088
29.0673 35.7122
29.2517 35.3269
29.4361 35.1993
29.6207 34.0781
29.8053 33.8427
29.99 33.5832
30.1748 33.4751
30.3597 33.2599
30.5447 33.1408
30.7297 33.1658
30.915 32.5607
31.1002 32.022
31.2855 31.805
31.4708 31.6733
31.6563 31.3059
31.8418 31.0724
32.0275 30.797
32.2132 30.2157
32.399 29.7354
32.5848 29.3128
32.7708 29.022
32.9569 28.856
33.143 28.6756
33.3293 28.2094
33.5158 27.7348
33.7022 27.4649
33.8887 27.0775
34.0753 26.7465
34.262 26.4141
34.4488 26.0174
34.6357 25.7113
34.8227 25.3884
35.0098 25.1278
35.1969 24.8651
35.3842 24.6948
35.5716 24.5074
35.759 24.0593
35.9468 23.782
36.1345 23.5967
36.3222 23.2475
36.5101 23.1028
36.6981 22.739
36.8861 22.4282
37.0743 22.0783
37.2626 21.8203
37.451 21.603
37.6395 21.458
37.8281 21.0842
38.0168 20.8171
38.2056 20.5576
38.3945 20.303
38.5837 20.0058
38.7728 19.7189
38.9621 19.5643
39.1514 19.2696
39.3409 18.9857
39.5304 18.7342
39.7201 18.5169
39.9099 18.3587
40.0999 18.0969
40.2899 17.8267
40.48 17.5825
40.6703 17.3694
40.8607 17.2544
41.0512 17.021
41.242 16.7279
41.4327 16.5408
41.6236 16.243
41.8146 16.0749
42.0057 15.8455
42.1969 15.6413
42.3882 15.4439
42.5797 15.252
42.7713 15.063
42.963 14.8441
43.1549 14.6618
43.3468 14.394
43.5389 14.1936
43.7312 14.0435
43.9237 13.8614
44.1162 13.6383
44.3088 13.4512
44.5016 13.2829
44.6945 13.1031
44.8875 12.8982
45.0806 12.7427
45.2739 12.5514
45.4673 12.3323
45.6609 12.2103
45.8546 12.0249
46.0484 11.8487
46.2424 11.6552
46.4365 11.5232
46.631 11.3267
46.8254 11.1383
47.0199 10.9718
47.2146 10.8503
47.4095 10.6651
47.6044 10.4955
47.7996 10.3674
47.9948 10.2104
48.1902 10.064
48.3858 9.9347
48.5815 9.81667
48.7774 9.64679
48.9734 9.50603
49.1696 9.36097
49.3661 9.19441
49.5626 9.0547
49.7592 8.96031
49.956 8.81005
50.153 8.64713
50.3501 8.53837
50.5474 8.39942
50.7448 8.30073
50.9424 8.16391
51.1402 8.04554
51.3381 7.87955
51.5362 7.72454
51.7344 7.6339
51.9328 7.47509
52.1316 7.38008
52.3304 7.2515
52.5293 7.12143
52.7284 7.01255
52.9276 6.89433
53.1271 6.8203
53.3267 6.6772
53.5265 6.56766
53.7264 6.46079
53.9266 6.37354
54.1269 6.22303
54.3274 6.09555
54.528 5.98497
54.7289 5.78206
54.9301 5.58803
55.1314 5.51415
55.3328 5.27402
55.5344 5.11334
55.7361 4.94215