Folder: NiFe_MOF_catalyst_paper/XRD (part 44)

File: Ni3Fe_FD0225.xy
TT I
1.27165 7.39947
1.45013 6.63357
1.62863 5.81339
1.80712 5.23584
1.98562 5.35338
2.16411 4.06982
2.34263 4.3438
2.52115 4.67104
2.69965 5.73046
2.87818 8.28462
3.05672 10.3932
3.23527 15.3324
3.4138 18.8773
3.59237 22.8759
3.77094 25.6359
3.9495 30.2533
4.12809 34.8201
4.30669 40.7029
4.4853 48.7465
4.6639 58.6705
4.84253 71.5613
5.02118 96.5435
5.19981 885.013
5.37848 272.633
5.55716 111.951
5.73586 101.037
5.91455 110.591
6.09328 3643.67
6.27201 89.2743
6.45075 71.3563
6.62952 64.0553
6.8083 60.1354
6.98711 57.5656
7.16591 56.6563
7.34475 55.8862
7.5236 56.1748
7.70247 58.3829
7.88135 60.3902
8.06026 65.3804
8.23919 73.2314
8.41812 90.3016
8.59709 1060.41
8.77609 111.033
8.9551 91.0739
9.13412 86.7632
9.31318 88.3118
9.49226 89.557
9.67134 95.9133
9.85047 106.97
10.0296 519.535
10.2088 547.945
10.388 114.882
10.5672 442.649
10.7465 92.4085
10.9257 80.9816
11.105 75.2992
11.2844 70.8472
11.4637 67.6265
11.6431 66.383
11.8225 65.1585
12.002 68.7046
12.1814 140.222
12.3609 70.3151
12.5405 67.4927
12.72 69.8343
12.8996 75.0073
13.0792 86.3307
13.2589 228.908
13.4386 150.309
13.6183 225.6
13.7981 112.177
13.9779 80.1284
14.1577 75.2577
14.3376 73.1002
14.5175 72.7192
14.6974 74.5625
14.8774 119.543
15.0574 170.99
15.2374 72.5846
15.4175 69.7725
15.5976 70.0162
15.7778 103.175
15.958 177.485
16.1382 64.2242
16.3185 60.3347
16.4988 57.9975
16.6792 57.0492
16.8596 57.1749
17.04 59.3933
17.2205 68.8689
17.401 76.9958
17.5815 61.9872
17.7622 64.5388
17.9428 82.9119
18.1237 138.755
18.3044 90.2995
18.4852 84.0314
18.666 63.4216
18.8469 60.9237
19.0278 59.6005
19.2088 63.0641
19.3898 76.2602
19.5709 57.0475
19.752 56.2623
19.9332 59.6432
20.1144 72.44
20.2957 64.4957
20.477 56.7974
20.6586 52.1506
20.84 51.3905
21.0215 51.2579
21.203 52.638
21.3846 51.7729
21.5662 51.8795
21.7479 55.49
21.9297 66.6688
22.1115 57.8266
22.2933 52.7492
22.4753 50.8486
22.6572 51.9782
22.8393 54.2091
23.0214 59.9937
23.2037 51.4782
23.3859 52.7066
23.5682 57.5321
23.7505 51.4661
23.9329 47.3871
24.1154 46.234
24.2979 45.5278
24.4805 44.8296
24.6631 44.8931
24.8458 44.4449
25.0286 45.0436
25.2114 46.5092
25.3943 46.5006
25.5773 42.9195
25.7605 42.3431
25.9436 42.676
26.1268 43.4902
26.31 42.2702
26.4933 42.6307
26.6767 44.0137
26.8601 42.3405
27.0437 40.8185
27.2272 40.4901
27.4109 40.1133
27.5946 40.2897
27.7784 39.7893
27.9623 40.0253
28.1462 40.5222
28.3304 38.8788
28.5145 37.6902
28.6987 37.2512
28.8829 37.0393
29.0673 36.3068
29.2517 35.8131
29.4361 35.7482
29.6207 34.701
29.8053 34.3947
29.99 34.1732
30.1748 33.8717
30.3597 33.8061
30.5447 33.7256
30.7297 33.756
30.915 33.0697
31.1002 32.6811
31.2855 32.2236
31.4708 32.2758
31.6563 31.8244
31.8418 31.4952
32.0275 31.3205
32.2132 30.752
32.399 30.4221
32.5848 29.8352
32.7708 29.579
32.9569 29.3465
33.143 29.1211
33.3293 28.6247
33.5158 28.3232
33.7022 27.8217
33.8887 27.5204
34.0753 27.2375
34.262 26.8202
34.4488 26.5031
34.6357 26.0928
34.8227 25.8852
35.0098 25.6116
35.1969 25.3431
35.3842 25.0285
35.5716 24.8868
35.759 24.5137
35.9468 24.1611
36.1345 23.9269
36.3222 23.6925
36.5101 23.3907
36.6981 23.1222
36.8861 22.7894
37.0743 22.5139
37.2626 22.2711
37.451 21.9345
37.6395 21.7551
37.8281 21.4393
38.0168 21.1655
38.2056 20.9284
38.3945 20.5687
38.5837 20.3446
38.7728 20.0888
38.9621 19.8384
39.1514 19.5342
39.3409 19.3565
39.5304 19.0485
39.7201 18.8575
39.9099 18.6671
40.0999 18.3962
40.2899 18.1842
40.48 17.9392
40.6703 17.7291
40.8607 17.4968
41.0512 17.2252
41.242 16.9934
41.4327 16.7509
41.6236 16.5444
41.8146 16.3754
42.0057 16.1511
42.1969 15.9137
42.3882 15.7161
42.5797 15.5213
42.7713 15.2821
42.963 15.0678
43.1549 14.8441
43.3468 14.6097
43.5389 14.4764
43.7312 14.2303
43.9237 14.0429
44.1162 13.8807
44.3088 13.6529
44.5016 13.5051
44.6945 13.2511
44.8875 13.1049
45.0806 12.9011
45.2739 12.7288
45.4673 12.5572
45.6609 12.3677
45.8546 12.2377
46.0484 12.0608
46.2424 11.8611
46.4365 11.6824
46.631 11.5151
46.8254 11.3378
47.0199 11.183
47.2146 11.0242
47.4095 10.833
47.6044 10.67
47.7996 10.4922
47.9948 10.3354
48.1902 10.2017
48.3858 10.0546
48.5815 9.95939
48.7774 9.81307
48.9734 9.64604
49.1696 9.48204
49.3661 9.34388
49.5626 9.20407
49.7592 9.07981
49.956 8.949
50.153 8.7891
50.3501 8.65456
50.5474 8.50323
50.7448 8.38104
50.9424 8.31459
51.1402 8.13551
51.3381 7.98527
51.5362 7.85992
51.7344 7.7351
51.9328 7.6431
52.1316 7.50024
52.3304 7.40228
52.5293 7.28212
52.7284 7.16788
52.9276 7.02032
53.1271 6.91724
53.3267 6.768
53.5265 6.60873
53.7264 6.5876
53.9266 6.43454
54.1269 6.33617
54.3274 6.15826
54.528 6.10505
54.7289 5.86042
54.9301 5.69359
55.1314 5.5679
55.3328 5.31511
55.5344 5.12154
55.7361 4.96672

File: Ni3Fe_FD0226.xy
TT I
1.27165 8.37339
1.45013 6.65818
1.62863 5.97049
1.80712 5.17902
1.98562 4.87681
2.16411 4.74802
2.34263 4.15857
2.52115 5.24825
2.69965 5.85381
2.87818 8.44125
3.05672 10.9914
3.23527 15.3016
3.4138 18.8604
3.59237 22.5399
3.77094 25.6586
3.9495 30.2529
4.12809 34.768
4.30669 40.5955
4.4853 48.6064
4.6639 58.3703
4.84253 71.499
5.02118 96.3094
5.19981 881.217
5.37848 274.547
5.55716 112.335
5.73586 100.978
5.91455 110.192
6.09328 3633.84
6.27201 89.0298
6.45075 71.0657
6.62952 64.1674
6.8083 60.0142
6.98711 57.4251
7.16591 56.6601
7.34475 55.6744
7.5236 56.272
7.70247 58.2854
7.88135 60.3692
8.06026 65.1882
8.23919 73.004
8.41812 90.2139
8.59709 1060.33
8.77609 111.031
8.9551 90.8588
9.13412 86.7256
9.31318 88.0039
9.49226 89.062
9.67134 95.5951
9.85047 107.031
10.0296 517.057
10.2088 553.919
10.388 114.64
10.5672 444.244
10.7465 92.3037
10.9257 80.6368
11.105 74.8111
11.2844 70.5132
11.4637 67.8027
11.6431 66.5847
11.8225 65.2138
12.002 68.6842
12.1814 140.761
12.3609 70.1154
12.5405 67.1992
12.72 69.6954
12.8996 74.9696
13.0792 86.0177
13.2589 228.263
13.4386 151.703
13.6183 226.247
13.7981 112.589
13.9779 79.859
14.1577 75.2153
14.3376 73.2624
14.5175 72.3322
14.6974 74.7194
14.8774 119.179
15.0574 172.068
15.2374 72.3284
15.4175 69.8931
15.5976 69.8442
15.7778 103.318
15.958 177.009
16.1382 63.851
16.3185 60.0644
16.4988 58.1181
16.6792 57.0635
16.8596 57.1639
17.04 59.2804
17.2205 68.8341
17.401 77.3542
17.5815 62.0425
17.7622 64.572
17.9428 82.7058
18.1237 139.117
18.3044 90.2375
18.4852 84.2441
18.666 63.4323
18.8469 60.8322
19.0278 59.6786
19.2088 62.924
19.3898 76.3623
19.5709 57.0652
19.752 55.963
19.9332 59.5631
20.1144 72.4179
20.2957 64.5224
20.477 56.7198
20.6586 51.921
20.84 51.2655
21.0215 51.0839
21.203 52.5867
21.3846 51.629
21.5662 51.8326
21.7479 55.486
21.9297 66.662
22.1115 57.7648
22.2933 52.5246
22.4753 50.8687
22.6572 52.0406
22.8393 53.9877
23.0214 59.9239
23.2037 51.4003
23.3859 52.5173
23.5682 57.5997
23.7505 51.4835
23.9329 47.3837
24.1154 46.085
24.2979 45.5281
24.4805 44.741
24.6631 44.8331
24.8458 44.3713
25.0286 45.0626
25.2114 46.5252
25.3943 46.6767
25.5773 42.9343
25.7605 42.432
25.9436 42.6877
26.1268 43.6088
26.31 42.273
26.4933 42.5648
26.6767 43.9677
26.8601 42.3872
27.0437 40.7838
27.2272 40.4095
27.4109 40.1942
27.5946 40.2739
27.7784 39.6099
27.9623 40.0154
28.1462 40.6805
28.3304 39.1046
28.5145 37.5942
28.6987 37.2616
28.8829 36.9264
29.0673 36.4414
29.2517 35.9037
29.4361 35.6348
29.6207 34.6825
29.8053 34.2673
29.99 34.0917
30.1748 33.8032
30.3597 33.7417
30.5447 33.5663
30.7297 33.5903
30.915 33.0914
31.1002 32.5045
31.2855 32.2796
31.4708 32.2439
31.6563 31.732
31.8418 31.4828
32.0275 31.3074
32.2132 30.7272
32.399 30.3025
32.5848 29.7954
32.7708 29.4384
32.9569 29.2675
33.143 29.0886
33.3293 28.6931
33.5158 28.3263
33.7022 27.8523
33.8887 27.4836
34.0753 27.1926
34.262 26.8063
34.4488 26.5162
34.6357 26.1452
34.8227 25.7912
35.0098 25.6127
35.1969 25.3311
35.3842 25.0558
35.5716 24.8596
35.759 24.4839
35.9468 24.1964
36.1345 23.9354
36.3222 23.6733
36.5101 23.4516
36.6981 23.0771
36.8861 22.8153
37.0743 22.4834
37.2626 22.1476
37.451 21.9323
37.6395 21.7796
37.8281 21.3722
38.0168 21.054
38.2056 20.8818
38.3945 20.5912
38.5837 20.3486
38.7728 20.0478
38.9621 19.8244
39.1514 19.5842
39.3409 19.3092
39.5304 19.0087
39.7201 18.7909
39.9099 18.6256
40.0999 18.3558
40.2899 18.133
40.48 17.9077
40.6703 17.7107
40.8607 17.5217
41.0512 17.2918
41.242 17.018
41.4327 16.7683
41.6236 16.5818
41.8146 16.3188
42.0057 16.1345
42.1969 15.8525
42.3882 15.6782
42.5797 15.4935
42.7713 15.3431
42.963 15.0477
43.1549 14.8737
43.3468 14.6443
43.5389 14.4226
43.7312 14.2088
43.9237 14.0629
44.1162 13.8524
44.3088 13.6663
44.5016 13.4641
44.6945 13.304
44.8875 13.1192
45.0806 12.9339
45.2739 12.731
45.4673 12.5293
45.6609 12.39
45.8546 12.2021
46.0484 12.0061
46.2424 11.7977
46.4365 11.7279
46.631 11.4864
46.8254 11.3618
47.0199 11.1839
47.2146 11.0054
47.4095 10.8335
47.6044 10.6648
47.7996 10.5078
47.9948 10.3534
48.1902 10.225
48.3858 10.0759
48.5815 9.97281
48.7774 9.78375
48.9734 9.6338
49.1696 9.48113
49.3661 9.33814
49.5626 9.17188
49.7592 9.04846
49.956 8.93889
50.153 8.79387
50.3501 8.62897
50.5474 8.52144
50.7448 8.43381
50.9424 8.25198
51.1402 8.13356
51.3381 7.99249
51.5362 7.88653
51.7344 7.74308
51.9328 7.63583
52.1316 7.44503
52.3304 7.35969
52.5293 7.24311
52.7284 7.16957
52.9276 6.96481
53.1271 6.89825
53.3267 6.79219
53.5265 6.66068
53.7264 6.57103
53.9266 6.41702
54.1269 6.30126
54.3274 6.15741
54.528 6.01333
54.7289 5.82714
54.9301 5.66299
55.1314 5.52573
55.3328 5.3202
55.5344 5.18124
55.7361 5.03129

File: Ni3Fe_FD0227.xy
TT I
1.27165 7.91106
1.45013 6.4737
1.62863 5.5289
1.80712 5.30342
1.98562 4.32376
2.16411 4.71716
2.34263 4.15962
2.52115 5.57608
2.69965 5.8312
2.87818 8.38286
3.05672 11.0332
3.23527 14.8409
3.4138 19.055
3.59237 22.3441
3.77094 25.9327
3.9495 30.3537
4.12809 35.3588
4.30669 40.4532
4.4853 48.5044
4.6639 58.2204
4.84253 71.6864
5.02118 96.4346
5.19981 887.409
5.37848 273.359
5.55716 112.433
5.73586 101.195
5.91455 110.667
6.09328 3639.08
6.27201 88.8675
6.45075 71.0742
6.62952 64.2468
6.8083 60.115
6.98711 57.4679
7.16591 56.5114
7.34475 55.8948
7.5236 56.51
7.70247 58.2881
7.88135 60.4012
8.06026 65.5652
8.23919 73.3683
8.41812 90.552
8.59709 1063.75
8.77609 110.83
8.9551 91.1342
9.13412 87.0949
9.31318 88.3053
9.49226 89.7
9.67134 95.9184
9.85047 106.909
10.0296 517.983
10.2088 544.627
10.388 115.272
10.5672 445.223
10.7465 92.4196
10.9257 80.9711
11.105 75.0174
11.2844 70.7322
11.4637 67.6495
11.6431 66.2817
11.8225 65.3291
12.002 68.7026
12.1814 141.333
12.3609 70.0209
12.5405 67.2564
12.72 70.0781
12.8996 74.9658
13.0792 86.2299
13.2589 228.923
13.4386 150.045
13.6183 226.668
13.7981 112.083
13.9779 80.0566
14.1577 75.2954
14.3376 73.2686
14.5175 72.6195
14.6974 74.9527
14.8774 119.571
15.0574 169.786
15.2374 72.6311
15.4175 69.8853
15.5976 69.9331
15.7778 103.739
15.958 175.871
16.1382 63.8015
16.3185 60.2409
16.4988 57.9688
16.6792 57.0838
16.8596 57.3502
17.04 59.4002
17.2205 68.8753
17.401 76.9824
17.5815 62.1784
17.7622 64.5739
17.9428 82.7653
18.1237 138.972
18.3044 90.3246
18.4852 83.8542
18.666 63.3924
18.8469 60.8891
19.0278 59.7948
19.2088 62.6792
19.3898 76.4267
19.5709 57.1772
19.752 56.1545
19.9332 59.4003
20.1144 72.474
20.2957 64.5444
20.477 56.6934
20.6586 52.1104
20.84 51.156
21.0215 51.1992
21.203 52.372
21.3846 51.4886
21.5662 51.818
21.7479 55.6022
21.9297 66.514
22.1115 57.9359
22.2933 52.6551
22.4753 50.9697
22.6572 52.0447
22.8393 54.1123
23.0214 60.0974
23.2037 51.5277
23.3859 52.6998
23.5682 57.8145
23.7505 51.216
23.9329 47.4022
24.1154 46.0638
24.2979 45.5412
24.4805 44.8655
24.6631 44.8238
24.8458 44.306
25.0286 45.0684
25.2114 46.5162
25.3943 46.6491
25.5773 42.8653
25.7605 42.3978
25.9436 42.6702
26.1268 43.5413
26.31 42.2545
26.4933 42.6245
26.6767 43.9506
26.8601 42.3905
27.0437 40.768
27.2272 40.4239
27.4109 40.1399
27.5946 40.2307
27.7784 39.8284
27.9623 39.9447
28.1462 40.5277
28.3304 38.979
28.5145 37.5728
28.6987 37.2576
28.8829 36.9763
29.0673 36.3784
29.2517 35.8762
29.4361 35.6127
29.6207 34.7021
29.8053 34.4359
29.99 33.9955
30.1748 33.8471
30.3597 33.844
30.5447 33.7035
30.7297 33.6566
30.915 33.1079
31.1002 32.5904
31.2855 32.2755
31.4708 32.1488
31.6563 31.8231
31.8418 31.4866
32.0275 31.2661
32.2132 30.814
32.399 30.2699
32.5848 29.8385
32.7708 29.5249
32.9569 29.3589
33.143 29.1021
33.3293 28.5903
33.5158 28.3498
33.7022 27.8531
33.8887 27.4625
34.0753 27.2369
34.262 26.8241
34.4488 26.4993
34.6357 26.092
34.8227 25.8315
35.0098 25.6218
35.1969 25.3502
35.3842 25.1287
35.5716 24.769
35.759 24.5166
35.9468 24.1237
36.1345 23.8754
36.3222 23.7299
36.5101 23.47
36.6981 23.1385
36.8861 22.7545
37.0743 22.5388
37.2626 22.24
37.451 22.0306
37.6395 21.7464
37.8281 21.4389
38.0168 21.1443
38.2056 20.8154
38.3945 20.5606
38.5837 20.3058
38.7728 20.0939
38.9621 19.7901
39.1514 19.5604
39.3409 19.353
39.5304 19.0365
39.7201 18.9304
39.9099 18.6357
40.0999 18.4111
40.2899 18.1718
40.48 17.921
40.6703 17.686
40.8607 17.498
41.0512 17.2345
41.242 16.9972
41.4327 16.8022
41.6236 16.5357
41.8146 16.4177
42.0057 16.1011
42.1969 15.9726
42.3882 15.6786
42.5797 15.5179
42.7713 15.2989
42.963 15.143
43.1549 14.8724
43.3468 14.648
43.5389 14.4372
43.7312 14.2953
43.9237 14.0358
44.1162 13.8437
44.3088 13.6459
44.5016 13.4993
44.6945 13.2785
44.8875 13.1463
45.0806 12.9378
45.2739 12.7283
45.4673 12.5761
45.6609 12.3836
45.8546 12.2388
46.0484 12.0151
46.2424 11.8326
46.4365 11.6725
46.631 11.493
46.8254 11.3186
47.0199 11.1609
47.2146 11.0489
47.4095 10.8462
47.6044 10.6498
47.7996 10.519
47.9948 10.3954
48.1902 10.2214
48.3858 10.0692
48.5815 9.95267
48.7774 9.76982
48.9734 9.62815
49.1696 9.51483
49.3661 9.37205
49.5626 9.2058
49.7592 9.08145
49.956 8.95772
50.153 8.8156
50.3501 8.61612
50.5474 8.52675
50.7448 8.38456
50.9424 8.27409
51.1402 8.15451
51.3381 7.98419
51.5362 7.87191
51.7344 7.74776
51.9328 7.64195
52.1316 7.50553
52.3304 7.36968
52.5293 7.26916
52.7284 7.13427
52.9276 7.04268
53.1271 6.90904
53.3267 6.79729
53.5265 6.62945
53.7264 6.53693
53.9266 6.41838
54.1269 6.30605
54.3274 6.2159
54.528 6.04066
54.7289 5.8855
54.9301 5.68785
55.1314 5.56806
55.3328 5.34216
55.5344 5.0629
55.7361 5.00191

File: Ni3Fe_FD0228.xy
TT I
1.27165 7.88606
1.45013 6.21378
1.62863 6.13585
1.80712 5.28153
1.98562 4.85327
2.16411 4.42523
2.34263 4.29103
2.52115 4.65132
2.69965 6.09908
2.87818 8.22552
3.05672 11.0167
3.23527 14.8902
3.4138 19.297
3.59237 22.5276
3.77094 26.4049
3.9495 29.8805
4.12809 35.0938
4.30669 40.7657
4.4853 48.3481
4.6639 58.0045
4.84253 71.7483
5.02118 96.3556
5.19981 885.518
5.37848 277.447
5.55716 112.354
5.73586 101.174
5.91455 110.69
6.09328 3634.22
6.27201 89.3427
6.45075 70.8365
6.62952 64.4542
6.8083 60.0625
6.98711 57.2032
7.16591 56.6345
7.34475 55.8047
7.5236 56.1141
7.70247 58.0635
7.88135 60.5531
8.06026 65.1711
8.23919 73.0704
8.41812 90.3822
8.59709 1065.16
8.77609 110.293
8.9551 90.3654
9.13412 87.1992
9.31318 88.0743
9.49226 89.7177
9.67134 95.2687
9.85047 106.695
10.0296 517.366
10.2088 551.22
10.388 115.225
10.5672 444.321
10.7465 92.4163
10.9257 80.6086
11.105 74.6581
11.2844 70.9656
11.4637 67.8023
11.6431 66.3691
11.8225 65.3354
12.002 68.536
12.1814 141.357
12.3609 70.1301
12.5405 67.3166
12.72 69.7795
12.8996 74.8899
13.0792 86.6256
13.2589 229.083
13.4386 151.154
13.6183 225.964
13.7981 112.355
13.9779 80.1015
14.1577 75.3712
14.3376 73.2815
14.5175 72.5582
14.6974 74.6355
14.8774 119.609
15.0574 170.87
15.2374 72.3026
15.4175 69.9502
15.5976 69.9313
15.7778 103.293
15.958 175.494
16.1382 63.8142
16.3185 60.1744
16.4988 58.0924
16.6792 57.1137
16.8596 57.4545
17.04 59.0958
17.2205 68.9539
17.401 77.2942
17.5815 62.2122
17.7622 64.591
17.9428 83.0415
18.1237 139.172
18.3044 90.2471
18.4852 83.9378
18.666 63.608
18.8469 61.1383
19.0278 59.59
19.2088 62.9789
19.3898 76.0811
19.5709 56.9982
19.752 56.1251
19.9332 59.5212
20.1144 72.5815
20.2957 64.3973
20.477 56.5988
20.6586 52.2219
20.84 51.2867
21.0215 51.1402
21.203 52.518
21.3846 51.5296
21.5662 51.7598
21.7479 55.5891
21.9297 66.7481
22.1115 57.6054
22.2933 52.5554
22.4753 50.9253
22.6572 51.8709
22.8393 54.2601
23.0214 59.9193
23.2037 51.4314
23.3859 52.5089
23.5682 57.7706
23.7505 51.2597
23.9329 47.3799
24.1154 46.2208
24.2979 45.5457
24.4805 45.0621
24.6631 44.8577
24.8458 44.3305
25.0286 44.9521
25.2114 46.4935
25.3943 46.7043
25.5773 43.0177
25.7605 42.4632
25.9436 42.6646
26.1268 43.6027
26.31 42.12
26.4933 42.6292
26.6767 43.9605
26.8601 42.3113
27.0437 40.7781
27.2272 40.4195
27.4109 40.2246
27.5946 40.22
27.7784 39.6555
27.9623 40.0906
28.1462 40.5992
28.3304 39.0217
28.5145 37.6499
28.6987 37.3072
28.8829 36.9189
29.0673 36.3753
29.2517 35.9636
29.4361 35.7327
29.6207 34.8385
29.8053 34.3924
29.99 34.0506
30.1748 33.9009
30.3597 33.8049
30.5447 33.6579
30.7297 33.6169
30.915 33.024
31.1002 32.5507
31.2855 32.3333
31.4708 32.2034
31.6563 31.8003
31.8418 31.4719
32.0275 31.2552
32.2132 30.6945
32.399 30.2719
32.5848 29.7408
32.7708 29.4926
32.9569 29.3013
33.143 29.054
33.3293 28.6714
33.5158 28.2057
33.7022 27.8002
33.8887 27.4778
34.0753 27.2408
34.262 26.8691
34.4488 26.5091
34.6357 26.0829
34.8227 25.8355
35.0098 25.6589
35.1969 25.2859
35.3842 24.9435
35.5716 24.928
35.759 24.5013
35.9468 24.09
36.1345 23.9724
36.3222 23.7471
36.5101 23.473
36.6981 23.1059
36.8861 22.7715
37.0743 22.4526
37.2626 22.1878
37.451 21.9013
37.6395 21.8027
37.8281 21.4263
38.0168 21.1204
38.2056 20.8118
38.3945 20.5783
38.5837 20.3609
38.7728 20.0837
38.9621 19.8294
39.1514 19.5693
39.3409 19.3318
39.5304 19.088
39.7201 18.8805
39.9099 18.6802
40.0999 18.4196
40.2899 18.0994
40.48 17.8976
40.6703 17.6952
40.8607 17.5263
41.0512 17.2844
41.242 16.9812
41.4327 16.8035
41.6236 16.5659
41.8146 16.3087
42.0057 16.115
42.1969 15.8855
42.3882 15.7666
42.5797 15.5235
42.7713 15.3188
42.963 15.0143
43.1549 14.8738
43.3468 14.653
43.5389 14.4654
43.7312 14.2674
43.9237 14.0979
44.1162 13.8373
44.3088 13.681
44.5016 13.4691
44.6945 13.3116
44.8875 13.0846
45.0806 12.9173
45.2739 12.734
45.4673 12.5805
45.6609 12.4246
45.8546 12.2245
46.0484 12.0159
46.2424 11.8662
46.4365 11.7045
46.631 11.5105
46.8254 11.3379
47.0199 11.1898
47.2146 11.0553
47.4095 10.8182
47.6044 10.6806
47.7996 10.5177
47.9948 10.3333
48.1902 10.1996
48.3858 10.0873
48.5815 9.97456
48.7774 9.78702
48.9734 9.65075
49.1696 9.49455
49.3661 9.33292
49.5626 9.1904
49.7592 9.0471
49.956 8.96518
50.153 8.8252
50.3501 8.64757
50.5474 8.51784
50.7448 8.3875
50.9424 8.25361
51.1402 8.14983
51.3381 7.97283
51.5362 7.88749
51.7344 7.72927
51.9328 7.58559
52.1316 7.48393
52.3304 7.36427
52.5293 7.21152
52.7284 7.10047
52.9276 6.9773
53.1271 6.91196
53.3267 6.78639
53.5265 6.64324
53.7264 6.50676
53.9266 6.43839
54.1269 6.31324
54.3274 6.16935
54.528 6.01511
54.7289 5.86695
54.9301 5.72394
55.1314 5.54028
55.3328 5.256
55.5344 5.09207
55.7361 4.97655

File: Ni3Fe_FD0229.xy
TT I
1.27165 7.73107
1.45013 6.20841
1.62863 5.40591
1.80712 4.8904
1.98562 5.02131
2.16411 4.55825
2.34263 4.45134
2.52115 4.52632
2.69965 6.44463
2.87818 7.87079
3.05672 11.1745
3.23527 15.3961
3.4138 18.6383
3.59237 22.4393
3.77094 25.6899
3.9495 29.6658
4.12809 34.9816
4.30669 40.3744
4.4853 48.4672
4.6639 57.8291
4.84253 71.8996
5.02118 96.954
5.19981 885.626
5.37848 277.929
5.55716 112.574
5.73586 101.336
5.91455 110.05
6.09328 3645.45
6.27201 89.1725
6.45075 71.1169
6.62952 64.0924
6.8083 60.0706
6.98711 57.4914
7.16591 56.5779
7.34475 55.6804
7.5236 55.9893
7.70247 58.0984
7.88135 60.367
8.06026 65.6428
8.23919 73.2615
8.41812 90.1143
8.59709 1069.52
8.77609 110.468
8.9551 90.9382
9.13412 86.9858
9.31318 87.8705
9.49226 89.7974
9.67134 95.386
9.85047 106.75
10.0296 517.936
10.2088 550.516
10.388 115.064
10.5672 445.994
10.7465 92.0742
10.9257 80.9632
11.105 74.9556
11.2844 70.7727
11.4637 67.9268
11.6431 66.2791
11.8225 65.6045
12.002 68.6805
12.1814 141.411
12.3609 69.806
12.5405 67.1489
12.72 69.6944
12.8996 74.5727
13.0792 86.3853
13.2589 228.971
13.4386 150.552
13.6183 226.3
13.7981 111.417
13.9779 79.997
14.1577 75.3542
14.3376 73.2297
14.5175 72.7155
14.6974 74.6752
14.8774 119.525
15.0574 169.958
15.2374 72.1559
15.4175 69.7906
15.5976 70.0566
15.7778 103.782
15.958 175.605
16.1382 63.7763
16.3185 60.1784
16.4988 58.1135
16.6792 56.8892
16.8596 57.2264
17.04 59.0867
17.2205 68.9496
17.401 76.9572
17.5815 62.1757
17.7622 64.5523
17.9428 82.6157
18.1237 139.104
18.3044 90.297
18.4852 83.633
18.666 63.4399
18.8469 60.9926
19.0278 59.6324
19.2088 63.1033
19.3898 76.2802
19.5709 56.9663
19.752 56.1894
19.9332 59.5162
20.1144 72.5704
20.2957 64.2815
20.477 56.7885
20.6586 52.0827
20.84 51.0965
21.0215 51.1934
21.203 52.5232
21.3846 51.7082
21.5662 51.8929
21.7479 55.3099
21.9297 66.6104
22.1115 57.7404
22.2933 52.6785
22.4753 50.9264
22.6572 51.9471
22.8393 54.0745
23.0214 60.09
23.2037 51.5461
23.3859 52.5461
23.5682 57.6637
23.7505 51.2502
23.9329 47.3824
24.1154 46.1781
24.2979 45.4764
24.4805 44.9337
24.6631 44.8611
24.8458 44.3199
25.0286 45.0806
25.2114 46.5761
25.3943 46.7944
25.5773 43.0251
25.7605 42.4882
25.9436 42.5825
26.1268 43.6491
26.31 42.1918
26.4933 42.4331
26.6767 43.9605
26.8601 42.2635
27.0437 40.7768
27.2272 40.3267
27.4109 40.2207
27.5946 40.3113
27.7784 39.7602
27.9623 40.0045
28.1462 40.4937
28.3304 38.9889
28.5145 37.6722
28.6987 37.1795
28.8829 36.9056
29.0673 36.3683
29.2517 35.8641
29.4361 35.7238
29.6207 34.7701
29.8053 34.399
29.99 34.0267
30.1748 33.8776
30.3597 33.765
30.5447 33.6568
30.7297 33.6227
30.915 33.128
31.1002 32.5353
31.2855 32.2953
31.4708 32.1763
31.6563 31.8602
31.8418 31.4702
32.0275 31.319
32.2132 30.8287
32.399 30.1898
32.5848 29.7704
32.7708 29.3601
32.9569 29.2515
33.143 29.0617
33.3293 28.6602
33.5158 28.3743
33.7022 27.852
33.8887 27.5265
34.0753 27.2065
34.262 26.8206
34.4488 26.4552
34.6357 26.0737
34.8227 25.9026
35.0098 25.6166
35.1969 25.2677
35.3842 25.0902
35.5716 24.8109
35.759 24.4891
35.9468 24.1873
36.1345 23.9744
36.3222 23.5921
36.5101 23.3984
36.6981 23.1601
36.8861 22.7505
37.0743 22.4556
37.2626 22.2921
37.451 21.9676
37.6395 21.7798
37.8281 21.3286
38.0168 21.0784
38.2056 20.8855
38.3945 20.5862
38.5837 20.2578
38.7728 20.062
38.9621 19.8442
39.1514 19.5515
39.3409 19.3389
39.5304 19.0783
39.7201 18.8735
39.9099 18.67
40.0999 18.391
40.2899 18.1783
40.48 17.9065
40.6703 17.7047
40.8607 17.5178
41.0512 17.2584
41.242 16.9846
41.4327 16.7739
41.6236 16.5873
41.8146 16.3888
42.0057 16.1004
42.1969 15.9201
42.3882 15.6742
42.5797 15.5321
42.7713 15.2831
42.963 15.1215
43.1549 14.889
43.3468 14.6013
43.5389 14.4685
43.7312 14.1812
43.9237 14.0573
44.1162 13.8493
44.3088 13.6265
44.5016 13.4184
44.6945 13.2684
44.8875 13.1153
45.0806 12.9278
45.2739 12.7665
45.4673 12.6031
45.6609 12.3331
45.8546 12.2281
46.0484 12.0505
46.2424 11.85
46.4365 11.6753
46.631 11.5128
46.8254 11.3091
47.0199 11.1457
47.2146 10.9829
47.4095 10.7931
47.6044 10.6306
47.7996 10.5398
47.9948 10.36
48.1902 10.1866
48.3858 10.0829
48.5815 9.94982
48.7774 9.79936
48.9734 9.65222
49.1696 9.5128
49.3661 9.36664
49.5626 9.19684
49.7592 9.09329
49.956 8.95878
50.153 8.76985
50.3501 8.66319
50.5474 8.53708
50.7448 8.39155
50.9424 8.28775
51.1402 8.15481
51.3381 7.99192
51.5362 7.89365
51.7344 7.75315
51.9328 7.5761
52.1316 7.45531
52.3304 7.36441
52.5293 7.25437
52.7284 7.1645
52.9276 6.97036
53.1271 6.91054
53.3267 6.7983
53.5265 6.64813
53.7264 6.51273
53.9266 6.37456
54.1269 6.29882
54.3274 6.20097
54.528 6.04491
54.7289 5.93182
54.9301 5.67576
55.1314 5.53508
55.3328 5.33028
55.5344 5.10445
55.7361 5.04757