Folder: NiFe_MOF_catalyst_paper/XRD (part 171)

File: Ni3Fe_FD0929.xy
TT I
1.27165 7.36271
1.45013 6.71284
1.62863 4.82156
1.80712 4.49681
1.98562 4.86961
2.16411 4.61606
2.34263 6.17218
2.52115 7.66688
2.69965 8.90434
2.87818 9.21013
3.05672 10.9175
3.23527 15.3031
3.4138 18.7955
3.59237 23.306
3.77094 25.7019
3.9495 29.2971
4.12809 34.1045
4.30669 97.6869
4.4853 52.9362
4.6639 55.0563
4.84253 67.5473
5.02118 86.1571
5.19981 368.196
5.37848 193.695
5.55716 100.37
5.73586 91.6462
5.91455 93.7619
6.09328 4678.52
6.27201 78.735
6.45075 69.4541
6.62952 62.4691
6.8083 58.8408
6.98711 55.0851
7.16591 55.9754
7.34475 66.0395
7.5236 53.4858
7.70247 56.2562
7.88135 56.6887
8.06026 61.8974
8.23919 68.4756
8.41812 82.4195
8.59709 1205.55
8.77609 95.8095
8.9551 88.959
9.13412 82.0743
9.31318 84.0124
9.49226 83.5906
9.67134 94.6732
9.85047 100.581
10.0296 327.741
10.2088 326.937
10.388 103.277
10.5672 543.34
10.7465 84.753
10.9257 76.7044
11.105 70.2603
11.2844 67.2823
11.4637 63.8304
11.6431 62.19
11.8225 61.6483
12.002 63.3191
12.1814 160.279
12.3609 65.6044
12.5405 64.1673
12.72 66.8579
12.8996 70.5747
13.0792 79.2594
13.2589 245.436
13.4386 114.566
13.6183 258.384
13.7981 91.9827
13.9779 74.5001
14.1577 70.6289
14.3376 69.1207
14.5175 67.6112
14.6974 69.371
14.8774 110.209
15.0574 137.968
15.2374 68.3288
15.4175 65.312
15.5976 64.8628
15.7778 93.7969
15.958 146.394
16.1382 60.4512
16.3185 56.9877
16.4988 54.49
16.6792 53.4128
16.8596 54.047
17.04 55.0089
17.2205 66.0707
17.401 67.6726
17.5815 58.2153
17.7622 60.2537
17.9428 72.2889
18.1237 140.523
18.3044 90.618
18.4852 72.8577
18.666 59.2018
18.8469 56.8621
19.0278 55.8839
19.2088 58.1596
19.3898 74.8675
19.5709 52.9388
19.752 52.2514
19.9332 55.3367
20.1144 69.7148
20.2957 64.3349
20.477 51.6463
20.6586 48.8187
20.84 47.9888
21.0215 47.7656
21.203 50.2447
21.3846 47.8524
21.5662 48.2334
21.7479 51.7645
21.9297 64.2112
22.1115 55.4603
22.2933 48.5994
22.4753 47.845
22.6572 48.032
22.8393 51.3343
23.0214 56.2566
23.2037 47.9756
23.3859 48.9175
23.5682 57.0141
23.7505 46.964
23.9329 44.547
24.1154 43.3812
24.2979 42.7353
24.4805 42.3716
24.6631 42.0578
24.8458 41.4647
25.0286 42.1106
25.2114 43.9403
25.3943 43.8578
25.5773 40.1534
25.7605 39.7615
25.9436 40.2163
26.1268 41.1597
26.31 39.3282
26.4933 40.0887
26.6767 41.5882
26.8601 39.7452
27.0437 38.2628
27.2272 37.8196
27.4109 37.7111
27.5946 37.7974
27.7784 37.2873
27.9623 37.8706
28.1462 38.1661
28.3304 36.5231
28.5145 35.3016
28.6987 35.0643
28.8829 34.8805
29.0673 34.0957
29.2517 33.76
29.4361 33.536
29.6207 32.5936
29.8053 32.3284
29.99 32.0523
30.1748 31.9305
30.3597 31.7202
30.5447 31.6892
30.7297 31.7138
30.915 31.091
31.1002 30.7157
31.2855 30.458
31.4708 30.3671
31.6563 29.8428
31.8418 29.6665
32.0275 29.4296
32.2132 28.9349
32.399 28.4844
32.5848 27.9943
32.7708 27.7106
32.9569 27.5585
33.143 27.3302
33.3293 26.9367
33.5158 26.5222
33.7022 26.12
33.8887 25.833
34.0753 25.5362
34.262 25.22
34.4488 24.8936
34.6357 24.5194
34.8227 24.2513
35.0098 24.0513
35.1969 23.7734
35.3842 23.6121
35.5716 23.3866
35.759 23.0798
35.9468 22.7487
36.1345 22.4943
36.3222 22.337
36.5101 22.1085
36.6981 21.7655
36.8861 21.4538
37.0743 21.1505
37.2626 20.9054
37.451 20.6098
37.6395 20.5041
37.8281 20.1997
38.0168 19.9396
38.2056 19.6442
38.3945 19.3496
38.5837 19.1909
38.7728 18.8981
38.9621 18.6256
39.1514 18.4267
39.3409 18.1794
39.5304 17.9541
39.7201 17.7201
39.9099 17.5601
40.0999 17.3174
40.2899 17.0619
40.48 16.8721
40.6703 16.6912
40.8607 16.4781
41.0512 16.1966
41.242 15.9747
41.4327 15.7542
41.6236 15.6111
41.8146 15.3758
42.0057 15.1619
42.1969 15.0093
42.3882 14.7857
42.5797 14.5572
42.7713 14.3616
42.963 14.1498
43.1549 13.9986
43.3468 13.7205
43.5389 13.5604
43.7312 13.3991
43.9237 13.1831
44.1162 13.0059
44.3088 12.8282
44.5016 12.6627
44.6945 12.4858
44.8875 12.332
45.0806 12.2238
45.2739 12.0148
45.4673 11.8413
45.6609 11.6264
45.8546 11.5207
46.0484 11.3141
46.2424 11.1285
46.4365 10.9765
46.631 10.831
46.8254 10.6845
47.0199 10.5584
47.2146 10.4175
47.4095 10.1865
47.6044 10.0609
47.7996 9.90711
47.9948 9.7404
48.1902 9.62224
48.3858 9.4894
48.5815 9.3632
48.7774 9.24471
48.9734 9.07304
49.1696 8.94668
49.3661 8.8019
49.5626 8.64387
49.7592 8.56719
49.956 8.4123
50.153 8.24955
50.3501 8.13652
50.5474 8.03647
50.7448 7.9171
50.9424 7.80423
51.1402 7.68664
51.3381 7.53817
51.5362 7.41926
51.7344 7.30578
51.9328 7.18839
52.1316 7.09221
52.3304 6.93406
52.5293 6.84074
52.7284 6.70445
52.9276 6.61008
53.1271 6.5285
53.3267 6.35208
53.5265 6.26308
53.7264 6.18973
53.9266 6.06797
54.1269 5.92689
54.3274 5.81816
54.528 5.70968
54.7289 5.54846
54.9301 5.37973
55.1314 5.27695
55.3328 5.05428
55.5344 4.86805
55.7361 4.73028

File: Ni3Fe_FD0930.xy
TT I
1.27165 6.97761
1.45013 6.0142
1.62863 5.8069
1.80712 5.09174
1.98562 4.39943
2.16411 5.04366
2.34263 5.60969
2.52115 7.88158
2.69965 8.91768
2.87818 8.83245
3.05672 10.9654
3.23527 15.2679
3.4138 18.8004
3.59237 22.6938
3.77094 25.3929
3.9495 29.3712
4.12809 33.758
4.30669 96.3456
4.4853 52.8404
4.6639 54.8698
4.84253 67.7742
5.02118 85.7165
5.19981 369.802
5.37848 193.722
5.55716 101.128
5.73586 91.8469
5.91455 93.5732
6.09328 4657.99
6.27201 78.5342
6.45075 69.7672
6.62952 62.2369
6.8083 58.783
6.98711 55.0736
7.16591 56.143
7.34475 65.4875
7.5236 53.4234
7.70247 56.5763
7.88135 57.0002
8.06026 61.9527
8.23919 68.5766
8.41812 82.3071
8.59709 1205.48
8.77609 95.8431
8.9551 88.7483
9.13412 81.9907
9.31318 84.0914
9.49226 83.6259
9.67134 94.8292
9.85047 100.488
10.0296 327.827
10.2088 326.044
10.388 103.279
10.5672 541.29
10.7465 84.9353
10.9257 76.9061
11.105 70.3369
11.2844 67.1809
11.4637 63.4945
11.6431 62.2958
11.8225 61.8535
12.002 63.4172
12.1814 159.544
12.3609 65.3706
12.5405 63.6658
12.72 66.9118
12.8996 70.5058
13.0792 79.3901
13.2589 245.769
13.4386 114.209
13.6183 258.659
13.7981 91.7722
13.9779 74.5722
14.1577 70.6632
14.3376 69.1289
14.5175 67.862
14.6974 69.5461
14.8774 110.422
15.0574 137.225
15.2374 68.1559
15.4175 65.237
15.5976 65.108
15.7778 93.814
15.958 145.454
16.1382 60.2283
16.3185 56.6414
16.4988 54.5296
16.6792 53.5336
16.8596 54.0346
17.04 55.1833
17.2205 66.0227
17.401 67.3047
17.5815 58.2191
17.7622 60.2949
17.9428 72.1795
18.1237 140.824
18.3044 90.7602
18.4852 72.855
18.666 59.2344
18.8469 57.2771
19.0278 55.7363
19.2088 58.2648
19.3898 74.937
19.5709 53.1611
19.752 52.3639
19.9332 55.2371
20.1144 69.1977
20.2957 64.1577
20.477 51.7675
20.6586 48.7611
20.84 47.9247
21.0215 47.8027
21.203 50.2938
21.3846 47.8082
21.5662 48.1461
21.7479 51.9452
21.9297 64.1674
22.1115 55.4953
22.2933 48.7578
22.4753 47.7818
22.6572 48.2023
22.8393 51.2362
23.0214 56.0558
23.2037 48.0168
23.3859 48.8439
23.5682 56.9705
23.7505 46.9359
23.9329 44.4315
24.1154 43.272
24.2979 42.5824
24.4805 42.3147
24.6631 42.0932
24.8458 41.5005
25.0286 42.1115
25.2114 43.8925
25.3943 43.8163
25.5773 40.2242
25.7605 39.7301
25.9436 40.0695
26.1268 41.3374
26.31 39.342
26.4933 40.0676
26.6767 41.5562
26.8601 39.6652
27.0437 38.114
27.2272 37.8772
27.4109 37.8033
27.5946 37.799
27.7784 37.2498
27.9623 37.9022
28.1462 38.0866
28.3304 36.553
28.5145 35.3085
28.6987 35.1001
28.8829 34.8083
29.0673 34.2313
29.2517 33.8211
29.4361 33.5898
29.6207 32.5122
29.8053 32.2158
29.99 32.1248
30.1748 31.9263
30.3597 31.7961
30.5447 31.5997
30.7297 31.6316
30.915 31.0084
31.1002 30.5241
31.2855 30.3478
31.4708 30.3084
31.6563 29.7731
31.8418 29.5928
32.0275 29.4415
32.2132 28.9672
32.399 28.383
32.5848 28.0108
32.7708 27.6156
32.9569 27.4403
33.143 27.3523
33.3293 26.9347
33.5158 26.5296
33.7022 26.167
33.8887 25.8707
34.0753 25.5835
34.262 25.3052
34.4488 24.8375
34.6357 24.5099
34.8227 24.2562
35.0098 24.1308
35.1969 23.7747
35.3842 23.6091
35.5716 23.4192
35.759 23.114
35.9468 22.7024
36.1345 22.5656
36.3222 22.3034
36.5101 22.0275
36.6981 21.7803
36.8861 21.4691
37.0743 21.1486
37.2626 20.802
37.451 20.6458
37.6395 20.4214
37.8281 20.0192
38.0168 19.8767
38.2056 19.6164
38.3945 19.3497
38.5837 19.0746
38.7728 18.8889
38.9621 18.6502
39.1514 18.3596
39.3409 18.1974
39.5304 17.8837
39.7201 17.6999
39.9099 17.5171
40.0999 17.2444
40.2899 17.0276
40.48 16.8036
40.6703 16.6014
40.8607 16.4161
41.0512 16.2247
41.242 15.9984
41.4327 15.7757
41.6236 15.5572
41.8146 15.3613
42.0057 15.1304
42.1969 14.9394
42.3882 14.7722
42.5797 14.61
42.7713 14.354
42.963 14.1756
43.1549 13.9906
43.3468 13.763
43.5389 13.6109
43.7312 13.4399
43.9237 13.2085
44.1162 13.0605
44.3088 12.8521
44.5016 12.6708
44.6945 12.5117
44.8875 12.3391
45.0806 12.1648
45.2739 11.9761
45.4673 11.8417
45.6609 11.6338
45.8546 11.5485
46.0484 11.3125
46.2424 11.1795
46.4365 11.0256
46.631 10.7845
46.8254 10.6606
47.0199 10.488
47.2146 10.3473
47.4095 10.2285
47.6044 10.0696
47.7996 9.95273
47.9948 9.78524
48.1902 9.60766
48.3858 9.46774
48.5815 9.34854
48.7774 9.20296
48.9734 9.08703
49.1696 8.91452
49.3661 8.81542
49.5626 8.65035
49.7592 8.51412
49.956 8.43237
50.153 8.30282
50.3501 8.15893
50.5474 8.02798
50.7448 7.90711
50.9424 7.78251
51.1402 7.67344
51.3381 7.51807
51.5362 7.40148
51.7344 7.2689
51.9328 7.15561
52.1316 7.02559
52.3304 6.90961
52.5293 6.80426
52.7284 6.69259
52.9276 6.57182
53.1271 6.51741
53.3267 6.35272
53.5265 6.27006
53.7264 6.18727
53.9266 6.04148
54.1269 5.97967
54.3274 5.83903
54.528 5.65836
54.7289 5.54147
54.9301 5.35659
55.1314 5.22908
55.3328 4.99289
55.5344 4.84805
55.7361 4.7469

File: Ni3Fe_FD0931.xy
TT I
1.27165 7.34155
1.45013 6.21429
1.62863 5.53946
1.80712 4.39414
1.98562 4.53862
2.16411 4.82576
2.34263 5.04822
2.52115 6.94184
2.69965 8.69561
2.87818 9.23656
3.05672 11.242
3.23527 15.0734
3.4138 18.3075
3.59237 23.1976
3.77094 25.5639
3.9495 29.3837
4.12809 33.5179
4.30669 94.9286
4.4853 52.8143
4.6639 54.4895
4.84253 67.7318
5.02118 86.3105
5.19981 370.935
5.37848 194.38
5.55716 101.476
5.73586 91.8005
5.91455 93.5552
6.09328 4662.26
6.27201 78.875
6.45075 69.6965
6.62952 62.5474
6.8083 59.1865
6.98711 54.6652
7.16591 55.8012
7.34475 65.1993
7.5236 53.6057
7.70247 56.5984
7.88135 56.6568
8.06026 61.8613
8.23919 68.5628
8.41812 82.3531
8.59709 1207.52
8.77609 95.9865
8.9551 88.7574
9.13412 81.9111
9.31318 84.1927
9.49226 83.7915
9.67134 94.5767
9.85047 101.063
10.0296 328.801
10.2088 324.637
10.388 103.354
10.5672 542.3
10.7465 84.6598
10.9257 77.1835
11.105 70.2835
11.2844 67.2143
11.4637 63.6665
11.6431 62.277
11.8225 61.7391
12.002 63.4755
12.1814 159.596
12.3609 65.2964
12.5405 64.0042
12.72 66.6534
12.8996 70.6281
13.0792 79.1216
13.2589 246.501
13.4386 113.994
13.6183 258.873
13.7981 91.5737
13.9779 74.4791
14.1577 70.7669
14.3376 69.2191
14.5175 67.801
14.6974 69.5567
14.8774 110.601
15.0574 136.731
15.2374 68.3206
15.4175 65.2455
15.5976 64.5282
15.7778 93.9996
15.958 145.344
16.1382 60.3842
16.3185 56.8661
16.4988 54.4468
16.6792 53.5448
16.8596 53.832
17.04 54.9423
17.2205 66.1507
17.401 67.6127
17.5815 58.1194
17.7622 60.355
17.9428 72.4146
18.1237 140.637
18.3044 90.6843
18.4852 72.6594
18.666 59.0974
18.8469 57.1153
19.0278 55.7929
19.2088 58.0926
19.3898 75.116
19.5709 52.9299
19.752 52.2547
19.9332 55.1123
20.1144 69.4644
20.2957 64.0087
20.477 51.7532
20.6586 48.7784
20.84 48.061
21.0215 47.6135
21.203 50.034
21.3846 47.9083
21.5662 48.1743
21.7479 51.7008
21.9297 64.1029
22.1115 55.4861
22.2933 48.7845
22.4753 47.8717
22.6572 48.2161
22.8393 51.3306
23.0214 56.0716
23.2037 47.7753
23.3859 48.9804
23.5682 56.9758
23.7505 46.8754
23.9329 44.4045
24.1154 43.3794
24.2979 42.7902
24.4805 42.2178
24.6631 42.0086
24.8458 41.4838
25.0286 42.2331
25.2114 44.063
25.3943 43.8427
25.5773 40.0504
25.7605 39.654
25.9436 40.2112
26.1268 41.1316
26.31 39.4925
26.4933 40.0764
26.6767 41.6209
26.8601 39.7317
27.0437 38.2586
27.2272 37.8174
27.4109 37.8351
27.5946 37.6514
27.7784 37.2216
27.9623 37.8329
28.1462 38.1761
28.3304 36.4282
28.5145 35.2557
28.6987 34.879
28.8829 34.8008
29.0673 34.0748
29.2517 33.8307
29.4361 33.4878
29.6207 32.5052
29.8053 32.3643
29.99 32.059
30.1748 31.8656
30.3597 31.6995
30.5447 31.6194
30.7297 31.6237
30.915 31.1634
31.1002 30.5569
31.2855 30.2251
31.4708 30.4219
31.6563 29.7518
31.8418 29.6614
32.0275 29.3861
32.2132 28.8582
32.399 28.3951
32.5848 28.0219
32.7708 27.6472
32.9569 27.4936
33.143 27.3887
33.3293 26.9172
33.5158 26.5259
33.7022 26.1045
33.8887 25.9193
34.0753 25.5387
34.262 25.1836
34.4488 24.8272
34.6357 24.5753
34.8227 24.2009
35.0098 24.0866
35.1969 23.7555
35.3842 23.577
35.5716 23.4078
35.759 23.0636
35.9468 22.7773
36.1345 22.5003
36.3222 22.2251
36.5101 22.0802
36.6981 21.6944
36.8861 21.3735
37.0743 21.0821
37.2626 20.9037
37.451 20.6532
37.6395 20.4315
37.8281 20.1585
38.0168 19.8882
38.2056 19.6132
38.3945 19.3271
38.5837 19.1605
38.7728 18.8952
38.9621 18.6107
39.1514 18.401
39.3409 18.1463
39.5304 17.9144
39.7201 17.7675
39.9099 17.4939
40.0999 17.3125
40.2899 17.085
40.48 16.7931
40.6703 16.65
40.8607 16.4835
41.0512 16.203
41.242 15.9814
41.4327 15.7637
41.6236 15.5642
41.8146 15.369
42.0057 15.1322
42.1969 14.9852
42.3882 14.8012
42.5797 14.5045
42.7713 14.4275
42.963 14.1646
43.1549 14.0158
43.3468 13.7522
43.5389 13.5871
43.7312 13.374
43.9237 13.1963
44.1162 13.002
44.3088 12.845
44.5016 12.637
44.6945 12.5169
44.8875 12.3078
45.0806 12.1551
45.2739 11.9672
45.4673 11.8288
45.6609 11.6324
45.8546 11.4945
46.0484 11.2692
46.2424 11.1518
46.4365 10.9801
46.631 10.7858
46.8254 10.636
47.0199 10.5463
47.2146 10.3807
47.4095 10.1891
47.6044 10.0481
47.7996 9.91128
47.9948 9.76907
48.1902 9.60888
48.3858 9.50103
48.5815 9.35614
48.7774 9.23073
48.9734 9.13071
49.1696 8.93332
49.3661 8.79943
49.5626 8.6284
49.7592 8.55668
49.956 8.4325
50.153 8.28846
50.3501 8.13693
50.5474 8.02363
50.7448 7.90293
50.9424 7.8017
51.1402 7.64585
51.3381 7.51181
51.5362 7.40581
51.7344 7.3015
51.9328 7.16524
52.1316 7.03178
52.3304 6.94905
52.5293 6.81213
52.7284 6.72037
52.9276 6.61623
53.1271 6.52101
53.3267 6.39177
53.5265 6.27777
53.7264 6.16689
53.9266 6.06036
54.1269 5.93407
54.3274 5.85479
54.528 5.70384
54.7289 5.56691
54.9301 5.33889
55.1314 5.31957
55.3328 5.04596
55.5344 4.87128
55.7361 4.75226

File: Ni3Fe_FD0932.xy
TT I
1.27165 7.35173
1.45013 6.07795
1.62863 5.16306
1.80712 5.20224
1.98562 4.93454
2.16411 5.19405
2.34263 5.2298
2.52115 7.57448
2.69965 8.66615
2.87818 8.2004
3.05672 11.393
3.23527 15.458
3.4138 19.0583
3.59237 23.3784
3.77094 25.2334
3.9495 29.2559
4.12809 33.9521
4.30669 93.3428
4.4853 52.7588
4.6639 55.0515
4.84253 67.9144
5.02118 86.0489
5.19981 369.999
5.37848 194.393
5.55716 101.1
5.73586 91.8614
5.91455 94.0392
6.09328 4660.85
6.27201 78.5887
6.45075 69.6161
6.62952 62.6991
6.8083 59.5471
6.98711 55.1128
7.16591 55.876
7.34475 64.968
7.5236 53.421
7.70247 56.4486
7.88135 56.7497
8.06026 62.0111
8.23919 68.3663
8.41812 82.0597
8.59709 1205.7
8.77609 95.8157
8.9551 88.8943
9.13412 82.3154
9.31318 84.3947
9.49226 83.7877
9.67134 94.6757
9.85047 100.565
10.0296 329.526
10.2088 325.026
10.388 103.135
10.5672 544.559
10.7465 84.9401
10.9257 77.112
11.105 70.5502
11.2844 67.3151
11.4637 63.8334
11.6431 62.2717
11.8225 61.8571
12.002 63.419
12.1814 159.248
12.3609 65.2837
12.5405 63.9763
12.72 66.981
12.8996 70.5178
13.0792 79.6531
13.2589 245.924
13.4386 114.173
13.6183 259.621
13.7981 91.5301
13.9779 74.6637
14.1577 70.7233
14.3376 69.0971
14.5175 67.7192
14.6974 69.6631
14.8774 110.585
15.0574 136.57
15.2374 68.2978
15.4175 65.5287
15.5976 64.8221
15.7778 93.7209
15.958 145.477
16.1382 60.1464
16.3185 56.9455
16.4988 54.3081
16.6792 53.5412
16.8596 54.013
17.04 55.1348
17.2205 66.2158
17.401 67.6731
17.5815 58.1628
17.7622 60.5099
17.9428 72.3204
18.1237 140.668
18.3044 90.7129
18.4852 72.6752
18.666 59.1702
18.8469 56.9631
19.0278 55.7638
19.2088 58.239
19.3898 74.8964
19.5709 53.0733
19.752 52.2807
19.9332 55.3464
20.1144 69.3977
20.2957 63.8527
20.477 51.9107
20.6586 48.7505
20.84 48.0578
21.0215 47.7644
21.203 50.2999
21.3846 47.8535
21.5662 48.1921
21.7479 51.8834
21.9297 64.199
22.1115 55.4815
22.2933 48.7953
22.4753 47.7808
22.6572 48.212
22.8393 51.1873
23.0214 56.0326
23.2037 48.0668
23.3859 48.995
23.5682 56.8826
23.7505 46.9392
23.9329 44.4777
24.1154 43.2583
24.2979 42.7143
24.4805 42.1452
24.6631 42.0653
24.8458 41.438
25.0286 42.2007
25.2114 43.9243
25.3943 43.7971
25.5773 40.2505
25.7605 39.7483
25.9436 40.2505
26.1268 41.1791
26.31 39.4422
26.4933 40.1554
26.6767 41.5782
26.8601 39.7195
27.0437 38.0957
27.2272 37.9421
27.4109 37.7819
27.5946 37.6978
27.7784 37.2369
27.9623 37.9202
28.1462 38.0642
28.3304 36.5155
28.5145 35.3288
28.6987 34.9581
28.8829 34.6867
29.0673 34.0506
29.2517 33.7656
29.4361 33.5564
29.6207 32.4711
29.8053 32.3536
29.99 31.9394
30.1748 31.9344
30.3597 31.6154
30.5447 31.7591
30.7297 31.6662
30.915 31.073
31.1002 30.6421
31.2855 30.3769
31.4708 30.4699
31.6563 29.7667
31.8418 29.5549
32.0275 29.4137
32.2132 28.9231
32.399 28.5096
32.5848 27.9815
32.7708 27.6432
32.9569 27.6099
33.143 27.3195
33.3293 26.953
33.5158 26.5371
33.7022 26.0562
33.8887 25.9389
34.0753 25.4313
34.262 25.2919
34.4488 24.7619
34.6357 24.5282
34.8227 24.3147
35.0098 24.1741
35.1969 23.8476
35.3842 23.6162
35.5716 23.3055
35.759 23.0749
35.9468 22.7301
36.1345 22.4809
36.3222 22.2969
36.5101 22.0683
36.6981 21.696
36.8861 21.442
37.0743 21.1987
37.2626 20.8774
37.451 20.6174
37.6395 20.5051
37.8281 20.1242
38.0168 19.8697
38.2056 19.6143
38.3945 19.3743
38.5837 19.139
38.7728 18.8217
38.9621 18.6302
39.1514 18.4027
39.3409 18.1705
39.5304 17.9664
39.7201 17.7245
39.9099 17.5157
40.0999 17.2952
40.2899 17.1159
40.48 16.8728
40.6703 16.6298
40.8607 16.4581
41.0512 16.2148
41.242 16.0034
41.4327 15.8299
41.6236 15.593
41.8146 15.4313
42.0057 15.1573
42.1969 14.948
42.3882 14.7675
42.5797 14.5459
42.7713 14.3839
42.963 14.1909
43.1549 13.9698
43.3468 13.7383
43.5389 13.6091
43.7312 13.4114
43.9237 13.2216
44.1162 13.0397
44.3088 12.8381
44.5016 12.6433
44.6945 12.5271
44.8875 12.3606
45.0806 12.1401
45.2739 11.9769
45.4673 11.8312
45.6609 11.6404
45.8546 11.4805
46.0484 11.2952
46.2424 11.1761
46.4365 10.9986
46.631 10.7996
46.8254 10.6824
47.0199 10.5098
47.2146 10.3615
47.4095 10.224
47.6044 10.0664
47.7996 9.91863
47.9948 9.73955
48.1902 9.63809
48.3858 9.47403
48.5815 9.36035
48.7774 9.21596
48.9734 9.10064
49.1696 8.93793
49.3661 8.79943
49.5626 8.65471
49.7592 8.51121
49.956 8.42634
50.153 8.31418
50.3501 8.15059
50.5474 8.02904
50.7448 7.90775
50.9424 7.77242
51.1402 7.67126
51.3381 7.52595
51.5362 7.44343
51.7344 7.30337
51.9328 7.1421
52.1316 7.06272
52.3304 6.94111
52.5293 6.84259
52.7284 6.7286
52.9276 6.59307
53.1271 6.51995
53.3267 6.38649
53.5265 6.31504
53.7264 6.15327
53.9266 6.09192
54.1269 5.95258
54.3274 5.85455
54.528 5.71387
54.7289 5.5412
54.9301 5.35311
55.1314 5.29641
55.3328 5.03528
55.5344 4.85412
55.7361 4.7609

File: Ni3Fe_FD0933.xy
TT I
1.27165 7.14491
1.45013 5.96099
1.62863 5.14951
1.80712 4.18559
1.98562 4.17421
2.16411 4.61767
2.34263 4.63286
2.52115 7.01403
2.69965 8.84091
2.87818 9.22218
3.05672 11.0675
3.23527 15.6291
3.4138 18.6329
3.59237 23.0703
3.77094 25.5662
3.9495 29.113
4.12809 33.6919
4.30669 92.1208
4.4853 52.4391
4.6639 54.6982
4.84253 67.8979
5.02118 85.9411
5.19981 370.247
5.37848 194.614
5.55716 100.793
5.73586 92.1275
5.91455 93.5577
6.09328 4666.66
6.27201 78.6003
6.45075 69.8014
6.62952 62.4107
6.8083 59.6228
6.98711 54.8778
7.16591 55.7154
7.34475 64.8426
7.5236 53.5337
7.70247 56.4793
7.88135 56.9057
8.06026 61.7911
8.23919 68.3633
8.41812 82.0559
8.59709 1204.9
8.77609 95.7585
8.9551 89.0802
9.13412 82.2741
9.31318 84.3352
9.49226 83.9224
9.67134 94.7562
9.85047 100.646
10.0296 329.978
10.2088 323.9
10.388 103.182
10.5672 547.544
10.7465 84.5867
10.9257 76.9893
11.105 70.4882
11.2844 67.2275
11.4637 63.5661
11.6431 62.4889
11.8225 62.1004
12.002 63.5917
12.1814 159.612
12.3609 65.3211
12.5405 63.9751
12.72 66.996
12.8996 70.7296
13.0792 79.7839
13.2589 246.745
13.4386 114.343
13.6183 259.726
13.7981 91.603
13.9779 74.4975
14.1577 70.6899
14.3376 68.8649
14.5175 67.7874
14.6974 69.6772
14.8774 110.729
15.0574 136.283
15.2374 68.4652
15.4175 65.3095
15.5976 64.7011
15.7778 93.7157
15.958 145.065
16.1382 60.3357
16.3185 56.6191
16.4988 54.4815
16.6792 53.2975
16.8596 53.981
17.04 55.089
17.2205 66.2347
17.401 67.4394
17.5815 58.3036
17.7622 60.356
17.9428 72.418
18.1237 140.322
18.3044 90.6974
18.4852 72.4828
18.666 59.2483
18.8469 57.1324
19.0278 55.5459
19.2088 58.0038
19.3898 74.8528
19.5709 53.2003
19.752 52.4617
19.9332 55.3424
20.1144 69.2932
20.2957 64.1656
20.477 51.7658
20.6586 48.6845
20.84 48.0482
21.0215 47.7106
21.203 50.2093
21.3846 48.0537
21.5662 48.2565
21.7479 51.891
21.9297 64.0233
22.1115 55.6843
22.2933 48.5764
22.4753 47.8847
22.6572 48.067
22.8393 51.3111
23.0214 55.9611
23.2037 47.8673
23.3859 48.8885
23.5682 56.9747
23.7505 46.9758
23.9329 44.4123
24.1154 43.2886
24.2979 42.6462
24.4805 42.3295
24.6631 42.0075
24.8458 41.4679
25.0286 42.136
25.2114 43.829
25.3943 43.8337
25.5773 40.1743
25.7605 39.8039
25.9436 40.3394
26.1268 41.0539
26.31 39.2463
26.4933 40.0918
26.6767 41.5404
26.8601 39.8124
27.0437 38.2147
27.2272 37.8586
27.4109 37.7176
27.5946 37.5623
27.7784 37.252
27.9623 37.9233
28.1462 38.2386
28.3304 36.3717
28.5145 35.2619
28.6987 34.9877
28.8829 34.8063
29.0673 34.0721
29.2517 33.8313
29.4361 33.6193
29.6207 32.5397
29.8053 32.2495
29.99 32.024
30.1748 31.8962
30.3597 31.7681
30.5447 31.7039
30.7297 31.5998
30.915 31.019
31.1002 30.6025
31.2855 30.3797
31.4708 30.2946
31.6563 29.8316
31.8418 29.662
32.0275 29.3766
32.2132 28.7901
32.399 28.3782
32.5848 28.0081
32.7708 27.703
32.9569 27.5331
33.143 27.3461
33.3293 26.8991
33.5158 26.5369
33.7022 26.1396
33.8887 25.8891
34.0753 25.512
34.262 25.2743
34.4488 24.9073
34.6357 24.6843
34.8227 24.2604
35.0098 24.027
35.1969 23.8053
35.3842 23.6101
35.5716 23.2885
35.759 23.0474
35.9468 22.7511
36.1345 22.4896
36.3222 22.2352
36.5101 22.0722
36.6981 21.7247
36.8861 21.3598
37.0743 21.0571
37.2626 20.855
37.451 20.5854
37.6395 20.4908
37.8281 20.0703
38.0168 19.8848
38.2056 19.5979
38.3945 19.3725
38.5837 19.084
38.7728 18.8023
38.9621 18.624
39.1514 18.3639
39.3409 18.1279
39.5304 17.9173
39.7201 17.7519
39.9099 17.5235
40.0999 17.2793
40.2899 17.047
40.48 16.8091
40.6703 16.566
40.8607 16.4261
41.0512 16.1938
41.242 15.9695
41.4327 15.8202
41.6236 15.5132
41.8146 15.4028
42.0057 15.186
42.1969 14.9479
42.3882 14.8441
42.5797 14.5911
42.7713 14.3323
42.963 14.1787
43.1549 13.9734
43.3468 13.7375
43.5389 13.5822
43.7312 13.3961
43.9237 13.229
44.1162 13.0053
44.3088 12.8506
44.5016 12.6435
44.6945 12.4783
44.8875 12.3484
45.0806 12.0918
45.2739 12.0039
45.4673 11.7832
45.6609 11.665
45.8546 11.5327
46.0484 11.3283
46.2424 11.1628
46.4365 11.0114
46.631 10.8252
46.8254 10.6717
47.0199 10.5007
47.2146 10.3594
47.4095 10.208
47.6044 10.0687
47.7996 9.89238
47.9948 9.73679
48.1902 9.59869
48.3858 9.49145
48.5815 9.39274
48.7774 9.20408
48.9734 9.09124
49.1696 8.94535
49.3661 8.78006
49.5626 8.64671
49.7592 8.54509
49.956 8.42707
50.153 8.27923
50.3501 8.15137
50.5474 8.04716
50.7448 7.90901
50.9424 7.75726
51.1402 7.67297
51.3381 7.51564
51.5362 7.41163
51.7344 7.29234
51.9328 7.18421
52.1316 7.04344
52.3304 6.93034
52.5293 6.85768
52.7284 6.73865
52.9276 6.61781
53.1271 6.52104
53.3267 6.3923
53.5265 6.24601
53.7264 6.18181
53.9266 6.03492
54.1269 5.98336
54.3274 5.79747
54.528 5.73271
54.7289 5.62596
54.9301 5.40336
55.1314 5.27592
55.3328 5.02519
55.5344 4.89132
55.7361 4.74296