Folder: NiFe_MOF_catalyst_paper/XRD (part 180)

File: Ni3Fe_FD0974.xy
TT I
1.27165 7.52772
1.45013 5.67233
1.62863 5.07146
1.80712 4.82784
1.98562 4.79459
2.16411 5.18158
2.34263 5.99975
2.52115 7.5327
2.69965 9.02375
2.87818 8.99898
3.05672 11.5606
3.23527 15.1641
3.4138 18.9349
3.59237 24.2501
3.77094 25.7535
3.9495 29.8234
4.12809 34.3537
4.30669 216.075
4.4853 64.8012
4.6639 54.5097
4.84253 65.9551
5.02118 84.3008
5.19981 275.315
5.37848 172.621
5.55716 99.4312
5.73586 89.8505
5.91455 90.5009
6.09328 4601.32
6.27201 80.7981
6.45075 66.2136
6.62952 61.8011
6.8083 57.7448
6.98711 54.9082
7.16591 54.3998
7.34475 89.8717
7.5236 54.0727
7.70247 55.348
7.88135 56.7839
8.06026 60.87
8.23919 68.0516
8.41812 82.9147
8.59709 1130.48
8.77609 96.3373
8.9551 90.0029
9.13412 80.2714
9.31318 81.1091
9.49226 83.0206
9.67134 96.5974
9.85047 97.6754
10.0296 295.019
10.2088 358.945
10.388 101.996
10.5672 527.515
10.7465 84.6349
10.9257 76.9329
11.105 70.5899
11.2844 69.1248
11.4637 63.7786
11.6431 62.5224
11.8225 61.4756
12.002 62.1412
12.1814 153.302
12.3609 69.4265
12.5405 63.3268
12.72 68.7469
12.8996 69.5784
13.0792 76.7306
13.2589 232.594
13.4386 119.192
13.6183 247.124
13.7981 94.7718
13.9779 74.2877
14.1577 71.0398
14.3376 69.9725
14.5175 67.2234
14.6974 69.1305
14.8774 105.484
15.0574 146.556
15.2374 69.5688
15.4175 65.1847
15.5976 64.3486
15.7778 90.2329
15.958 150.849
16.1382 61.325
16.3185 57.52
16.4988 54.556
16.6792 53.5521
16.8596 54.1858
17.04 54.5109
17.2205 65.0827
17.401 69.0758
17.5815 58.0324
17.7622 59.912
17.9428 70.683
18.1237 137.718
18.3044 89.1417
18.4852 75.4321
18.666 59.0916
18.8469 57.0569
19.0278 55.7351
19.2088 58.0772
19.3898 75.2573
19.5709 52.9628
19.752 52.2594
19.9332 54.8415
20.1144 68.6569
20.2957 63.3397
20.477 52.3945
20.6586 48.7453
20.84 47.7537
21.0215 47.5135
21.203 50.1833
21.3846 47.9418
21.5662 47.7832
21.7479 51.2648
21.9297 63.4994
22.1115 55.3169
22.2933 48.8408
22.4753 47.8829
22.6572 47.7931
22.8393 50.8349
23.0214 56.1168
23.2037 47.7143
23.3859 48.3959
23.5682 56.5061
23.7505 47.3233
23.9329 44.2467
24.1154 43.2656
24.2979 42.4957
24.4805 42.0607
24.6631 42.0367
24.8458 41.4828
25.0286 41.9621
25.2114 43.693
25.3943 43.6699
25.5773 40.1148
25.7605 39.7126
25.9436 39.9994
26.1268 40.9407
26.31 39.3176
26.4933 39.9048
26.6767 41.3272
26.8601 39.7009
27.0437 38.0207
27.2272 37.8233
27.4109 37.6485
27.5946 37.4956
27.7784 36.9855
27.9623 37.9005
28.1462 38.0476
28.3304 36.5209
28.5145 35.3251
28.6987 34.9354
28.8829 34.6928
29.0673 34.0224
29.2517 33.6865
29.4361 33.6581
29.6207 32.5211
29.8053 32.247
29.99 31.9756
30.1748 31.8639
30.3597 31.692
30.5447 31.4946
30.7297 31.6791
30.915 30.9949
31.1002 30.5481
31.2855 30.3382
31.4708 30.2664
31.6563 29.8056
31.8418 29.5846
32.0275 29.3438
32.2132 28.7802
32.399 28.3677
32.5848 27.879
32.7708 27.6484
32.9569 27.5139
33.143 27.31
33.3293 26.8675
33.5158 26.4969
33.7022 26.1354
33.8887 25.8012
34.0753 25.4834
34.262 25.1924
34.4488 24.8181
34.6357 24.4355
34.8227 24.2299
35.0098 24.0074
35.1969 23.7649
35.3842 23.631
35.5716 23.393
35.759 23.0423
35.9468 22.7769
36.1345 22.49
36.3222 22.2499
36.5101 22.0445
36.6981 21.7111
36.8861 21.4497
37.0743 21.1281
37.2626 20.8949
37.451 20.627
37.6395 20.4748
37.8281 20.0514
38.0168 19.8353
38.2056 19.6198
38.3945 19.3714
38.5837 19.1072
38.7728 18.9201
38.9621 18.6326
39.1514 18.2891
39.3409 18.1269
39.5304 17.9406
39.7201 17.722
39.9099 17.5522
40.0999 17.2904
40.2899 17.0794
40.48 16.8044
40.6703 16.6143
40.8607 16.486
41.0512 16.239
41.242 16.0228
41.4327 15.7924
41.6236 15.516
41.8146 15.3856
42.0057 15.1477
42.1969 14.9836
42.3882 14.7658
42.5797 14.5494
42.7713 14.4217
42.963 14.1942
43.1549 14.0026
43.3468 13.7537
43.5389 13.5384
43.7312 13.3748
43.9237 13.2131
44.1162 13.088
44.3088 12.853
44.5016 12.6679
44.6945 12.5142
44.8875 12.3614
45.0806 12.172
45.2739 12.0196
45.4673 11.7917
45.6609 11.6392
45.8546 11.4808
46.0484 11.3434
46.2424 11.1912
46.4365 11.0311
46.631 10.8444
46.8254 10.6638
47.0199 10.5154
47.2146 10.3632
47.4095 10.2175
47.6044 10.0557
47.7996 9.91301
47.9948 9.7677
48.1902 9.60671
48.3858 9.49262
48.5815 9.39175
48.7774 9.20259
48.9734 9.09592
49.1696 8.93546
49.3661 8.79539
49.5626 8.63922
49.7592 8.54162
49.956 8.43431
50.153 8.291
50.3501 8.16463
50.5474 8.02503
50.7448 7.90733
50.9424 7.82243
51.1402 7.69658
51.3381 7.51842
51.5362 7.40809
51.7344 7.31033
51.9328 7.16651
52.1316 7.0138
52.3304 6.96494
52.5293 6.8508
52.7284 6.72027
52.9276 6.59767
53.1271 6.53897
53.3267 6.39511
53.5265 6.24962
53.7264 6.18382
53.9266 6.08983
54.1269 5.96166
54.3274 5.83146
54.528 5.73171
54.7289 5.53823
54.9301 5.38383
55.1314 5.17834
55.3328 5.04618
55.5344 4.88722
55.7361 4.76953

File: Ni3Fe_FD0976.xy
TT I
1.27165 6.86955
1.45013 5.82443
1.62863 5.30006
1.80712 5.12727
1.98562 4.68625
2.16411 5.23196
2.34263 5.28791
2.52115 7.98628
2.69965 8.2801
2.87818 9.38419
3.05672 11.1393
3.23527 15.073
3.4138 18.8947
3.59237 23.554
3.77094 26.0512
3.9495 29.6865
4.12809 34.5064
4.30669 219.401
4.4853 65.0882
4.6639 54.5745
4.84253 66.1553
5.02118 84.7989
5.19981 274.659
5.37848 172.421
5.55716 99.4821
5.73586 89.3742
5.91455 90.7195
6.09328 4566.94
6.27201 80.9505
6.45075 65.7797
6.62952 61.7424
6.8083 57.6742
6.98711 55.0465
7.16591 54.2916
7.34475 90.6829
7.5236 53.7569
7.70247 55.1414
7.88135 56.6456
8.06026 61.0986
8.23919 68.2847
8.41812 82.9215
8.59709 1121.26
8.77609 96.3599
8.9551 90.1853
9.13412 80.3725
9.31318 80.6764
9.49226 82.7934
9.67134 96.9071
9.85047 97.4854
10.0296 294.086
10.2088 362.697
10.388 101.774
10.5672 522.727
10.7465 84.7537
10.9257 76.991
11.105 70.389
11.2844 69.1949
11.4637 63.7178
11.6431 62.1778
11.8225 61.2482
12.002 62.1083
12.1814 153.372
12.3609 69.1748
12.5405 63.3433
12.72 68.8058
12.8996 69.5641
13.0792 76.857
13.2589 232.174
13.4386 119.777
13.6183 245.756
13.7981 94.7165
13.9779 74.257
14.1577 71.0035
14.3376 70.2606
14.5175 67.3991
14.6974 68.585
14.8774 105.117
15.0574 146.791
15.2374 69.6624
15.4175 65.0324
15.5976 64.2756
15.7778 89.9313
15.958 151.233
16.1382 61.362
16.3185 57.64
16.4988 54.3719
16.6792 53.4003
16.8596 54.2332
17.04 54.5537
17.2205 64.8491
17.401 68.8287
17.5815 58.0072
17.7622 59.7655
17.9428 70.6696
18.1237 138.561
18.3044 89.094
18.4852 75.6563
18.666 59.2201
18.8469 56.8875
19.0278 55.6359
19.2088 57.9962
19.3898 75.2327
19.5709 53.0999
19.752 52.1656
19.9332 54.8103
20.1144 68.7328
20.2957 63.3057
20.477 52.6188
20.6586 48.7227
20.84 47.8824
21.0215 47.5891
21.203 50.0916
21.3846 47.7776
21.5662 47.73
21.7479 51.2374
21.9297 63.5568
22.1115 55.2108
22.2933 48.8328
22.4753 47.8204
22.6572 47.6941
22.8393 50.6984
23.0214 56.1643
23.2037 47.8313
23.3859 48.5012
23.5682 56.4037
23.7505 47.2941
23.9329 44.4103
24.1154 43.2553
24.2979 42.6022
24.4805 42.1537
24.6631 41.9538
24.8458 41.359
25.0286 41.9476
25.2114 43.7332
25.3943 43.8762
25.5773 40.1787
25.7605 39.6767
25.9436 39.9184
26.1268 40.9935
26.31 39.35
26.4933 39.7912
26.6767 41.4391
26.8601 39.7432
27.0437 38.1996
27.2272 37.7851
27.4109 37.6321
27.5946 37.6567
27.7784 37.0638
27.9623 37.7263
28.1462 38.0069
28.3304 36.4086
28.5145 35.3268
28.6987 34.9688
28.8829 34.7635
29.0673 34.0231
29.2517 33.6523
29.4361 33.6082
29.6207 32.5358
29.8053 32.2032
29.99 32.0742
30.1748 31.8058
30.3597 31.6219
30.5447 31.6274
30.7297 31.6362
30.915 31.0229
31.1002 30.5976
31.2855 30.2281
31.4708 30.301
31.6563 29.7847
31.8418 29.5832
32.0275 29.2878
32.2132 28.8396
32.399 28.4157
32.5848 27.9555
32.7708 27.6275
32.9569 27.5132
33.143 27.2139
33.3293 26.8814
33.5158 26.5721
33.7022 26.0623
33.8887 25.8123
34.0753 25.5104
34.262 25.2413
34.4488 24.8581
34.6357 24.5382
34.8227 24.1989
35.0098 24.023
35.1969 23.7348
35.3842 23.573
35.5716 23.344
35.759 23.0171
35.9468 22.6887
36.1345 22.4548
36.3222 22.1914
36.5101 21.9722
36.6981 21.6816
36.8861 21.4576
37.0743 21.1216
37.2626 20.8965
37.451 20.6027
37.6395 20.3685
37.8281 20.1734
38.0168 19.8302
38.2056 19.5842
38.3945 19.2316
38.5837 19.0564
38.7728 18.821
38.9621 18.596
39.1514 18.3672
39.3409 18.1101
39.5304 17.8674
39.7201 17.7023
39.9099 17.5577
40.0999 17.2789
40.2899 17.0609
40.48 16.8784
40.6703 16.6572
40.8607 16.503
41.0512 16.187
41.242 15.9316
41.4327 15.7908
41.6236 15.5753
41.8146 15.3138
42.0057 15.1181
42.1969 14.9778
42.3882 14.7961
42.5797 14.5761
42.7713 14.4009
42.963 14.1946
43.1549 13.9718
43.3468 13.7544
43.5389 13.6774
43.7312 13.3797
43.9237 13.205
44.1162 13.0378
44.3088 12.8689
44.5016 12.6717
44.6945 12.4991
44.8875 12.3389
45.0806 12.1516
45.2739 11.9962
45.4673 11.8343
45.6609 11.6609
45.8546 11.5317
46.0484 11.3523
46.2424 11.1564
46.4365 11.0038
46.631 10.8435
46.8254 10.6734
47.0199 10.5025
47.2146 10.3626
47.4095 10.2558
47.6044 10.0603
47.7996 9.91363
47.9948 9.72054
48.1902 9.62982
48.3858 9.48651
48.5815 9.37766
48.7774 9.20824
48.9734 9.08759
49.1696 8.94944
49.3661 8.77261
49.5626 8.62256
49.7592 8.56101
49.956 8.41815
50.153 8.29719
50.3501 8.1741
50.5474 8.05678
50.7448 7.93841
50.9424 7.78224
51.1402 7.66141
51.3381 7.56866
51.5362 7.37993
51.7344 7.28103
51.9328 7.17506
52.1316 7.04101
52.3304 6.95053
52.5293 6.84753
52.7284 6.69163
52.9276 6.61891
53.1271 6.51467
53.3267 6.42174
53.5265 6.30253
53.7264 6.16313
53.9266 6.09473
54.1269 5.92333
54.3274 5.86365
54.528 5.69503
54.7289 5.52846
54.9301 5.45009
55.1314 5.28005
55.3328 5.05704
55.5344 4.89699
55.7361 4.69523

File: Ni3Fe_FD0977.xy
TT I
1.27165 7.20445
1.45013 6.14938
1.62863 4.73751
1.80712 4.56504
1.98562 4.37172
2.16411 5.25025
2.34263 5.86705
2.52115 6.86075
2.69965 8.67868
2.87818 8.68919
3.05672 10.9681
3.23527 15.5163
3.4138 18.8241
3.59237 24.0327
3.77094 26.314
3.9495 29.7825
4.12809 34.7481
4.30669 221.292
4.4853 64.9502
4.6639 54.4934
4.84253 66.1691
5.02118 84.5912
5.19981 274.99
5.37848 172.372
5.55716 99.401
5.73586 90.1591
5.91455 90.2967
6.09328 4572.95
6.27201 81.3415
6.45075 66.0173
6.62952 61.9151
6.8083 57.7845
6.98711 55.0428
7.16591 54.7808
7.34475 91.0561
7.5236 53.9575
7.70247 55.4486
7.88135 56.6355
8.06026 61.2462
8.23919 68.2048
8.41812 83.3824
8.59709 1123.27
8.77609 96.7667
8.9551 90.4877
9.13412 80.5997
9.31318 80.9085
9.49226 83.1085
9.67134 96.9017
9.85047 97.976
10.0296 295.317
10.2088 361.061
10.388 101.953
10.5672 525.202
10.7465 84.774
10.9257 76.9277
11.105 70.4508
11.2844 69.4019
11.4637 63.7856
11.6431 62.6759
11.8225 61.2667
12.002 61.9225
12.1814 154.228
12.3609 69.2647
12.5405 63.4117
12.72 68.6822
12.8996 69.4462
13.0792 76.765
13.2589 232.428
13.4386 119.326
13.6183 245.679
13.7981 94.373
13.9779 74.3781
14.1577 70.9002
14.3376 70.3582
14.5175 67.4859
14.6974 68.7528
14.8774 105.089
15.0574 145.738
15.2374 69.8439
15.4175 64.8535
15.5976 64.3384
15.7778 89.9186
15.958 150.855
16.1382 61.4381
16.3185 57.6387
16.4988 54.4568
16.6792 53.4109
16.8596 54.0024
17.04 54.6674
17.2205 64.7879
17.401 68.5342
17.5815 58.1436
17.7622 60.0499
17.9428 70.4893
18.1237 138.979
18.3044 89.2147
18.4852 75.5108
18.666 59.1132
18.8469 56.8259
19.0278 55.7744
19.2088 57.8953
19.3898 75.1068
19.5709 53.0575
19.752 52.1271
19.9332 54.7738
20.1144 68.7604
20.2957 63.337
20.477 52.2537
20.6586 48.7522
20.84 47.9709
21.0215 47.5485
21.203 50.098
21.3846 47.9713
21.5662 47.6364
21.7479 51.2447
21.9297 63.5018
22.1115 55.1861
22.2933 48.7091
22.4753 47.9295
22.6572 47.701
22.8393 50.6571
23.0214 56.2228
23.2037 47.7073
23.3859 48.5559
23.5682 56.4732
23.7505 47.2647
23.9329 44.4039
24.1154 43.277
24.2979 42.6156
24.4805 42.1435
24.6631 41.856
24.8458 41.3069
25.0286 42.1188
25.2114 43.6963
25.3943 43.8063
25.5773 40.096
25.7605 39.6818
25.9436 40.0564
26.1268 40.8691
26.31 39.2484
26.4933 39.867
26.6767 41.3475
26.8601 39.6149
27.0437 38.1631
27.2272 37.7884
27.4109 37.6253
27.5946 37.5853
27.7784 37.1753
27.9623 37.6899
28.1462 38.0432
28.3304 36.391
28.5145 35.3017
28.6987 34.9189
28.8829 34.8023
29.0673 34.0518
29.2517 33.6534
29.4361 33.5278
29.6207 32.5349
29.8053 32.2383
29.99 31.9339
30.1748 31.8801
30.3597 31.6845
30.5447 31.4972
30.7297 31.6289
30.915 30.9251
31.1002 30.5879
31.2855 30.2676
31.4708 30.3185
31.6563 29.755
31.8418 29.4715
32.0275 29.2669
32.2132 28.7528
32.399 28.4189
32.5848 27.9959
32.7708 27.6402
32.9569 27.4912
33.143 27.2373
33.3293 26.8603
33.5158 26.5777
33.7022 26.0462
33.8887 25.8448
34.0753 25.4848
34.262 25.1276
34.4488 24.7434
34.6357 24.5222
34.8227 24.2048
35.0098 24.0315
35.1969 23.7432
35.3842 23.5227
35.5716 23.3626
35.759 22.9969
35.9468 22.6804
36.1345 22.4881
36.3222 22.1923
36.5101 21.9912
36.6981 21.7124
36.8861 21.4515
37.0743 21.1104
37.2626 20.9126
37.451 20.6359
37.6395 20.4727
37.8281 20.1001
38.0168 19.8184
38.2056 19.5722
38.3945 19.3378
38.5837 19.0873
38.7728 18.8036
38.9621 18.6118
39.1514 18.3523
39.3409 18.1576
39.5304 17.96
39.7201 17.7092
39.9099 17.4497
40.0999 17.27
40.2899 17.0383
40.48 16.9163
40.6703 16.6118
40.8607 16.4518
41.0512 16.1985
41.242 15.9787
41.4327 15.7849
41.6236 15.5194
41.8146 15.3784
42.0057 15.1763
42.1969 14.9341
42.3882 14.7727
42.5797 14.5358
42.7713 14.3575
42.963 14.1493
43.1549 13.9536
43.3468 13.7494
43.5389 13.6079
43.7312 13.3475
43.9237 13.2141
44.1162 13.0636
44.3088 12.8593
44.5016 12.6556
44.6945 12.5254
44.8875 12.3191
45.0806 12.0708
45.2739 11.9753
45.4673 11.8319
45.6609 11.637
45.8546 11.5551
46.0484 11.3329
46.2424 11.1253
46.4365 11.0092
46.631 10.8458
46.8254 10.6393
47.0199 10.481
47.2146 10.3943
47.4095 10.1931
47.6044 10.0482
47.7996 9.92123
47.9948 9.74881
48.1902 9.63521
48.3858 9.48504
48.5815 9.37345
48.7774 9.22116
48.9734 9.0972
49.1696 8.93754
49.3661 8.80281
49.5626 8.67113
49.7592 8.51302
49.956 8.40346
50.153 8.31865
50.3501 8.13417
50.5474 8.0283
50.7448 7.90408
50.9424 7.78467
51.1402 7.69828
51.3381 7.54007
51.5362 7.41704
51.7344 7.31232
51.9328 7.16141
52.1316 7.06643
52.3304 6.94053
52.5293 6.85641
52.7284 6.74691
52.9276 6.61104
53.1271 6.51128
53.3267 6.42313
53.5265 6.27652
53.7264 6.18644
53.9266 6.07715
54.1269 5.95376
54.3274 5.8322
54.528 5.69254
54.7289 5.58418
54.9301 5.41788
55.1314 5.25207
55.3328 5.05005
55.5344 4.88778
55.7361 4.72891

File: Ni3Fe_FD0978.xy
TT I
1.27165 7.46328
1.45013 6.46037
1.62863 4.97832
1.80712 4.60563
1.98562 4.99044
2.16411 5.21671
2.34263 6.11613
2.52115 7.10075
2.69965 8.83234
2.87818 8.45693
3.05672 10.9484
3.23527 15.3412
3.4138 19.1822
3.59237 23.9683
3.77094 26.3623
3.9495 29.4919
4.12809 33.9318
4.30669 224.095
4.4853 65.9029
4.6639 54.38
4.84253 65.5747
5.02118 84.0812
5.19981 272.617
5.37848 172.087
5.55716 99.2719
5.73586 90.0837
5.91455 90.1515
6.09328 4588.99
6.27201 80.8222
6.45075 65.8307
6.62952 61.7283
6.8083 57.756
6.98711 54.73
7.16591 54.2811
7.34475 92.3106
7.5236 53.493
7.70247 55.401
7.88135 56.9569
8.06026 60.9286
8.23919 68.3102
8.41812 82.9169
8.59709 1117.19
8.77609 96.121
8.9551 90.1052
9.13412 80.1623
9.31318 80.6568
9.49226 82.6266
9.67134 96.8348
9.85047 97.5411
10.0296 293.626
10.2088 369.229
10.388 101.689
10.5672 522.188
10.7465 84.4804
10.9257 77.0941
11.105 70.4314
11.2844 69.2161
11.4637 63.5724
11.6431 62.4519
11.8225 61.1643
12.002 62.0129
12.1814 153.857
12.3609 69.7907
12.5405 63.1543
12.72 68.807
12.8996 69.3207
13.0792 76.8324
13.2589 230.771
13.4386 120.546
13.6183 243.919
13.7981 94.5469
13.9779 74.076
14.1577 71.0014
14.3376 70.3329
14.5175 67.2428
14.6974 68.7802
14.8774 104.512
15.0574 148.563
15.2374 69.5525
15.4175 64.9529
15.5976 64.3457
15.7778 89.5643
15.958 152.738
16.1382 61.3998
16.3185 57.577
16.4988 54.4068
16.6792 53.3922
16.8596 54.1132
17.04 54.5746
17.2205 64.6485
17.401 68.3881
17.5815 57.9558
17.7622 59.767
17.9428 70.3663
18.1237 139.041
18.3044 89.0128
18.4852 75.688
18.666 59.0042
18.8469 56.8749
19.0278 55.5105
19.2088 57.8591
19.3898 75.7302
19.5709 52.9899
19.752 52.123
19.9332 54.8536
20.1144 68.7976
20.2957 63.2978
20.477 52.5566
20.6586 48.4363
20.84 47.8815
21.0215 47.5732
21.203 50.0446
21.3846 48.0124
21.5662 47.7141
21.7479 51.2625
21.9297 63.7581
22.1115 55.3647
22.2933 48.9264
22.4753 47.9615
22.6572 47.6705
22.8393 50.5609
23.0214 56.2454
23.2037 47.6111
23.3859 48.3696
23.5682 56.3627
23.7505 47.3412
23.9329 44.3397
24.1154 43.1195
24.2979 42.5279
24.4805 42.1286
24.6631 42.1186
24.8458 41.3117
25.0286 41.8709
25.2114 43.7864
25.3943 43.8205
25.5773 40.0745
25.7605 39.6103
25.9436 40.0253
26.1268 40.9077
26.31 39.3629
26.4933 39.8719
26.6767 41.3772
26.8601 39.6504
27.0437 38.0621
27.2272 37.6448
27.4109 37.6202
27.5946 37.5532
27.7784 37.2477
27.9623 37.6938
28.1462 37.9491
28.3304 36.3938
28.5145 35.3083
28.6987 34.9237
28.8829 34.7227
29.0673 33.9738
29.2517 33.7056
29.4361 33.5382
29.6207 32.4859
29.8053 32.2785
29.99 31.9858
30.1748 31.8528
30.3597 31.6334
30.5447 31.5405
30.7297 31.5698
30.915 31.0909
31.1002 30.4874
31.2855 30.3357
31.4708 30.2344
31.6563 29.7359
31.8418 29.5557
32.0275 29.322
32.2132 28.8172
32.399 28.3247
32.5848 27.95
32.7708 27.5621
32.9569 27.4742
33.143 27.2569
33.3293 26.8482
33.5158 26.5965
33.7022 26.1243
33.8887 25.8227
34.0753 25.5182
34.262 25.1821
34.4488 24.704
34.6357 24.5261
34.8227 24.2304
35.0098 24.1287
35.1969 23.7838
35.3842 23.6215
35.5716 23.3557
35.759 23.0911
35.9468 22.6426
36.1345 22.4943
36.3222 22.1794
36.5101 21.9818
36.6981 21.719
36.8861 21.4113
37.0743 21.0801
37.2626 20.8371
37.451 20.5731
37.6395 20.4331
37.8281 20.03
38.0168 19.865
38.2056 19.5699
38.3945 19.2824
38.5837 19.1303
38.7728 18.8257
38.9621 18.5709
39.1514 18.3677
39.3409 18.0984
39.5304 17.9046
39.7201 17.7413
39.9099 17.5557
40.0999 17.3167
40.2899 17.0199
40.48 16.7417
40.6703 16.5985
40.8607 16.4219
41.0512 16.221
41.242 15.9884
41.4327 15.7614
41.6236 15.5376
41.8146 15.369
42.0057 15.1872
42.1969 14.9619
42.3882 14.802
42.5797 14.5568
42.7713 14.3624
42.963 14.1764
43.1549 13.9596
43.3468 13.7787
43.5389 13.5682
43.7312 13.3839
43.9237 13.1763
44.1162 13.022
44.3088 12.8534
44.5016 12.6274
44.6945 12.5135
44.8875 12.3513
45.0806 12.1392
45.2739 11.9775
45.4673 11.8407
45.6609 11.6671
45.8546 11.5073
46.0484 11.308
46.2424 11.2023
46.4365 11.0007
46.631 10.8303
46.8254 10.6772
47.0199 10.515
47.2146 10.4085
47.4095 10.2194
47.6044 10.0569
47.7996 9.89315
47.9948 9.79798
48.1902 9.62162
48.3858 9.49224
48.5815 9.36575
48.7774 9.22312
48.9734 9.09366
49.1696 8.93649
49.3661 8.80049
49.5626 8.65174
49.7592 8.52255
49.956 8.42762
50.153 8.29223
50.3501 8.16527
50.5474 8.04145
50.7448 7.91353
50.9424 7.79764
51.1402 7.67005
51.3381 7.5561
51.5362 7.42482
51.7344 7.29228
51.9328 7.15299
52.1316 7.05972
52.3304 6.97669
52.5293 6.7857
52.7284 6.74148
52.9276 6.6072
53.1271 6.52822
53.3267 6.3755
53.5265 6.24215
53.7264 6.13774
53.9266 6.06666
54.1269 5.92385
54.3274 5.81248
54.528 5.69828
54.7289 5.55394
54.9301 5.38908
55.1314 5.23984
55.3328 5.01693
55.5344 4.83806
55.7361 4.71983

File: Ni3Fe_FD0979.xy
TT I
1.27165 7.24715
1.45013 5.877
1.62863 5.12519
1.80712 5.26044
1.98562 4.74331
2.16411 4.81368
2.34263 5.70592
2.52115 7.80982
2.69965 8.49531
2.87818 9.20309
3.05672 11.1998
3.23527 14.9346
3.4138 18.9989
3.59237 23.9276
3.77094 25.7148
3.9495 29.7665
4.12809 34.6271
4.30669 224.41
4.4853 65.747
4.6639 54.6713
4.84253 65.7454
5.02118 83.8245
5.19981 273.869
5.37848 172.836
5.55716 100.077
5.73586 90.1145
5.91455 90.5249
6.09328 4602.52
6.27201 80.6093
6.45075 66.042
6.62952 61.7776
6.8083 58.1697
6.98711 55.242
7.16591 54.8385
7.34475 92.0043
7.5236 54.1024
7.70247 55.3468
7.88135 57.1187
8.06026 61.124
8.23919 68.2244
8.41812 83.1125
8.59709 1127.0
8.77609 96.5735
8.9551 90.1773
9.13412 80.5474
9.31318 81.049
9.49226 83.0739
9.67134 96.8845
9.85047 98.0378
10.0296 295.283
10.2088 364.591
10.388 101.913
10.5672 525.863
10.7465 85.0448
10.9257 76.8973
11.105 70.6807
11.2844 69.3175
11.4637 63.6917
11.6431 62.447
11.8225 61.0185
12.002 61.9447
12.1814 155.016
12.3609 69.5753
12.5405 63.5001
12.72 68.9289
12.8996 69.374
13.0792 76.8302
13.2589 231.403
13.4386 119.408
13.6183 244.041
13.7981 94.7548
13.9779 74.5199
14.1577 71.0559
14.3376 70.398
14.5175 67.3095
14.6974 68.9088
14.8774 104.791
15.0574 147.143
15.2374 69.8002
15.4175 65.0063
15.5976 64.1571
15.7778 89.9578
15.958 151.42
16.1382 61.589
16.3185 57.591
16.4988 54.3984
16.6792 53.5939
16.8596 54.1015
17.04 54.529
17.2205 64.8196
17.401 68.7352
17.5815 57.6781
17.7622 59.6775
17.9428 70.633
18.1237 138.501
18.3044 88.9332
18.4852 75.5267
18.666 59.2387
18.8469 56.8135
19.0278 55.7764
19.2088 57.7979
19.3898 75.5743
19.5709 52.8996
19.752 52.1026
19.9332 54.8525
20.1144 68.8019
20.2957 63.2506
20.477 52.4243
20.6586 48.7166
20.84 47.951
21.0215 47.5179
21.203 49.9216
21.3846 47.8531
21.5662 47.7806
21.7479 51.1535
21.9297 63.5199
22.1115 55.0735
22.2933 48.8922
22.4753 47.969
22.6572 47.7894
22.8393 50.5787
23.0214 56.1059
23.2037 47.6647
23.3859 48.5244
23.5682 56.3574
23.7505 47.4642
23.9329 44.2336
24.1154 43.3163
24.2979 42.594
24.4805 42.0887
24.6631 42.0678
24.8458 41.3322
25.0286 42.0297
25.2114 43.7573
25.3943 43.6486
25.5773 40.0355
25.7605 39.6182
25.9436 39.9211
26.1268 40.9469
26.31 39.27
26.4933 39.8926
26.6767 41.4393
26.8601 39.6649
27.0437 38.1115
27.2272 37.8283
27.4109 37.6351
27.5946 37.5612
27.7784 37.1177
27.9623 37.7059
28.1462 38.0765
28.3304 36.3639
28.5145 35.312
28.6987 34.9466
28.8829 34.7896
29.0673 33.9192
29.2517 33.59
29.4361 33.4047
29.6207 32.416
29.8053 32.2699
29.99 32.0216
30.1748 31.8581
30.3597 31.5783
30.5447 31.4696
30.7297 31.6563
30.915 31.0468
31.1002 30.5752
31.2855 30.2874
31.4708 30.2726
31.6563 29.7991
31.8418 29.5916
32.0275 29.2707
32.2132 28.8345
32.399 28.3516
32.5848 27.8603
32.7708 27.624
32.9569 27.5711
33.143 27.2745
33.3293 26.8157
33.5158 26.5997
33.7022 26.1222
33.8887 25.8191
34.0753 25.4465
34.262 25.1601
34.4488 24.8579
34.6357 24.4618
34.8227 24.1302
35.0098 24.077
35.1969 23.7296
35.3842 23.5285
35.5716 23.3088
35.759 23.0026
35.9468 22.6526
36.1345 22.5026
36.3222 22.2304
36.5101 22.0167
36.6981 21.6838
36.8861 21.4019
37.0743 21.0263
37.2626 20.8343
37.451 20.6145
37.6395 20.4941
37.8281 20.0756
38.0168 19.7997
38.2056 19.5867
38.3945 19.3475
38.5837 19.0802
38.7728 18.8302
38.9621 18.5811
39.1514 18.3235
39.3409 18.1208
39.5304 17.8246
39.7201 17.7245
39.9099 17.5616
40.0999 17.2204
40.2899 17.054
40.48 16.844
40.6703 16.592
40.8607 16.4536
41.0512 16.2209
41.242 15.9549
41.4327 15.7915
41.6236 15.5563
41.8146 15.3994
42.0057 15.171
42.1969 14.9725
42.3882 14.7627
42.5797 14.5644
42.7713 14.3691
42.963 14.1549
43.1549 13.9775
43.3468 13.776
43.5389 13.5618
43.7312 13.3815
43.9237 13.2168
44.1162 13.0445
44.3088 12.8866
44.5016 12.673
44.6945 12.4541
44.8875 12.3709
45.0806 12.1216
45.2739 12.023
45.4673 11.8178
45.6609 11.6048
45.8546 11.5245
46.0484 11.2913
46.2424 11.1425
46.4365 11.0037
46.631 10.8026
46.8254 10.668
47.0199 10.471
47.2146 10.3904
47.4095 10.2174
47.6044 10.0353
47.7996 9.92269
47.9948 9.73288
48.1902 9.64045
48.3858 9.46645
48.5815 9.34475
48.7774 9.2244
48.9734 9.08512
49.1696 8.93726
49.3661 8.80409
49.5626 8.63057
49.7592 8.54298
49.956 8.40618
50.153 8.30692
50.3501 8.15356
50.5474 8.04276
50.7448 7.90265
50.9424 7.78569
51.1402 7.66792
51.3381 7.56854
51.5362 7.39017
51.7344 7.28898
51.9328 7.16167
52.1316 7.0759
52.3304 6.94831
52.5293 6.80605
52.7284 6.73725
52.9276 6.62603
53.1271 6.53174
53.3267 6.38348
53.5265 6.28487
53.7264 6.18011
53.9266 6.07241
54.1269 5.96132
54.3274 5.87267
54.528 5.69652
54.7289 5.54354
54.9301 5.37654
55.1314 5.23003
55.3328 5.07191
55.5344 4.90509
55.7361 4.7275