Folder: NiFe_MOF_catalyst_paper/XRD (part 78)

File: Ni3Fe_FD0415.xy
TT I
1.27165 7.34388
1.45013 5.94581
1.62863 4.48399
1.80712 4.76385
1.98562 4.83025
2.16411 5.24406
2.34263 5.11748
2.52115 6.30674
2.69965 7.69688
2.87818 8.39045
3.05672 11.4894
3.23527 14.7655
3.4138 19.1538
3.59237 24.9657
3.77094 27.0307
3.9495 30.2155
4.12809 35.7046
4.30669 284.08
4.4853 73.5693
4.6639 56.7507
4.84253 68.3942
5.02118 89.0541
5.19981 424.287
5.37848 223.227
5.55716 104.19
5.73586 94.2165
5.91455 97.5246
6.09328 3867.26
6.27201 86.973
6.45075 69.0579
6.62952 64.4689
6.8083 60.2209
6.98711 57.3359
7.16591 56.8794
7.34475 107.409
7.5236 55.8117
7.70247 57.306
7.88135 58.8124
8.06026 63.671
8.23919 70.7993
8.41812 87.8727
8.59709 1063.08
8.77609 104.354
8.9551 95.7258
9.13412 83.2015
9.31318 84.4002
9.49226 86.225
9.67134 103.557
9.85047 102.162
10.0296 355.537
10.2088 514.69
10.388 108.184
10.5672 471.921
10.7465 88.9849
10.9257 80.8884
11.105 73.6012
11.2844 73.1971
11.4637 66.6758
11.6431 65.155
11.8225 63.7639
12.002 64.9469
12.1814 141.737
12.3609 74.9763
12.5405 66.0218
12.72 72.9184
12.8996 72.3495
13.0792 80.4322
13.2589 222.54
13.4386 138.673
13.6183 226.903
13.7981 106.624
13.9779 77.3469
14.1577 74.5551
14.3376 73.8988
14.5175 70.3303
14.6974 72.2459
14.8774 109.674
15.0574 164.331
15.2374 73.5464
15.4175 67.8155
15.5976 67.5082
15.7778 94.6861
15.958 171.523
16.1382 65.1052
16.3185 60.3763
16.4988 56.6819
16.6792 55.8802
16.8596 56.5873
17.04 56.8031
17.2205 66.8693
17.401 74.5066
17.5815 60.5922
17.7622 62.5799
17.9428 75.4683
18.1237 136.591
18.3044 89.1596
18.4852 82.6217
18.666 61.7308
18.8469 59.4086
19.0278 58.0619
19.2088 60.849
19.3898 77.5746
19.5709 55.7028
19.752 54.3955
19.9332 57.3376
20.1144 70.6548
20.2957 63.6427
20.477 55.9763
20.6586 50.6891
20.84 49.7611
21.0215 49.6658
21.203 51.6914
21.3846 50.3399
21.5662 49.8867
21.7479 53.489
21.9297 65.5627
22.1115 56.8585
22.2933 51.4556
22.4753 50.1355
22.6572 50.1524
22.8393 52.6393
23.0214 59.0961
23.2037 50.2208
23.3859 50.8182
23.5682 57.1183
23.7505 49.9429
23.9329 46.3062
24.1154 45.2801
24.2979 44.458
24.4805 43.7911
24.6631 43.749
24.8458 43.1792
25.0286 43.6925
25.2114 45.5496
25.3943 45.7363
25.5773 41.9802
25.7605 41.3937
25.9436 41.7097
26.1268 42.7377
26.31 41.0832
26.4933 41.615
26.6767 43.0592
26.8601 41.4255
27.0437 39.8016
27.2272 39.2728
27.4109 39.2757
27.5946 39.3381
27.7784 38.7861
27.9623 39.1871
28.1462 39.7235
28.3304 38.1524
28.5145 36.8243
28.6987 36.4509
28.8829 36.2127
29.0673 35.5365
29.2517 35.1452
29.4361 34.8282
29.6207 33.9192
29.8053 33.7388
29.99 33.1998
30.1748 33.1798
30.3597 32.9834
30.5447 32.8477
30.7297 32.9021
30.915 32.4042
31.1002 31.7637
31.2855 31.5292
31.4708 31.508
31.6563 31.0206
31.8418 30.8456
32.0275 30.6062
32.2132 30.1251
32.399 29.638
32.5848 29.113
32.7708 28.7831
32.9569 28.6661
33.143 28.4431
33.3293 28.089
33.5158 27.644
33.7022 27.2591
33.8887 26.8849
34.0753 26.574
34.262 26.1907
34.4488 25.9206
34.6357 25.6018
34.8227 25.1926
35.0098 25.0807
35.1969 24.704
35.3842 24.5168
35.5716 24.2907
35.759 23.9929
35.9468 23.6499
36.1345 23.4784
36.3222 23.0971
36.5101 22.9506
36.6981 22.6141
36.8861 22.3281
37.0743 22.0226
37.2626 21.8093
37.451 21.4913
37.6395 21.2772
37.8281 20.9928
38.0168 20.6877
38.2056 20.43
38.3945 20.1526
38.5837 19.942
38.7728 19.5999
38.9621 19.3551
39.1514 19.1649
39.3409 18.8736
39.5304 18.6651
39.7201 18.4901
39.9099 18.2833
40.0999 17.9893
40.2899 17.7892
40.48 17.5106
40.6703 17.2944
40.8607 17.099
41.0512 16.8722
41.242 16.6093
41.4327 16.4121
41.6236 16.169
41.8146 16.0263
42.0057 15.8139
42.1969 15.5867
42.3882 15.3535
42.5797 15.1781
42.7713 14.9561
42.963 14.7664
43.1549 14.5391
43.3468 14.3354
43.5389 14.1673
43.7312 13.9717
43.9237 13.7885
44.1162 13.5661
44.3088 13.4011
44.5016 13.221
44.6945 13.0269
44.8875 12.8597
45.0806 12.6461
45.2739 12.4737
45.4673 12.3026
45.6609 12.1166
45.8546 11.9773
46.0484 11.7956
46.2424 11.6361
46.4365 11.4651
46.631 11.2677
46.8254 11.1367
47.0199 10.987
47.2146 10.7965
47.4095 10.6172
47.6044 10.4817
47.7996 10.2722
47.9948 10.1926
48.1902 10.0611
48.3858 9.88474
48.5815 9.73077
48.7774 9.56059
48.9734 9.44432
49.1696 9.28072
49.3661 9.14989
49.5626 8.97914
49.7592 8.8896
49.956 8.74808
50.153 8.64349
50.3501 8.4717
50.5474 8.37406
50.7448 8.24027
50.9424 8.12081
51.1402 8.01348
51.3381 7.85168
51.5362 7.71334
51.7344 7.61196
51.9328 7.44681
52.1316 7.38371
52.3304 7.22539
52.5293 7.10707
52.7284 7.02462
52.9276 6.88553
53.1271 6.80151
53.3267 6.6521
53.5265 6.53226
53.7264 6.40958
53.9266 6.32825
54.1269 6.23244
54.3274 6.08552
54.528 5.94839
54.7289 5.76718
54.9301 5.58658
55.1314 5.51382
55.3328 5.29239
55.5344 5.10105
55.7361 4.95275

File: Ni3Fe_FD0416.xy
TT I
1.27165 8.03083
1.45013 5.77347
1.62863 5.41773
1.80712 5.41654
1.98562 4.86002
2.16411 5.33513
2.34263 4.993
2.52115 6.31152
2.69965 7.89946
2.87818 8.6762
3.05672 11.5025
3.23527 15.2133
3.4138 19.1088
3.59237 24.8141
3.77094 27.2064
3.9495 30.5998
4.12809 35.5573
4.30669 285.544
4.4853 73.4631
4.6639 56.356
4.84253 68.6292
5.02118 88.3863
5.19981 421.704
5.37848 222.846
5.55716 104.963
5.73586 94.2991
5.91455 96.7344
6.09328 3857.54
6.27201 87.2996
6.45075 68.9642
6.62952 64.6609
6.8083 60.4085
6.98711 57.53
7.16591 57.0117
7.34475 108.194
7.5236 56.1755
7.70247 57.4995
7.88135 58.829
8.06026 63.4854
8.23919 71.0044
8.41812 87.6245
8.59709 1062.13
8.77609 104.475
8.9551 95.8576
9.13412 83.4094
9.31318 84.4227
9.49226 86.0029
9.67134 103.825
9.85047 102.045
10.0296 353.735
10.2088 513.123
10.388 108.075
10.5672 472.83
10.7465 88.9347
10.9257 80.4738
11.105 73.8477
11.2844 73.0441
11.4637 66.7259
11.6431 64.9685
11.8225 64.1933
12.002 65.0312
12.1814 141.399
12.3609 74.8813
12.5405 66.1727
12.72 72.9842
12.8996 72.3802
13.0792 80.4889
13.2589 221.926
13.4386 138.446
13.6183 227.191
13.7981 106.882
13.9779 77.4405
14.1577 74.5361
14.3376 73.8132
14.5175 70.517
14.6974 72.0927
14.8774 109.355
15.0574 164.479
15.2374 73.8261
15.4175 67.851
15.5976 67.1152
15.7778 94.8398
15.958 171.309
16.1382 65.0257
16.3185 60.5013
16.4988 56.9434
16.6792 55.918
16.8596 56.628
17.04 57.2748
17.2205 66.6398
17.401 74.6897
17.5815 60.6812
17.7622 62.5382
17.9428 75.4158
18.1237 136.716
18.3044 89.3713
18.4852 82.7067
18.666 62.0942
18.8469 59.2369
19.0278 58.4604
19.2088 61.1534
19.3898 77.5731
19.5709 55.6947
19.752 54.567
19.9332 57.4732
20.1144 70.8058
20.2957 63.8551
20.477 55.7931
20.6586 50.9667
20.84 50.0636
21.0215 49.8129
21.203 51.5174
21.3846 50.2175
21.5662 49.9017
21.7479 53.4233
21.9297 65.6176
22.1115 56.9769
22.2933 51.3143
22.4753 50.2212
22.6572 49.9157
22.8393 52.7108
23.0214 59.1858
23.2037 49.9112
23.3859 50.5537
23.5682 57.1243
23.7505 49.8264
23.9329 46.304
24.1154 45.2581
24.2979 44.5398
24.4805 43.8942
24.6631 43.9903
24.8458 43.2295
25.0286 43.7074
25.2114 45.5667
25.3943 45.6882
25.5773 41.9581
25.7605 41.2831
25.9436 41.7618
26.1268 42.6182
26.31 41.0079
26.4933 41.4647
26.6767 43.0358
26.8601 41.4382
27.0437 39.896
27.2272 39.5107
27.4109 39.2423
27.5946 39.2678
27.7784 38.6904
27.9623 39.0926
28.1462 39.7491
28.3304 38.1692
28.5145 36.8166
28.6987 36.4715
28.8829 36.272
29.0673 35.5047
29.2517 35.0419
29.4361 34.9837
29.6207 33.8392
29.8053 33.6524
29.99 33.3098
30.1748 33.1316
30.3597 32.987
30.5447 32.8565
30.7297 33.0163
30.915 32.3498
31.1002 31.8516
31.2855 31.5633
31.4708 31.6315
31.6563 31.0611
31.8418 30.7813
32.0275 30.6406
32.2132 30.0464
32.399 29.5683
32.5848 29.196
32.7708 28.8195
32.9569 28.6311
33.143 28.4634
33.3293 28.0967
33.5158 27.6739
33.7022 27.2384
33.8887 26.8682
34.0753 26.5355
34.262 26.2041
34.4488 25.9141
34.6357 25.5722
34.8227 25.2309
35.0098 25.0769
35.1969 24.7534
35.3842 24.5252
35.5716 24.3065
35.759 23.9657
35.9468 23.7083
36.1345 23.387
36.3222 23.179
36.5101 22.9449
36.6981 22.599
36.8861 22.2856
37.0743 21.9801
37.2626 21.7123
37.451 21.4832
37.6395 21.3371
37.8281 21.0468
38.0168 20.6886
38.2056 20.3877
38.3945 20.1137
38.5837 19.8923
38.7728 19.6189
38.9621 19.353
39.1514 19.1834
39.3409 18.8716
39.5304 18.6473
39.7201 18.472
39.9099 18.2667
40.0999 17.9601
40.2899 17.7606
40.48 17.5601
40.6703 17.3251
40.8607 17.0837
41.0512 16.8785
41.242 16.6028
41.4327 16.4566
41.6236 16.1942
41.8146 16.0456
42.0057 15.8037
42.1969 15.5756
42.3882 15.3256
42.5797 15.1562
42.7713 14.967
42.963 14.7385
43.1549 14.5437
43.3468 14.3521
43.5389 14.1554
43.7312 13.974
43.9237 13.7311
44.1162 13.5385
44.3088 13.4049
44.5016 13.191
44.6945 13.0068
44.8875 12.8644
45.0806 12.6557
45.2739 12.4741
45.4673 12.2988
45.6609 12.1004
45.8546 11.9849
46.0484 11.7928
46.2424 11.67
46.4365 11.4643
46.631 11.2922
46.8254 11.1114
47.0199 11.007
47.2146 10.8104
47.4095 10.6208
47.6044 10.4777
47.7996 10.3055
47.9948 10.166
48.1902 10.0372
48.3858 9.90102
48.5815 9.72839
48.7774 9.60154
48.9734 9.45034
49.1696 9.29491
49.3661 9.17494
49.5626 9.01273
49.7592 8.92067
49.956 8.7729
50.153 8.6288
50.3501 8.48846
50.5474 8.36974
50.7448 8.23573
50.9424 8.14394
51.1402 7.97518
51.3381 7.81931
51.5362 7.74129
51.7344 7.65176
51.9328 7.49635
52.1316 7.33303
52.3304 7.19543
52.5293 7.11066
52.7284 6.9979
52.9276 6.88911
53.1271 6.76973
53.3267 6.64248
53.5265 6.53041
53.7264 6.43401
53.9266 6.29706
54.1269 6.161
54.3274 6.07027
54.528 5.91582
54.7289 5.79185
54.9301 5.55549
55.1314 5.43074
55.3328 5.27719
55.5344 5.05026
55.7361 4.9144

File: Ni3Fe_FD0417.xy
TT I
1.27165 7.5434
1.45013 6.13619
1.62863 5.27787
1.80712 4.86009
1.98562 4.2853
2.16411 5.13857
2.34263 4.80302
2.52115 5.89116
2.69965 7.99437
2.87818 8.81271
3.05672 11.086
3.23527 14.8459
3.4138 19.3359
3.59237 24.654
3.77094 26.9577
3.9495 30.4774
4.12809 36.0902
4.30669 288.696
4.4853 73.8595
4.6639 56.4736
4.84253 68.5164
5.02118 88.6247
5.19981 422.798
5.37848 223.149
5.55716 104.613
5.73586 93.7166
5.91455 96.8307
6.09328 3851.1
6.27201 87.7167
6.45075 69.1507
6.62952 64.5502
6.8083 60.4036
6.98711 57.5479
7.16591 57.0514
7.34475 107.986
7.5236 56.1041
7.70247 57.5378
7.88135 59.2763
8.06026 63.5447
8.23919 71.2676
8.41812 87.8137
8.59709 1061.78
8.77609 104.752
8.9551 96.0811
9.13412 83.2935
9.31318 84.377
9.49226 85.6796
9.67134 103.678
9.85047 102.002
10.0296 353.626
10.2088 510.353
10.388 108.091
10.5672 473.098
10.7465 89.0539
10.9257 80.5369
11.105 73.3716
11.2844 73.0475
11.4637 66.3475
11.6431 65.1265
11.8225 63.8787
12.002 64.6921
12.1814 141.411
12.3609 75.0657
12.5405 66.2145
12.72 73.0882
12.8996 72.4157
13.0792 80.5606
13.2589 221.149
13.4386 138.592
13.6183 226.484
13.7981 106.275
13.9779 77.6644
14.1577 74.4858
14.3376 74.1271
14.5175 70.2386
14.6974 72.0212
14.8774 109.427
15.0574 164.617
15.2374 73.7196
15.4175 67.8844
15.5976 67.166
15.7778 94.7671
15.958 171.123
16.1382 65.1816
16.3185 60.3727
16.4988 56.8163
16.6792 55.9896
16.8596 56.6421
17.04 57.0644
17.2205 66.8161
17.401 74.7861
17.5815 60.6796
17.7622 62.4048
17.9428 75.0565
18.1237 136.69
18.3044 89.2379
18.4852 82.64
18.666 61.8886
18.8469 59.4221
19.0278 58.2345
19.2088 60.8866
19.3898 77.5875
19.5709 55.7997
19.752 54.5044
19.9332 57.5533
20.1144 70.809
20.2957 63.6675
20.477 55.9424
20.6586 50.9484
20.84 49.8225
21.0215 49.7129
21.203 51.6188
21.3846 50.306
21.5662 49.8445
21.7479 53.3529
21.9297 65.4709
22.1115 56.8751
22.2933 51.4105
22.4753 50.094
22.6572 49.8267
22.8393 52.6501
23.0214 59.128
23.2037 50.0524
23.3859 50.691
23.5682 57.3316
23.7505 50.1006
23.9329 46.1971
24.1154 45.2369
24.2979 44.5043
24.4805 43.8741
24.6631 43.7706
24.8458 43.2635
25.0286 43.7177
25.2114 45.5388
25.3943 45.7129
25.5773 41.9834
25.7605 41.4865
25.9436 41.8401
26.1268 42.6062
26.31 41.0989
26.4933 41.5834
26.6767 42.9625
26.8601 41.4363
27.0437 39.8515
27.2272 39.3451
27.4109 39.2915
27.5946 39.2528
27.7784 38.66
27.9623 39.2163
28.1462 39.6192
28.3304 37.9324
28.5145 36.8801
28.6987 36.523
28.8829 36.2307
29.0673 35.4561
29.2517 35.1816
29.4361 34.9209
29.6207 33.9788
29.8053 33.7147
29.99 33.3284
30.1748 33.1668
30.3597 33.0179
30.5447 32.7716
30.7297 32.8462
30.915 32.4007
31.1002 31.7582
31.2855 31.5298
31.4708 31.4909
31.6563 31.0454
31.8418 30.8168
32.0275 30.6424
32.2132 30.0496
32.399 29.5879
32.5848 29.2509
32.7708 28.8554
32.9569 28.653
33.143 28.3666
33.3293 28.1235
33.5158 27.7347
33.7022 27.2441
33.8887 26.9713
34.0753 26.5913
34.262 26.2039
34.4488 25.9823
34.6357 25.5037
34.8227 25.3016
35.0098 25.0616
35.1969 24.6561
35.3842 24.499
35.5716 24.343
35.759 23.9401
35.9468 23.5966
36.1345 23.4216
36.3222 23.1707
36.5101 22.9878
36.6981 22.6387
36.8861 22.3224
37.0743 21.9477
37.2626 21.7832
37.451 21.4725
37.6395 21.3359
37.8281 20.9737
38.0168 20.6725
38.2056 20.4112
38.3945 20.1471
38.5837 19.9189
38.7728 19.6181
38.9621 19.382
39.1514 19.2035
39.3409 18.8953
39.5304 18.6457
39.7201 18.4826
39.9099 18.2067
40.0999 18.0126
40.2899 17.7057
40.48 17.5237
40.6703 17.3232
40.8607 17.1297
41.0512 16.928
41.242 16.6505
41.4327 16.4205
41.6236 16.1283
41.8146 15.9773
42.0057 15.7736
42.1969 15.6204
42.3882 15.3998
42.5797 15.1179
42.7713 14.9973
42.963 14.7071
43.1549 14.5843
43.3468 14.3341
43.5389 14.1734
43.7312 13.931
43.9237 13.7744
44.1162 13.5878
44.3088 13.3971
44.5016 13.2346
44.6945 12.9952
44.8875 12.849
45.0806 12.6737
45.2739 12.5006
45.4673 12.3654
45.6609 12.131
45.8546 11.9783
46.0484 11.8063
46.2424 11.6297
46.4365 11.4751
46.631 11.2917
46.8254 11.0798
47.0199 10.9628
47.2146 10.8252
47.4095 10.6601
47.6044 10.4438
47.7996 10.3001
47.9948 10.1491
48.1902 10.0067
48.3858 9.86862
48.5815 9.71962
48.7774 9.61079
48.9734 9.45011
49.1696 9.32767
49.3661 9.15501
49.5626 9.06015
49.7592 8.92257
49.956 8.7787
50.153 8.64851
50.3501 8.45469
50.5474 8.37647
50.7448 8.26764
50.9424 8.11289
51.1402 8.01232
51.3381 7.87296
51.5362 7.72972
51.7344 7.62112
51.9328 7.45612
52.1316 7.31742
52.3304 7.23804
52.5293 7.09945
52.7284 6.95569
52.9276 6.87798
53.1271 6.76444
53.3267 6.67702
53.5265 6.50695
53.7264 6.41963
53.9266 6.33001
54.1269 6.18494
54.3274 6.04915
54.528 5.89889
54.7289 5.78023
54.9301 5.60198
55.1314 5.49769
55.3328 5.26852
55.5344 5.0169
55.7361 4.91551

File: Ni3Fe_FD0418.xy
TT I
1.27165 7.98786
1.45013 6.55174
1.62863 5.38762
1.80712 4.99299
1.98562 4.94921
2.16411 5.39779
2.34263 5.068
2.52115 6.74738
2.69965 7.67077
2.87818 8.64671
3.05672 11.0323
3.23527 15.2375
3.4138 19.3282
3.59237 25.2563
3.77094 26.6946
3.9495 30.5659
4.12809 35.7903
4.30669 290.711
4.4853 73.9564
4.6639 56.4268
4.84253 68.0757
5.02118 88.6939
5.19981 423.842
5.37848 222.423
5.55716 104.921
5.73586 94.1857
5.91455 96.7943
6.09328 3832.97
6.27201 87.3674
6.45075 69.3808
6.62952 64.7203
6.8083 60.3128
6.98711 57.3625
7.16591 57.3499
7.34475 108.458
7.5236 56.1744
7.70247 57.5444
7.88135 58.7891
8.06026 63.5672
8.23919 71.0521
8.41812 88.0529
8.59709 1063.68
8.77609 104.096
8.9551 95.7148
9.13412 82.8995
9.31318 84.3736
9.49226 86.0893
9.67134 104.086
9.85047 102.173
10.0296 353.522
10.2088 507.821
10.388 108.186
10.5672 473.078
10.7465 89.2483
10.9257 80.8575
11.105 73.62
11.2844 73.1606
11.4637 66.5355
11.6431 65.2753
11.8225 63.8032
12.002 64.9981
12.1814 141.955
12.3609 74.8607
12.5405 66.0661
12.72 72.9331
12.8996 72.4514
13.0792 80.3986
13.2589 221.464
13.4386 138.43
13.6183 226.504
13.7981 105.982
13.9779 77.471
14.1577 74.5203
14.3376 74.2321
14.5175 70.1725
14.6974 72.2699
14.8774 109.279
15.0574 164.901
15.2374 73.6186
15.4175 67.8816
15.5976 67.14
15.7778 94.8714
15.958 171.674
16.1382 65.1434
16.3185 60.5819
16.4988 56.9553
16.6792 55.8918
16.8596 56.8492
17.04 57.1021
17.2205 66.8873
17.401 74.8603
17.5815 60.5173
17.7622 62.6081
17.9428 75.141
18.1237 136.773
18.3044 89.0652
18.4852 82.937
18.666 62.0169
18.8469 59.2178
19.0278 58.1702
19.2088 60.9604
19.3898 77.5108
19.5709 55.6927
19.752 54.5548
19.9332 57.4539
20.1144 70.5962
20.2957 63.732
20.477 55.9269
20.6586 50.9413
20.84 50.0926
21.0215 49.6341
21.203 51.77
21.3846 50.2575
21.5662 49.7786
21.7479 53.4604
21.9297 65.5488
22.1115 56.8943
22.2933 51.351
22.4753 50.3357
22.6572 49.9365
22.8393 52.6876
23.0214 59.0648
23.2037 50.0105
23.3859 50.6832
23.5682 57.1303
23.7505 50.1611
23.9329 46.2745
24.1154 45.2875
24.2979 44.4695
24.4805 43.994
24.6631 43.9563
24.8458 43.3048
25.0286 43.6947
25.2114 45.5455
25.3943 45.7979
25.5773 41.9258
25.7605 41.377
25.9436 41.7483
26.1268 42.7509
26.31 41.0946
26.4933 41.7334
26.6767 43.0668
26.8601 41.4629
27.0437 39.8675
27.2272 39.4012
27.4109 39.3188
27.5946 39.3181
27.7784 38.6357
27.9623 39.2075
28.1462 39.8887
28.3304 38.1973
28.5145 36.8828
28.6987 36.4675
28.8829 36.223
29.0673 35.4555
29.2517 35.1345
29.4361 34.9391
29.6207 33.8876
29.8053 33.653
29.99 33.4225
30.1748 33.1559
30.3597 32.9683
30.5447 32.919
30.7297 32.8944
30.915 32.4343
31.1002 31.8956
31.2855 31.514
31.4708 31.5532
31.6563 31.0176
31.8418 30.8181
32.0275 30.6367
32.2132 30.1147
32.399 29.5413
32.5848 29.1753
32.7708 28.6927
32.9569 28.6014
33.143 28.4183
33.3293 28.1414
33.5158 27.5972
33.7022 27.1331
33.8887 26.9529
34.0753 26.6223
34.262 26.2362
34.4488 25.9061
34.6357 25.6349
34.8227 25.3089
35.0098 25.0795
35.1969 24.7905
35.3842 24.5052
35.5716 24.3427
35.759 24.1447
35.9468 23.6538
36.1345 23.441
36.3222 23.2531
36.5101 22.8407
36.6981 22.6122
36.8861 22.2995
37.0743 21.957
37.2626 21.7861
37.451 21.4438
37.6395 21.3213
37.8281 20.9747
38.0168 20.6461
38.2056 20.4156
38.3945 20.1777
38.5837 19.8875
38.7728 19.6035
38.9621 19.3537
39.1514 19.1655
39.3409 18.8194
39.5304 18.6698
39.7201 18.4573
39.9099 18.1793
40.0999 17.9596
40.2899 17.8015
40.48 17.4688
40.6703 17.2707
40.8607 17.1184
41.0512 16.9141
41.242 16.6394
41.4327 16.3984
41.6236 16.2119
41.8146 16.0157
42.0057 15.8088
42.1969 15.5444
42.3882 15.4179
42.5797 15.1547
42.7713 14.9925
42.963 14.7644
43.1549 14.5933
43.3468 14.3416
43.5389 14.1707
43.7312 13.9737
43.9237 13.7559
44.1162 13.6193
44.3088 13.4085
44.5016 13.2004
44.6945 12.9827
44.8875 12.8657
45.0806 12.6068
45.2739 12.5027
45.4673 12.3054
45.6609 12.0991
45.8546 11.9489
46.0484 11.7975
46.2424 11.603
46.4365 11.4577
46.631 11.2518
46.8254 11.0903
47.0199 10.9132
47.2146 10.8022
47.4095 10.6118
47.6044 10.4788
47.7996 10.3308
47.9948 10.1875
48.1902 10.0374
48.3858 9.88895
48.5815 9.72349
48.7774 9.62381
48.9734 9.47793
49.1696 9.30701
49.3661 9.18742
49.5626 9.00816
49.7592 8.87018
49.956 8.80163
50.153 8.66252
50.3501 8.50677
50.5474 8.33841
50.7448 8.2718
50.9424 8.10781
51.1402 7.97413
51.3381 7.89423
51.5362 7.75172
51.7344 7.57834
51.9328 7.44291
52.1316 7.33904
52.3304 7.24615
52.5293 7.12321
52.7284 6.9945
52.9276 6.94167
53.1271 6.79159
53.3267 6.6104
53.5265 6.51813
53.7264 6.44162
53.9266 6.31805
54.1269 6.22494
54.3274 6.06796
54.528 5.94374
54.7289 5.74409
54.9301 5.56042
55.1314 5.49507
55.3328 5.25799
55.5344 5.06991
55.7361 4.94773

File: Ni3Fe_FD0419.xy
TT I
1.27165 7.63479
1.45013 6.12175
1.62863 4.94227
1.80712 5.35518
1.98562 5.20834
2.16411 4.34283
2.34263 5.61862
2.52115 6.33476
2.69965 7.0276
2.87818 8.46342
3.05672 11.0751
3.23527 15.2508
3.4138 19.2107
3.59237 25.3265
3.77094 26.5962
3.9495 30.2458
4.12809 35.7843
4.30669 292.425
4.4853 74.1548
4.6639 56.4155
4.84253 68.1352
5.02118 88.8708
5.19981 423.848
5.37848 222.522
5.55716 104.37
5.73586 94.303
5.91455 97.3055
6.09328 3823.54
6.27201 87.42
6.45075 68.8245
6.62952 64.8439
6.8083 60.4046
6.98711 57.0399
7.16591 57.2285
7.34475 108.371
7.5236 56.4382
7.70247 57.643
7.88135 59.0199
8.06026 63.3831
8.23919 71.0658
8.41812 88.0162
8.59709 1063.71
8.77609 103.983
8.9551 95.9233
9.13412 83.4952
9.31318 84.2276
9.49226 86.0791
9.67134 104.088
9.85047 102.26
10.0296 353.458
10.2088 508.562
10.388 108.176
10.5672 473.482
10.7465 89.3579
10.9257 80.7182
11.105 73.459
11.2844 73.5221
11.4637 66.4399
11.6431 65.0402
11.8225 63.9226
12.002 64.851
12.1814 141.77
12.3609 75.1294
12.5405 66.4785
12.72 73.033
12.8996 72.3097
13.0792 80.4147
13.2589 220.896
13.4386 138.559
13.6183 226.4
13.7981 106.021
13.9779 77.5853
14.1577 74.591
14.3376 74.1804
14.5175 70.4392
14.6974 72.2311
14.8774 109.367
15.0574 164.852
15.2374 73.8202
15.4175 68.0108
15.5976 67.231
15.7778 94.7982
15.958 171.314
16.1382 65.1287
16.3185 60.7383
16.4988 56.9468
16.6792 56.0623
16.8596 56.7562
17.04 57.2094
17.2205 66.8474
17.401 74.8543
17.5815 60.5826
17.7622 62.6058
17.9428 75.0387
18.1237 136.748
18.3044 89.0504
18.4852 82.9787
18.666 61.9403
18.8469 59.431
19.0278 58.4813
19.2088 60.8965
19.3898 77.857
19.5709 55.5976
19.752 54.4647
19.9332 57.5791
20.1144 70.813
20.2957 63.7597
20.477 55.8937
20.6586 50.6323
20.84 49.9951
21.0215 49.7414
21.203 51.656
21.3846 50.2432
21.5662 49.737
21.7479 53.4694
21.9297 65.4353
22.1115 56.8385
22.2933 51.2707
22.4753 50.1688
22.6572 49.9278
22.8393 52.6093
23.0214 58.9798
23.2037 49.9873
23.3859 50.7448
23.5682 57.0126
23.7505 50.067
23.9329 46.2521
24.1154 45.2468
24.2979 44.5342
24.4805 43.8767
24.6631 43.9682
24.8458 43.2077
25.0286 43.6943
25.2114 45.6526
25.3943 45.7152
25.5773 41.9007
25.7605 41.4808
25.9436 41.6954
26.1268 42.6055
26.31 41.1069
26.4933 41.5941
26.6767 43.0766
26.8601 41.4868
27.0437 39.8381
27.2272 39.4321
27.4109 39.2867
27.5946 39.3024
27.7784 38.686
27.9623 39.103
28.1462 39.7174
28.3304 38.1386
28.5145 36.7933
28.6987 36.4795
28.8829 36.2566
29.0673 35.4362
29.2517 35.103
29.4361 34.8949
29.6207 33.8759
29.8053 33.751
29.99 33.3149
30.1748 33.0748
30.3597 33.0261
30.5447 32.9222
30.7297 32.9191
30.915 32.3493
31.1002 31.8151
31.2855 31.5999
31.4708 31.5301
31.6563 31.0834
31.8418 30.7312
32.0275 30.5793
32.2132 30.0803
32.399 29.6236
32.5848 29.1284
32.7708 28.8125
32.9569 28.7342
33.143 28.5014
33.3293 28.0141
33.5158 27.6701
33.7022 27.2464
33.8887 26.9402
34.0753 26.6269
34.262 26.282
34.4488 25.8704
34.6357 25.5496
34.8227 25.3228
35.0098 25.0377
35.1969 24.6538
35.3842 24.5561
35.5716 24.2844
35.759 23.9537
35.9468 23.5632
36.1345 23.3963
36.3222 23.1613
36.5101 22.9627
36.6981 22.5919
36.8861 22.3247
37.0743 21.9927
37.2626 21.7211
37.451 21.4367
37.6395 21.3086
37.8281 20.9286
38.0168 20.6966
38.2056 20.4268
38.3945 20.0683
38.5837 19.8917
38.7728 19.6639
38.9621 19.3479
39.1514 19.1389
39.3409 18.9231
39.5304 18.6922
39.7201 18.4788
39.9099 18.2455
40.0999 17.9603
40.2899 17.7505
40.48 17.5364
40.6703 17.3191
40.8607 17.095
41.0512 16.9171
41.242 16.5857
41.4327 16.4295
41.6236 16.2252
41.8146 15.9779
42.0057 15.7901
42.1969 15.5586
42.3882 15.4407
42.5797 15.2011
42.7713 14.9524
42.963 14.7285
43.1549 14.5633
43.3468 14.3095
43.5389 14.153
43.7312 13.9308
43.9237 13.7821
44.1162 13.5484
44.3088 13.3788
44.5016 13.2056
44.6945 13.0009
44.8875 12.8258
45.0806 12.647
45.2739 12.4731
45.4673 12.3072
45.6609 12.1358
45.8546 11.9745
46.0484 11.7889
46.2424 11.5889
46.4365 11.4531
46.631 11.3093
46.8254 11.0968
47.0199 10.9838
47.2146 10.838
47.4095 10.591
47.6044 10.4407
47.7996 10.2754
47.9948 10.1663
48.1902 10.025
48.3858 9.86983
48.5815 9.75754
48.7774 9.58853
48.9734 9.4901
49.1696 9.31034
49.3661 9.18109
49.5626 9.02899
49.7592 8.8987
49.956 8.79015
50.153 8.63183
50.3501 8.49801
50.5474 8.39029
50.7448 8.23608
50.9424 8.1231
51.1402 7.98744
51.3381 7.87327
51.5362 7.7442
51.7344 7.5876
51.9328 7.45496
52.1316 7.32947
52.3304 7.25509
52.5293 7.09036
52.7284 6.99774
52.9276 6.87086
53.1271 6.7841
53.3267 6.64617
53.5265 6.50713
53.7264 6.40159
53.9266 6.32726
54.1269 6.17061
54.3274 6.05681
54.528 5.98029
54.7289 5.77618
54.9301 5.58347
55.1314 5.47182
55.3328 5.2779
55.5344 5.0814
55.7361 4.84032