Folder: NiFe_MOF_catalyst_paper/XRD (part 4)

File: Ni3Fe_FD0016.xy
TT I
1.27165 36.0254
1.45013 31.825
1.62863 27.8154
1.80712 25.9159
1.98562 25.1326
2.16411 25.8007
2.34263 26.4608
2.52115 25.7286
2.69965 30.0493
2.87818 39.8873
3.05672 66.7904
3.23527 79.2475
3.4138 43.9217
3.59237 39.0249
3.77094 40.782
3.9495 42.1238
4.12809 53.3879
4.30669 78.9786
4.4853 65.7295
4.6639 51.8555
4.84253 57.7357
5.02118 89.2446
5.19981 258.224
5.37848 3975.87
5.55716 160.166
5.73586 99.8399
5.91455 108.986
6.09328 425.466
6.27201 342.533
6.45075 73.5403
6.62952 55.4828
6.8083 52.3495
6.98711 47.4224
7.16591 50.6178
7.34475 69.0479
7.5236 62.3524
7.70247 49.877
7.88135 39.1916
8.06026 39.9747
8.23919 44.9239
8.41812 55.7756
8.59709 148.152
8.77609 720.011
8.9551 79.471
9.13412 58.9909
9.31318 249.585
9.49226 52.5866
9.67134 51.237
9.85047 57.2847
10.0296 92.0173
10.2088 421.157
10.388 143.314
10.5672 89.7998
10.7465 290.598
10.9257 48.9906
11.105 42.3485
11.2844 40.6355
11.4637 38.5753
11.6431 37.5699
11.8225 37.1679
12.002 68.8277
12.1814 46.4831
12.3609 90.202
12.5405 45.5557
12.72 39.7596
12.8996 39.6262
13.0792 41.858
13.2589 62.1967
13.4386 130.894
13.6183 97.5632
13.7981 140.541
13.9779 66.4678
14.1577 46.2909
14.3376 50.132
14.5175 37.3039
14.6974 36.9068
14.8774 41.5936
15.0574 57.0942
15.2374 104.571
15.4175 40.888
15.5976 37.5207
15.7778 39.938
15.958 51.6649
16.1382 129.164
16.3185 40.386
16.4988 33.2369
16.6792 31.1774
16.8596 31.236
17.04 38.9089
17.2205 32.8384
17.401 35.3199
17.5815 50.4128
17.7622 34.6605
17.9428 40.5593
18.1237 42.482
18.3044 83.0666
18.4852 58.1212
18.666 71.0719
18.8469 36.1432
19.0278 32.935
19.2088 32.7894
19.3898 38.3115
19.5709 45.8285
19.752 36.9089
19.9332 31.3414
20.1144 31.9377
20.2957 40.614
20.477 39.4518
20.6586 41.2457
20.84 31.2869
21.0215 29.5901
21.203 28.124
21.3846 28.3958
21.5662 32.5383
21.7479 29.1205
21.9297 30.7464
22.1115 38.9942
22.2933 44.8337
22.4753 37.1482
22.6572 29.706
22.8393 30.0155
23.0214 31.0177
23.2037 37.5086
23.3859 35.2499
23.5682 34.5623
23.7505 33.4146
23.9329 44.5853
24.1154 29.4723
24.2979 27.1599
24.4805 26.0673
24.6631 26.0538
24.8458 27.7516
25.0286 25.8951
25.2114 25.8744
25.3943 28.2228
25.5773 30.5325
25.7605 30.0238
25.9436 26.6337
26.1268 25.4174
26.31 26.1114
26.4933 28.5242
26.6767 25.6739
26.8601 26.7861
27.0437 31.4978
27.2272 27.6019
27.4109 24.5463
27.5946 24.4313
27.7784 24.7016
27.9623 25.3853
28.1462 25.5145
28.3304 26.7089
28.5145 27.9604
28.6987 25.4799
28.8829 22.9412
29.0673 22.4083
29.2517 23.2668
29.4361 22.1175
29.6207 21.7275
29.8053 22.8784
29.99 21.3276
30.1748 21.2478
30.3597 20.9469
30.5447 21.2199
30.7297 21.1405
30.915 21.1135
31.1002 23.1919
31.2855 22.1487
31.4708 20.5288
31.6563 20.5421
31.8418 21.3863
32.0275 20.6578
32.2132 20.3388
32.399 21.1348
32.5848 19.8474
32.7708 18.8669
32.9569 18.6859
33.143 18.8067
33.3293 18.3595
33.5158 18.6883
33.7022 19.1351
33.8887 18.1248
34.0753 17.6765
34.262 17.566
34.4488 17.3131
34.6357 16.9987
34.8227 17.0814
35.0098 16.5621
35.1969 16.3299
35.3842 16.3019
35.5716 16.2084
35.759 16.438
35.9468 16.8499
36.1345 16.2197
36.3222 15.6759
36.5101 15.6389
36.6981 15.5887
36.8861 15.2385
37.0743 15.2943
37.2626 14.9218
37.451 14.5412
37.6395 14.4801
37.8281 14.2845
38.0168 14.033
38.2056 13.9868
38.3945 13.6539
38.5837 13.5435
38.7728 13.4721
38.9621 13.2638
39.1514 13.2296
39.3409 12.9366
39.5304 12.7255
39.7201 12.6033
39.9099 12.4535
40.0999 12.3188
40.2899 12.3545
40.48 12.1069
40.6703 12.0331
40.8607 11.8418
41.0512 11.7111
41.242 11.6377
41.4327 11.4349
41.6236 11.2535
41.8146 11.1356
42.0057 10.9141
42.1969 10.9136
42.3882 10.7568
42.5797 10.5133
42.7713 10.3913
42.963 10.2382
43.1549 10.1325
43.3468 9.93933
43.5389 9.82802
43.7312 9.64234
43.9237 9.5689
44.1162 9.47964
44.3088 9.37883
44.5016 9.24643
44.6945 9.16352
44.8875 9.00781
45.0806 8.93974
45.2739 8.79547
45.4673 8.61196
45.6609 8.49919
45.8546 8.42325
46.0484 8.32686
46.2424 8.17276
46.4365 8.08264
46.631 7.98214
46.8254 7.8465
47.0199 7.73241
47.2146 7.62366
47.4095 7.51784
47.6044 7.37826
47.7996 7.27011
47.9948 7.20167
48.1902 7.0858
48.3858 7.01337
48.5815 6.89796
48.7774 6.80793
48.9734 6.69112
49.1696 6.6029
49.3661 6.50377
49.5626 6.41921
49.7592 6.30711
49.956 6.246
50.153 6.18976
50.3501 6.05759
50.5474 6.01642
50.7448 5.91509
50.9424 5.83698
51.1402 5.7438
51.3381 5.62852
51.5362 5.54095
51.7344 5.47857
51.9328 5.35327
52.1316 5.29233
52.3304 5.23629
52.5293 5.15254
52.7284 5.06264
52.9276 4.9405
53.1271 4.92501
53.3267 4.79046
53.5265 4.71723
53.7264 4.64175
53.9266 4.5547
54.1269 4.46871
54.3274 4.37023
54.528 4.26802
54.7289 4.12893
54.9301 3.99089
55.1314 3.90805
55.3328 3.71321
55.5344 3.6057
55.7361 3.47015

File: Ni3Fe_FD0017.xy
TT I
1.27165 35.4303
1.45013 31.1528
1.62863 27.3337
1.80712 25.1436
1.98562 24.7936
2.16411 25.6399
2.34263 26.0843
2.52115 26.2659
2.69965 29.9436
2.87818 39.1054
3.05672 65.9074
3.23527 78.6684
3.4138 43.2488
3.59237 38.8439
3.77094 40.9759
3.9495 41.5452
4.12809 52.8555
4.30669 80.1454
4.4853 64.6668
4.6639 51.2273
4.84253 56.3815
5.02118 88.8701
5.19981 259.687
5.37848 3953.2
5.55716 159.692
5.73586 100.297
5.91455 109.178
6.09328 430.267
6.27201 337.168
6.45075 72.7125
6.62952 55.2557
6.8083 52.4459
6.98711 46.8805
7.16591 49.7792
7.34475 68.976
7.5236 61.6315
7.70247 49.2668
7.88135 38.9337
8.06026 39.9106
8.23919 44.2497
8.41812 55.6023
8.59709 149.579
8.77609 711.96
8.9551 79.0929
9.13412 58.7733
9.31318 250.102
9.49226 52.5791
9.67134 51.4686
9.85047 57.701
10.0296 92.7481
10.2088 429.967
10.388 141.463
10.5672 90.084
10.7465 287.372
10.9257 49.0544
11.105 42.1431
11.2844 40.3804
11.4637 38.4494
11.6431 37.4698
11.8225 36.9011
12.002 69.6113
12.1814 46.373
12.3609 91.0782
12.5405 45.393
12.72 39.8962
12.8996 39.4046
13.0792 41.9341
13.2589 62.3732
13.4386 133.557
13.6183 96.5123
13.7981 143.054
13.9779 65.4758
14.1577 46.5606
14.3376 49.6098
14.5175 37.42
14.6974 37.1358
14.8774 41.7082
15.0574 57.2541
15.2374 102.591
15.4175 41.1869
15.5976 37.672
15.7778 40.2849
15.958 52.1727
16.1382 127.158
16.3185 40.0742
16.4988 33.2032
16.6792 31.3618
16.8596 31.2976
17.04 39.1204
17.2205 32.7999
17.401 35.4074
17.5815 49.947
17.7622 34.6798
17.9428 40.4321
18.1237 42.5454
18.3044 84.3585
18.4852 57.751
18.666 70.2511
18.8469 36.0855
19.0278 33.063
19.2088 32.7801
19.3898 38.6194
19.5709 46.0536
19.752 36.4567
19.9332 31.4312
20.1144 32.0337
20.2957 40.922
20.477 39.3119
20.6586 40.7224
20.84 31.3801
21.0215 29.6842
21.203 28.28
21.3846 28.5326
21.5662 32.4037
21.7479 29.2416
21.9297 30.6255
22.1115 39.2177
22.2933 44.5173
22.4753 36.872
22.6572 29.7177
22.8393 29.9135
23.0214 31.121
23.2037 37.6856
23.3859 34.8686
23.5682 34.3509
23.7505 33.5284
23.9329 44.1895
24.1154 29.298
24.2979 27.2613
24.4805 26.0649
24.6631 26.0997
24.8458 27.9528
25.0286 25.957
25.2114 25.8952
25.3943 28.2924
25.5773 30.2808
25.7605 29.7554
25.9436 26.5805
26.1268 25.3326
26.31 26.1132
26.4933 28.3721
26.6767 25.5308
26.8601 26.8624
27.0437 31.2105
27.2272 27.4712
27.4109 24.5816
27.5946 24.3051
27.7784 24.6733
27.9623 25.2666
28.1462 25.4963
28.3304 26.6659
28.5145 27.8583
28.6987 25.3783
28.8829 22.9434
29.0673 22.4443
29.2517 23.2705
29.4361 22.0962
29.6207 21.8868
29.8053 22.8299
29.99 21.2327
30.1748 21.1783
30.3597 21.0069
30.5447 21.2344
30.7297 21.0881
30.915 21.1049
31.1002 23.0177
31.2855 21.9791
31.4708 20.5241
31.6563 20.4739
31.8418 21.2996
32.0275 20.6231
32.2132 20.4317
32.399 21.0936
32.5848 19.8467
32.7708 18.8919
32.9569 18.6886
33.143 18.8414
33.3293 18.3837
33.5158 18.7765
33.7022 19.0562
33.8887 18.0978
34.0753 17.6427
34.262 17.5947
34.4488 17.312
34.6357 17.0354
34.8227 17.0176
35.0098 16.5328
35.1969 16.2681
35.3842 16.3097
35.5716 16.1974
35.759 16.4858
35.9468 16.8724
36.1345 16.1448
36.3222 15.706
36.5101 15.6836
36.6981 15.5923
36.8861 15.2176
37.0743 15.3605
37.2626 14.8836
37.451 14.5896
37.6395 14.4883
37.8281 14.1805
38.0168 14.0952
38.2056 14.0152
38.3945 13.6651
38.5837 13.5258
38.7728 13.4868
38.9621 13.2658
39.1514 13.196
39.3409 12.8822
39.5304 12.745
39.7201 12.6155
39.9099 12.4791
40.0999 12.3013
40.2899 12.3081
40.48 12.0831
40.6703 11.9483
40.8607 11.9024
41.0512 11.6896
41.242 11.603
41.4327 11.4249
41.6236 11.1941
41.8146 11.0885
42.0057 10.9754
42.1969 10.8978
42.3882 10.7834
42.5797 10.5087
42.7713 10.353
42.963 10.2636
43.1549 10.1
43.3468 9.91858
43.5389 9.77625
43.7312 9.66114
43.9237 9.52387
44.1162 9.44788
44.3088 9.31388
44.5016 9.25467
44.6945 9.11733
44.8875 8.98326
45.0806 8.86883
45.2739 8.77552
45.4673 8.64338
45.6609 8.48584
45.8546 8.41036
46.0484 8.3427
46.2424 8.21776
46.4365 8.07147
46.631 7.99162
46.8254 7.81995
47.0199 7.74021
47.2146 7.63541
47.4095 7.49459
47.6044 7.39238
47.7996 7.27829
47.9948 7.17432
48.1902 7.11189
48.3858 6.98831
48.5815 6.88985
48.7774 6.81294
48.9734 6.68766
49.1696 6.58936
49.3661 6.47745
49.5626 6.46451
49.7592 6.36797
49.956 6.27924
50.153 6.14737
50.3501 6.05248
50.5474 6.00019
50.7448 5.90566
50.9424 5.82569
51.1402 5.70371
51.3381 5.62901
51.5362 5.52972
51.7344 5.45304
51.9328 5.40993
52.1316 5.25411
52.3304 5.19734
52.5293 5.12063
52.7284 5.04401
52.9276 4.94954
53.1271 4.86026
53.3267 4.80174
53.5265 4.7075
53.7264 4.64555
53.9266 4.57284
54.1269 4.46617
54.3274 4.38055
54.528 4.25296
54.7289 4.14732
54.9301 4.02541
55.1314 3.88901
55.3328 3.71127
55.5344 3.59905
55.7361 3.52806

File: Ni3Fe_FD0018.xy
TT I
1.27165 35.5443
1.45013 31.2377
1.62863 27.2357
1.80712 25.5768
1.98562 24.7531
2.16411 25.2933
2.34263 25.8439
2.52115 26.1713
2.69965 28.3121
2.87818 39.2967
3.05672 65.6162
3.23527 78.0774
3.4138 42.8449
3.59237 38.9627
3.77094 40.4271
3.9495 41.8148
4.12809 52.9338
4.30669 80.6257
4.4853 63.7429
4.6639 49.8588
4.84253 55.7252
5.02118 87.8744
5.19981 260.721
5.37848 3933.61
5.55716 159.113
5.73586 100.089
5.91455 109.233
6.09328 434.69
6.27201 332.953
6.45075 73.0498
6.62952 55.1815
6.8083 52.3964
6.98711 46.4472
7.16591 49.0743
7.34475 68.9802
7.5236 60.9685
7.70247 48.5932
7.88135 38.4792
8.06026 39.7185
8.23919 44.4125
8.41812 55.6768
8.59709 150.456
8.77609 704.304
8.9551 78.6791
9.13412 58.683
9.31318 249.572
9.49226 52.6058
9.67134 51.6621
9.85047 57.897
10.0296 94.0082
10.2088 440.843
10.388 139.6
10.5672 90.0776
10.7465 285.09
10.9257 48.7615
11.105 42.1755
11.2844 40.5444
11.4637 38.4206
11.6431 37.368
11.8225 36.9434
12.002 70.049
12.1814 46.4719
12.3609 91.7887
12.5405 45.1431
12.72 39.6851
12.8996 39.5684
13.0792 42.0126
13.2589 62.3192
13.4386 136.053
13.6183 95.9236
13.7981 145.85
13.9779 64.7328
14.1577 46.7538
14.3376 49.1379
14.5175 37.2993
14.6974 37.342
14.8774 42.168
15.0574 57.6848
15.2374 100.985
15.4175 41.0496
15.5976 37.8322
15.7778 40.4516
15.958 52.3852
16.1382 125.992
16.3185 39.9266
16.4988 33.2401
16.6792 31.4413
16.8596 31.3829
17.04 39.3349
17.2205 33.1049
17.401 35.6034
17.5815 49.7011
17.7622 34.7229
17.9428 40.4869
18.1237 42.4079
18.3044 85.1614
18.4852 57.4249
18.666 69.1951
18.8469 36.1386
19.0278 33.1168
19.2088 33.0276
19.3898 38.706
19.5709 45.9911
19.752 36.57
19.9332 31.5023
20.1144 32.1801
20.2957 41.1876
20.477 39.1872
20.6586 40.5667
20.84 31.3273
21.0215 29.6778
21.203 28.3118
21.3846 28.5807
21.5662 32.3645
21.7479 29.2698
21.9297 30.6192
22.1115 39.5596
22.2933 44.218
22.4753 36.6044
22.6572 29.9517
22.8393 30.0894
23.0214 30.9862
23.2037 37.8315
23.3859 34.5999
23.5682 34.3204
23.7505 33.5242
23.9329 43.8061
24.1154 29.2973
24.2979 27.2157
24.4805 26.1203
24.6631 25.9978
24.8458 27.7027
25.0286 25.7799
25.2114 26.0523
25.3943 28.3498
25.5773 30.3652
25.7605 29.5393
25.9436 26.7004
26.1268 25.3351
26.31 26.2519
26.4933 28.2001
26.6767 25.6598
26.8601 27.0458
27.0437 31.1164
27.2272 27.3584
27.4109 24.6252
27.5946 24.3574
27.7784 24.7415
27.9623 25.3067
28.1462 25.5532
28.3304 26.8192
28.5145 27.7132
28.6987 25.3045
28.8829 22.9805
29.0673 22.501
29.2517 23.3401
29.4361 22.1404
29.6207 21.7887
29.8053 22.84
29.99 21.2446
30.1748 21.1854
30.3597 21.0314
30.5447 21.2304
30.7297 21.0729
30.915 21.0734
31.1002 23.0393
31.2855 22.0519
31.4708 20.5844
31.6563 20.4655
31.8418 21.3336
32.0275 20.5295
32.2132 20.3963
32.399 21.0542
32.5848 19.8157
32.7708 18.95
32.9569 18.7306
33.143 18.789
33.3293 18.2571
33.5158 18.7769
33.7022 19.1065
33.8887 18.0798
34.0753 17.6684
34.262 17.5812
34.4488 17.264
34.6357 16.9856
34.8227 17.0204
35.0098 16.4836
35.1969 16.2912
35.3842 16.2717
35.5716 16.2009
35.759 16.513
35.9468 16.8006
36.1345 16.1271
36.3222 15.6825
36.5101 15.6229
36.6981 15.523
36.8861 15.1559
37.0743 15.1815
37.2626 14.8511
37.451 14.5544
37.6395 14.4855
37.8281 14.2627
38.0168 14.0767
38.2056 13.9519
38.3945 13.6665
38.5837 13.4492
38.7728 13.4604
38.9621 13.195
39.1514 13.1303
39.3409 12.8605
39.5304 12.7181
39.7201 12.6034
39.9099 12.4459
40.0999 12.3004
40.2899 12.3085
40.48 12.0748
40.6703 11.9995
40.8607 11.8535
41.0512 11.694
41.242 11.6044
41.4327 11.3865
41.6236 11.21
41.8146 11.0385
42.0057 10.9739
42.1969 10.8816
42.3882 10.7695
42.5797 10.4929
42.7713 10.3637
42.963 10.2844
43.1549 10.0915
43.3468 9.94278
43.5389 9.80367
43.7312 9.6215
43.9237 9.55167
44.1162 9.44673
44.3088 9.35089
44.5016 9.15348
44.6945 9.11257
44.8875 8.97015
45.0806 8.87633
45.2739 8.74209
45.4673 8.64333
45.6609 8.5265
45.8546 8.45209
46.0484 8.27758
46.2424 8.1777
46.4365 8.09768
46.631 7.98282
46.8254 7.81566
47.0199 7.71516
47.2146 7.63763
47.4095 7.51319
47.6044 7.38695
47.7996 7.30146
47.9948 7.20978
48.1902 7.10312
48.3858 6.99018
48.5815 6.87941
48.7774 6.79997
48.9734 6.69004
49.1696 6.62749
49.3661 6.53336
49.5626 6.40713
49.7592 6.3447
49.956 6.24209
50.153 6.1658
50.3501 6.04391
50.5474 5.96609
50.7448 5.87815
50.9424 5.83707
51.1402 5.73473
51.3381 5.61619
51.5362 5.59246
51.7344 5.44052
51.9328 5.3842
52.1316 5.27271
52.3304 5.22089
52.5293 5.10188
52.7284 5.04071
52.9276 4.96505
53.1271 4.88592
53.3267 4.78347
53.5265 4.66555
53.7264 4.63184
53.9266 4.57457
54.1269 4.4907
54.3274 4.37449
54.528 4.2394
54.7289 4.1181
54.9301 4.01615
55.1314 3.9056
55.3328 3.73641
55.5344 3.56782
55.7361 3.50396

File: Ni3Fe_FD0019.xy
TT I
1.27165 35.2602
1.45013 30.0907
1.62863 27.2007
1.80712 24.981
1.98562 24.6818
2.16411 24.8455
2.34263 26.428
2.52115 24.9816
2.69965 29.2343
2.87818 38.965
3.05672 65.6798
3.23527 77.9367
3.4138 43.0543
3.59237 38.6748
3.77094 40.05
3.9495 40.6433
4.12809 52.332
4.30669 81.2641
4.4853 63.0514
4.6639 49.192
4.84253 54.7636
5.02118 87.7426
5.19981 262.322
5.37848 3908.66
5.55716 158.638
5.73586 100.138
5.91455 109.677
6.09328 438.775
6.27201 330.085
6.45075 73.1824
6.62952 55.4778
6.8083 52.7767
6.98711 46.2861
7.16591 48.7498
7.34475 69.5758
7.5236 60.1917
7.70247 47.9974
7.88135 38.2043
8.06026 39.5439
8.23919 43.9711
8.41812 55.865
8.59709 151.855
8.77609 697.33
8.9551 78.5057
9.13412 58.9425
9.31318 250.328
9.49226 52.5685
9.67134 51.769
9.85047 58.507
10.0296 94.7193
10.2088 449.68
10.388 138.187
10.5672 90.3131
10.7465 282.789
10.9257 48.6982
11.105 42.0712
11.2844 40.8099
11.4637 38.21
11.6431 37.3405
11.8225 36.8169
12.002 70.1333
12.1814 46.2476
12.3609 92.4311
12.5405 44.9885
12.72 40.2691
12.8996 39.7233
13.0792 42.1307
13.2589 62.5706
13.4386 138.341
13.6183 94.8558
13.7981 148.19
13.9779 64.2227
14.1577 47.0655
14.3376 48.4162
14.5175 37.5945
14.6974 37.3869
14.8774 42.2274
15.0574 58.2363
15.2374 99.2638
15.4175 41.1342
15.5976 37.8624
15.7778 40.379
15.958 52.734
16.1382 124.483
16.3185 39.7519
16.4988 33.4051
16.6792 31.5784
16.8596 31.3796
17.04 39.2504
17.2205 33.2072
17.401 35.7994
17.5815 49.1627
17.7622 34.5941
17.9428 40.2178
18.1237 42.7095
18.3044 86.221
18.4852 57.0004
18.666 68.4239
18.8469 36.0084
19.0278 33.1743
19.2088 33.1885
19.3898 39.0187
19.5709 46.231
19.752 36.2445
19.9332 31.6077
20.1144 32.2212
20.2957 41.5316
20.477 39.0874
20.6586 40.2558
20.84 31.448
21.0215 29.6508
21.203 28.2106
21.3846 28.6666
21.5662 32.2853
21.7479 29.3081
21.9297 30.7711
22.1115 39.752
22.2933 43.8411
22.4753 36.3333
22.6572 29.7789
22.8393 30.0254
23.0214 31.0946
23.2037 37.9731
23.3859 34.4566
23.5682 34.2357
23.7505 33.6644
23.9329 43.4266
24.1154 29.2448
24.2979 27.2287
24.4805 26.2344
24.6631 26.1977
24.8458 27.7363
25.0286 25.9583
25.2114 26.075
25.3943 28.5277
25.5773 30.3097
25.7605 29.5273
25.9436 26.6287
26.1268 25.3972
26.31 26.1658
26.4933 28.1336
26.6767 25.8016
26.8601 27.0953
27.0437 30.9612
27.2272 27.2166
27.4109 24.5859
27.5946 24.3735
27.7784 24.7733
27.9623 25.2455
28.1462 25.5558
28.3304 26.8572
28.5145 27.545
28.6987 25.2522
28.8829 23.0169
29.0673 22.491
29.2517 23.2473
29.4361 22.1297
29.6207 21.8642
29.8053 22.7263
29.99 21.2077
30.1748 21.19
30.3597 20.9524
30.5447 21.3923
30.7297 21.0816
30.915 21.1326
31.1002 23.0072
31.2855 21.9427
31.4708 20.4872
31.6563 20.5274
31.8418 21.3547
32.0275 20.5849
32.2132 20.3992
32.399 20.9993
32.5848 19.8192
32.7708 18.9164
32.9569 18.6634
33.143 18.824
33.3293 18.3343
33.5158 18.8232
33.7022 19.1234
33.8887 18.0305
34.0753 17.6797
34.262 17.5355
34.4488 17.3423
34.6357 16.9276
34.8227 17.0193
35.0098 16.5834
35.1969 16.3564
35.3842 16.313
35.5716 16.1642
35.759 16.4713
35.9468 16.7006
36.1345 16.0908
36.3222 15.6861
36.5101 15.6448
36.6981 15.5391
36.8861 15.2329
37.0743 15.2409
37.2626 14.8349
37.451 14.5618
37.6395 14.4276
37.8281 14.1827
38.0168 14.0074
38.2056 13.9716
38.3945 13.6898
38.5837 13.4611
38.7728 13.4653
38.9621 13.2427
39.1514 13.1359
39.3409 12.9265
39.5304 12.7226
39.7201 12.565
39.9099 12.4247
40.0999 12.2944
40.2899 12.2761
40.48 12.0277
40.6703 11.9817
40.8607 11.8115
41.0512 11.655
41.242 11.5969
41.4327 11.3876
41.6236 11.1511
41.8146 11.0636
42.0057 10.9029
42.1969 10.859
42.3882 10.7037
42.5797 10.53
42.7713 10.3578
42.963 10.2155
43.1549 10.0721
43.3468 9.92974
43.5389 9.83376
43.7312 9.65015
43.9237 9.5295
44.1162 9.44839
44.3088 9.33295
44.5016 9.18682
44.6945 9.08047
44.8875 8.99592
45.0806 8.86975
45.2739 8.74315
45.4673 8.64314
45.6609 8.47049
45.8546 8.38677
46.0484 8.28378
46.2424 8.16331
46.4365 8.06184
46.631 7.94303
46.8254 7.8241
47.0199 7.71265
47.2146 7.60809
47.4095 7.48029
47.6044 7.40822
47.7996 7.26789
47.9948 7.20357
48.1902 7.12193
48.3858 6.97594
48.5815 6.87898
48.7774 6.81282
48.9734 6.69903
49.1696 6.6042
49.3661 6.4819
49.5626 6.39607
49.7592 6.32757
49.956 6.24456
50.153 6.16082
50.3501 6.07187
50.5474 5.98231
50.7448 5.90386
50.9424 5.80268
51.1402 5.72865
51.3381 5.60546
51.5362 5.54394
51.7344 5.44084
51.9328 5.35354
52.1316 5.24715
52.3304 5.19715
52.5293 5.10088
52.7284 5.03728
52.9276 4.95371
53.1271 4.89143
53.3267 4.77527
53.5265 4.75384
53.7264 4.6442
53.9266 4.57014
54.1269 4.45996
54.3274 4.39191
54.528 4.24035
54.7289 4.08785
54.9301 3.97612
55.1314 3.88736
55.3328 3.7605
55.5344 3.55807
55.7361 3.48824

File: Ni3Fe_FD0020.xy
TT I
1.27165 34.4482
1.45013 30.4721
1.62863 26.652
1.80712 25.054
1.98562 24.3992
2.16411 25.6827
2.34263 25.4573
2.52115 25.0593
2.69965 29.2945
2.87818 38.6026
3.05672 65.6049
3.23527 77.5557
3.4138 42.4031
3.59237 38.4024
3.77094 39.8257
3.9495 40.5394
4.12809 52.0613
4.30669 81.9221
4.4853 62.2443
4.6639 48.2977
4.84253 54.0516
5.02118 87.2593
5.19981 264.524
5.37848 3883.34
5.55716 158.013
5.73586 100.214
5.91455 109.945
6.09328 442.465
6.27201 326.71
6.45075 72.6863
6.62952 55.1401
6.8083 53.0652
6.98711 45.9762
7.16591 48.5601
7.34475 69.5955
7.5236 59.2813
7.70247 47.3758
7.88135 38.2478
8.06026 39.2189
8.23919 44.4558
8.41812 55.8484
8.59709 152.983
8.77609 689.019
8.9551 78.1329
9.13412 58.7702
9.31318 249.83
9.49226 52.7756
9.67134 51.9289
9.85047 58.928
10.0296 95.7181
10.2088 459.276
10.388 136.22
10.5672 90.4992
10.7465 279.385
10.9257 49.0995
11.105 42.131
11.2844 40.8714
11.4637 38.2283
11.6431 37.3105
11.8225 36.7194
12.002 70.7973
12.1814 46.4219
12.3609 93.2118
12.5405 45.1647
12.72 40.2292
12.8996 39.5221
13.0792 42.1086
13.2589 62.9138
13.4386 140.638
13.6183 94.2708
13.7981 150.757
13.9779 63.7218
14.1577 47.0918
14.3376 48.4976
14.5175 37.5759
14.6974 37.6095
14.8774 42.2877
15.0574 58.5225
15.2374 97.2508
15.4175 41.1156
15.5976 37.9284
15.7778 40.4874
15.958 52.7487
16.1382 122.757
16.3185 39.7754
16.4988 33.544
16.6792 31.7139
16.8596 31.4645
17.04 39.3056
17.2205 33.2366
17.401 35.8336
17.5815 48.8943
17.7622 34.9955
17.9428 40.272
18.1237 42.8181
18.3044 87.3839
18.4852 56.8049
18.666 67.2828
18.8469 36.0338
19.0278 33.237
19.2088 33.2491
19.3898 39.0673
19.5709 46.2967
19.752 36.1269
19.9332 31.52
20.1144 32.249
20.2957 41.8283
20.477 39.1281
20.6586 39.9199
20.84 31.5991
21.0215 29.6395
21.203 28.4543
21.3846 28.7367
21.5662 32.3131
21.7479 29.2528
21.9297 30.8324
22.1115 39.9478
22.2933 43.3596
22.4753 36.1847
22.6572 29.7502
22.8393 30.2668
23.0214 30.9617
23.2037 38.2488
23.3859 34.3008
23.5682 34.2811
23.7505 33.8061
23.9329 42.9325
24.1154 29.3035
24.2979 27.2821
24.4805 26.304
24.6631 26.156
24.8458 27.756
25.0286 26.0498
25.2114 26.2113
25.3943 28.4268
25.5773 30.362
25.7605 29.171
25.9436 26.6603
26.1268 25.4501
26.31 26.3128
26.4933 28.007
26.6767 25.6932
26.8601 27.11
27.0437 30.8851
27.2272 27.1756
27.4109 24.5839
27.5946 24.5128
27.7784 24.7885
27.9623 25.1832
28.1462 25.5115
28.3304 26.8298
28.5145 27.4542
28.6987 25.1461
28.8829 23.0451
29.0673 22.3791
29.2517 23.2998
29.4361 21.9779
29.6207 21.859
29.8053 22.7868
29.99 21.2091
30.1748 21.3039
30.3597 20.9828
30.5447 21.3251
30.7297 21.1266
30.915 21.0763
31.1002 22.94
31.2855 21.8656
31.4708 20.5443
31.6563 20.5496
31.8418 21.3872
32.0275 20.5368
32.2132 20.4093
32.399 20.9206
32.5848 19.7489
32.7708 18.8947
32.9569 18.7825
33.143 18.885
33.3293 18.3713
33.5158 18.7717
33.7022 19.0379
33.8887 18.0186
34.0753 17.7115
34.262 17.6084
34.4488 17.2394
34.6357 16.9278
34.8227 16.9743
35.0098 16.5461
35.1969 16.3662
35.3842 16.3339
35.5716 16.197
35.759 16.4545
35.9468 16.7239
36.1345 16.1471
36.3222 15.6577
36.5101 15.5855
36.6981 15.5222
36.8861 15.1401
37.0743 15.2687
37.2626 14.8596
37.451 14.5273
37.6395 14.4349
37.8281 14.1932
38.0168 14.0838
38.2056 13.9273
38.3945 13.6589
38.5837 13.49
38.7728 13.4748
38.9621 13.2189
39.1514 13.2149
39.3409 12.8802
39.5304 12.6428
39.7201 12.5449
39.9099 12.4495
40.0999 12.2939
40.2899 12.2798
40.48 12.0041
40.6703 11.9301
40.8607 11.7753
41.0512 11.6256
41.242 11.6226
41.4327 11.4005
41.6236 11.2006
41.8146 11.0819
42.0057 10.9241
42.1969 10.9165
42.3882 10.6951
42.5797 10.5169
42.7713 10.3715
42.963 10.2498
43.1549 10.0958
43.3468 9.93435
43.5389 9.75528
43.7312 9.66459
43.9237 9.56314
44.1162 9.4726
44.3088 9.32434
44.5016 9.18485
44.6945 9.09076
44.8875 8.97351
45.0806 8.86717
45.2739 8.748
45.4673 8.60861
45.6609 8.46751
45.8546 8.39391
46.0484 8.29991
46.2424 8.14829
46.4365 8.06065
46.631 7.90676
46.8254 7.81086
47.0199 7.77179
47.2146 7.59384
47.4095 7.46984
47.6044 7.4048
47.7996 7.2973
47.9948 7.16712
48.1902 7.06401
48.3858 6.99239
48.5815 6.89102
48.7774 6.79271
48.9734 6.69402
49.1696 6.61218
49.3661 6.50967
49.5626 6.40775
49.7592 6.32133
49.956 6.24999
50.153 6.13725
50.3501 6.06664
50.5474 5.97732
50.7448 5.87972
50.9424 5.77682
51.1402 5.71394
51.3381 5.60649
51.5362 5.56305
51.7344 5.46204
51.9328 5.38925
52.1316 5.26098
52.3304 5.17651
52.5293 5.12616
52.7284 5.04371
52.9276 4.95213
53.1271 4.90514
53.3267 4.79482
53.5265 4.68727
53.7264 4.62031
53.9266 4.52574
54.1269 4.45936
54.3274 4.31415
54.528 4.21007
54.7289 4.1037
54.9301 4.00599
55.1314 3.90164
55.3328 3.70251
55.5344 3.5761
55.7361 3.50767