Folder: NiFe_MOF_catalyst_paper/XRD (part 54)

File: Ni3Fe_FD0279.xy
TT I
1.27165 7.58129
1.45013 5.61434
1.62863 5.8142
1.80712 5.12303
1.98562 4.89421
2.16411 5.09162
2.34263 4.98947
2.52115 6.16476
2.69965 6.94725
2.87818 8.2981
3.05672 11.8478
3.23527 15.5103
3.4138 19.2257
3.59237 24.9359
3.77094 26.713
3.9495 30.4452
4.12809 35.9396
4.30669 234.134
4.4853 67.8168
4.6639 57.2705
4.84253 69.5262
5.02118 92.2512
5.19981 521.657
5.37848 266.495
5.55716 108.671
5.73586 97.1362
5.91455 102.32
6.09328 3683.66
6.27201 90.7283
6.45075 70.8028
6.62952 65.4486
6.8083 61.2928
6.98711 58.0236
7.16591 57.7015
7.34475 98.0698
7.5236 56.8058
7.70247 58.5225
7.88135 59.838
8.06026 64.8483
8.23919 72.5743
8.41812 89.8519
8.59709 1059.06
8.77609 109.101
8.9551 96.2278
9.13412 85.3512
9.31318 86.2555
9.49226 88.0074
9.67134 103.246
9.85047 104.959
10.0296 410.482
10.2088 587.809
10.388 110.988
10.5672 457.014
10.7465 91.3332
10.9257 81.8705
11.105 75.1742
11.2844 73.6855
11.4637 67.4393
11.6431 65.9585
11.8225 64.9526
12.002 66.2472
12.1814 140.51
12.3609 75.7088
12.5405 67.1823
12.72 73.3258
12.8996 73.8905
13.0792 82.4167
13.2589 221.284
13.4386 151.391
13.6183 223.065
13.7981 114.468
13.9779 79.3607
14.1577 75.6269
14.3376 74.5899
14.5175 71.6916
14.6974 73.6756
14.8774 112.999
15.0574 174.398
15.2374 74.486
15.4175 69.1084
15.5976 68.5259
15.7778 98.3158
15.958 177.717
16.1382 65.8248
16.3185 61.4851
16.4988 57.8463
16.6792 56.8467
16.8596 57.5402
17.04 58.2613
17.2205 67.9656
17.401 77.7374
17.5815 61.7887
17.7622 63.7624
17.9428 78.6795
18.1237 136.704
18.3044 89.969
18.4852 86.2713
18.666 63.2007
18.8469 60.6446
19.0278 59.375
19.2088 62.3929
19.3898 77.7459
19.5709 56.8635
19.752 55.5611
19.9332 58.7148
20.1144 71.6429
20.2957 64.6501
20.477 57.1075
20.6586 51.8915
20.84 51.0622
21.0215 50.7597
21.203 52.6064
21.3846 51.2819
21.5662 50.896
21.7479 54.6483
21.9297 66.6934
22.1115 57.761
22.2933 52.4027
22.4753 51.0623
22.6572 51.0765
22.8393 53.5893
23.0214 59.8967
23.2037 50.8684
23.3859 52.0359
23.5682 57.6126
23.7505 51.4023
23.9329 47.0646
24.1154 45.9627
24.2979 45.2511
24.4805 44.6472
24.6631 44.8227
24.8458 44.0732
25.0286 44.4966
25.2114 46.2543
25.3943 46.5087
25.5773 42.7338
25.7605 42.1713
25.9436 42.5111
26.1268 43.3519
26.31 41.8493
26.4933 42.1515
26.6767 43.6889
26.8601 42.1738
27.0437 40.6598
27.2272 40.1745
27.4109 39.9303
27.5946 40.0406
27.7784 39.4444
27.9623 39.7751
28.1462 40.471
28.3304 38.8821
28.5145 37.4593
28.6987 37.0713
28.8829 36.763
29.0673 36.3444
29.2517 35.7793
29.4361 35.5449
29.6207 34.5354
29.8053 34.2353
29.99 33.9611
30.1748 33.8615
30.3597 33.6771
30.5447 33.4819
30.7297 33.4723
30.915 32.9816
31.1002 32.4833
31.2855 32.2361
31.4708 32.0482
31.6563 31.6382
31.8418 31.3084
32.0275 31.1643
32.2132 30.6704
32.399 30.2123
32.5848 29.7358
32.7708 29.3884
32.9569 29.2225
33.143 28.8705
33.3293 28.5025
33.5158 28.2491
33.7022 27.7292
33.8887 27.4086
34.0753 27.0993
34.262 26.6837
34.4488 26.4227
34.6357 26.0651
34.8227 25.7607
35.0098 25.4462
35.1969 25.233
35.3842 24.9948
35.5716 24.773
35.759 24.5079
35.9468 23.9946
36.1345 23.8742
36.3222 23.5803
36.5101 23.4045
36.6981 23.0238
36.8861 22.7164
37.0743 22.4166
37.2626 22.1503
37.451 21.8587
37.6395 21.7636
37.8281 21.3506
38.0168 21.0128
38.2056 20.7978
38.3945 20.5774
38.5837 20.2927
38.7728 20.003
38.9621 19.7423
39.1514 19.5048
39.3409 19.2397
39.5304 18.9836
39.7201 18.8379
39.9099 18.592
40.0999 18.3009
40.2899 18.1109
40.48 17.8003
40.6703 17.6402
40.8607 17.449
41.0512 17.2036
41.242 16.9118
41.4327 16.7198
41.6236 16.481
41.8146 16.2589
42.0057 16.0728
42.1969 15.8669
42.3882 15.6548
42.5797 15.4741
42.7713 15.2216
42.963 14.9992
43.1549 14.8042
43.3468 14.6
43.5389 14.4068
43.7312 14.1895
43.9237 14.0259
44.1162 13.8124
44.3088 13.6546
44.5016 13.3799
44.6945 13.2083
44.8875 13.0566
45.0806 12.8619
45.2739 12.71
45.4673 12.4853
45.6609 12.3207
45.8546 12.1289
46.0484 12.0532
46.2424 11.8335
46.4365 11.6888
46.631 11.4833
46.8254 11.3129
47.0199 11.1367
47.2146 10.9822
47.4095 10.7875
47.6044 10.6243
47.7996 10.4761
47.9948 10.3373
48.1902 10.1719
48.3858 10.0434
48.5815 9.93097
48.7774 9.73806
48.9734 9.59548
49.1696 9.4902
49.3661 9.3394
49.5626 9.20549
49.7592 9.01343
49.956 8.89618
50.153 8.80848
50.3501 8.634
50.5474 8.53846
50.7448 8.40478
50.9424 8.22808
51.1402 8.12993
51.3381 8.01787
51.5362 7.8759
51.7344 7.7335
51.9328 7.60022
52.1316 7.40846
52.3304 7.3324
52.5293 7.22781
52.7284 7.09795
52.9276 6.97014
53.1271 6.90978
53.3267 6.73651
53.5265 6.62314
53.7264 6.58609
53.9266 6.44582
54.1269 6.29084
54.3274 6.17028
54.528 6.05157
54.7289 5.89855
54.9301 5.72338
55.1314 5.57806
55.3328 5.38421
55.5344 5.17116
55.7361 4.95558

File: Ni3Fe_FD0280.xy
TT I
1.27165 7.36611
1.45013 6.22953
1.62863 6.27977
1.80712 4.99852
1.98562 5.51151
2.16411 5.01263
2.34263 4.6641
2.52115 6.13263
2.69965 6.86675
2.87818 8.19007
3.05672 11.0732
3.23527 15.2763
3.4138 18.9943
3.59237 24.4234
3.77094 26.5649
3.9495 30.8046
4.12809 36.0504
4.30669 237.118
4.4853 68.8236
4.6639 57.2224
4.84253 69.8568
5.02118 91.7979
5.19981 518.508
5.37848 265.125
5.55716 108.787
5.73586 97.5601
5.91455 102.053
6.09328 3678.3
6.27201 90.1679
6.45075 70.5181
6.62952 65.5293
6.8083 61.3862
6.98711 58.2402
7.16591 57.9438
7.34475 98.4825
7.5236 56.8034
7.70247 59.0328
7.88135 60.0868
8.06026 64.3444
8.23919 72.2977
8.41812 89.7518
8.59709 1056.35
8.77609 109.202
8.9551 96.5009
9.13412 85.5287
9.31318 86.4757
9.49226 88.076
9.67134 103.515
9.85047 104.643
10.0296 408.164
10.2088 591.134
10.388 111.032
10.5672 454.521
10.7465 91.5338
10.9257 82.0206
11.105 74.8555
11.2844 73.4198
11.4637 67.3086
11.6431 66.1552
11.8225 65.2333
12.002 66.4341
12.1814 140.338
12.3609 76.2114
12.5405 67.2863
12.72 73.1652
12.8996 74.1975
13.0792 82.3594
13.2589 220.449
13.4386 150.625
13.6183 222.386
13.7981 113.6
13.9779 78.9478
14.1577 75.7233
14.3376 74.7642
14.5175 71.7392
14.6974 73.2461
14.8774 112.97
15.0574 174.729
15.2374 74.3857
15.4175 69.3387
15.5976 68.5028
15.7778 97.8961
15.958 177.312
16.1382 65.6734
16.3185 61.065
16.4988 57.9067
16.6792 56.7124
16.8596 57.5887
17.04 58.2426
17.2205 67.7066
17.401 77.6941
17.5815 61.7426
17.7622 63.8171
17.9428 78.5412
18.1237 136.868
18.3044 90.1445
18.4852 86.1651
18.666 63.2062
18.8469 60.6331
19.0278 59.1557
19.2088 62.2701
19.3898 77.9906
19.5709 56.8632
19.752 55.5935
19.9332 58.5211
20.1144 71.4246
20.2957 64.6467
20.477 57.1283
20.6586 51.9613
20.84 50.952
21.0215 50.62
21.203 52.5015
21.3846 51.3129
21.5662 50.946
21.7479 54.4822
21.9297 66.5593
22.1115 57.8498
22.2933 52.3695
22.4753 51.0912
22.6572 50.8218
22.8393 53.4786
23.0214 59.9632
23.2037 51.1064
23.3859 51.8721
23.5682 57.8453
23.7505 51.3468
23.9329 47.2778
24.1154 46.0356
24.2979 45.2435
24.4805 44.6231
24.6631 44.6691
24.8458 44.0776
25.0286 44.4169
25.2114 46.2922
25.3943 46.7178
25.5773 42.76
25.7605 42.1098
25.9436 42.3879
26.1268 43.2851
26.31 41.7973
26.4933 42.348
26.6767 43.6947
26.8601 42.1206
27.0437 40.5366
27.2272 40.0899
27.4109 39.934
27.5946 40.0052
27.7784 39.3948
27.9623 39.6973
28.1462 40.5046
28.3304 38.8957
28.5145 37.384
28.6987 36.9773
28.8829 36.884
29.0673 36.2018
29.2517 35.7332
29.4361 35.4948
29.6207 34.5771
29.8053 34.3119
29.99 33.9793
30.1748 33.7324
30.3597 33.5743
30.5447 33.433
30.7297 33.4716
30.915 32.9358
31.1002 32.4275
31.2855 32.0373
31.4708 31.9728
31.6563 31.6346
31.8418 31.3385
32.0275 31.1332
32.2132 30.5197
32.399 30.132
32.5848 29.6023
32.7708 29.3578
32.9569 29.2075
33.143 28.8336
33.3293 28.5342
33.5158 28.1038
33.7022 27.6886
33.8887 27.4437
34.0753 26.991
34.262 26.6996
34.4488 26.4228
34.6357 26.0147
34.8227 25.6996
35.0098 25.5171
35.1969 25.1849
35.3842 24.9571
35.5716 24.7936
35.759 24.3649
35.9468 24.0298
36.1345 23.8368
36.3222 23.5863
36.5101 23.3551
36.6981 23.0541
36.8861 22.682
37.0743 22.3903
37.2626 22.0586
37.451 21.9073
37.6395 21.6923
37.8281 21.3953
38.0168 20.9888
38.2056 20.7613
38.3945 20.4723
38.5837 20.2911
38.7728 20.0743
38.9621 19.798
39.1514 19.502
39.3409 19.2054
39.5304 19.0119
39.7201 18.8615
39.9099 18.5653
40.0999 18.3091
40.2899 18.1369
40.48 17.8167
40.6703 17.642
40.8607 17.4051
41.0512 17.1501
41.242 16.9085
41.4327 16.7666
41.6236 16.4967
41.8146 16.3235
42.0057 16.0824
42.1969 15.8871
42.3882 15.6348
42.5797 15.4148
42.7713 15.2649
42.963 15.0282
43.1549 14.7815
43.3468 14.5915
43.5389 14.3484
43.7312 14.1963
43.9237 14.0301
44.1162 13.7629
44.3088 13.6081
44.5016 13.3607
44.6945 13.235
44.8875 13.05
45.0806 12.8552
45.2739 12.6853
45.4673 12.5061
45.6609 12.3071
45.8546 12.1825
46.0484 11.9888
46.2424 11.8108
46.4365 11.6584
46.631 11.4468
46.8254 11.2681
47.0199 11.1432
47.2146 10.9679
47.4095 10.7971
47.6044 10.6521
47.7996 10.512
47.9948 10.3351
48.1902 10.1557
48.3858 10.0395
48.5815 9.92209
48.7774 9.77015
48.9734 9.61201
49.1696 9.47326
49.3661 9.31636
49.5626 9.1749
49.7592 9.05864
49.956 8.94129
50.153 8.77801
50.3501 8.59486
50.5474 8.50404
50.7448 8.41837
50.9424 8.26613
51.1402 8.14088
51.3381 8.011
51.5362 7.85496
51.7344 7.6925
51.9328 7.58237
52.1316 7.44785
52.3304 7.36187
52.5293 7.20296
52.7284 7.10157
52.9276 6.9962
53.1271 6.92469
53.3267 6.73152
53.5265 6.62978
53.7264 6.52432
53.9266 6.43899
54.1269 6.31026
54.3274 6.18109
54.528 6.05214
54.7289 5.86984
54.9301 5.67568
55.1314 5.47354
55.3328 5.35043
55.5344 5.1274
55.7361 5.03819

File: Ni3Fe_FD0281.xy
TT I
1.27165 7.71922
1.45013 6.17949
1.62863 5.41686
1.80712 4.74512
1.98562 4.58414
2.16411 4.95714
2.34263 4.68229
2.52115 6.0399
2.69965 6.77589
2.87818 8.67395
3.05672 11.1479
3.23527 15.3042
3.4138 18.8374
3.59237 24.4239
3.77094 26.6038
3.9495 30.564
4.12809 36.1823
4.30669 241.335
4.4853 68.9138
4.6639 57.5103
4.84253 69.656
5.02118 92.2245
5.19981 515.7
5.37848 263.397
5.55716 108.447
5.73586 97.6366
5.91455 102.088
6.09328 3673.78
6.27201 90.4088
6.45075 70.6486
6.62952 65.5449
6.8083 61.2616
6.98711 58.0971
7.16591 57.8056
7.34475 99.224
7.5236 56.7729
7.70247 58.4842
7.88135 59.9306
8.06026 64.7411
8.23919 72.2349
8.41812 89.6971
8.59709 1048.44
8.77609 109.195
8.9551 95.9795
9.13412 85.2771
9.31318 86.5778
9.49226 87.6225
9.67134 103.271
9.85047 104.642
10.0296 406.784
10.2088 591.822
10.388 111.001
10.5672 455.229
10.7465 91.5325
10.9257 81.9523
11.105 74.8853
11.2844 73.648
11.4637 67.5561
11.6431 66.2261
11.8225 64.9392
12.002 66.593
12.1814 140.952
12.3609 76.3856
12.5405 67.3777
12.72 73.3522
12.8996 73.7308
13.0792 82.4516
13.2589 219.143
13.4386 151.256
13.6183 222.087
13.7981 113.531
13.9779 78.9615
14.1577 75.4196
14.3376 74.822
14.5175 71.7216
14.6974 73.5128
14.8774 112.496
15.0574 175.066
15.2374 74.6511
15.4175 69.0535
15.5976 68.7071
15.7778 97.5622
15.958 177.32
16.1382 65.9801
16.3185 61.2293
16.4988 57.6863
16.6792 56.726
16.8596 57.5694
17.04 58.2083
17.2205 67.7012
17.401 77.5426
17.5815 61.5312
17.7622 63.7152
17.9428 78.5656
18.1237 137.104
18.3044 89.9553
18.4852 85.837
18.666 63.202
18.8469 60.5057
19.0278 59.4598
19.2088 62.4622
19.3898 78.0727
19.5709 56.8165
19.752 55.4702
19.9332 58.6265
20.1144 71.4488
20.2957 64.5519
20.477 57.1184
20.6586 51.9403
20.84 50.7304
21.0215 50.6275
21.203 52.2734
21.3846 51.3112
21.5662 50.8227
21.7479 54.5172
21.9297 66.3478
22.1115 57.8597
22.2933 52.4289
22.4753 51.0985
22.6572 50.8803
22.8393 53.4373
23.0214 59.86
23.2037 50.8206
23.3859 51.8255
23.5682 57.8653
23.7505 51.2671
23.9329 47.0524
24.1154 46.0938
24.2979 45.1983
24.4805 44.7028
24.6631 44.7629
24.8458 43.9281
25.0286 44.4684
25.2114 46.3988
25.3943 46.5013
25.5773 42.6986
25.7605 42.1475
25.9436 42.2866
26.1268 43.3396
26.31 41.85
26.4933 42.2715
26.6767 43.6503
26.8601 42.1743
27.0437 40.5537
27.2272 40.2239
27.4109 39.8614
27.5946 40.0219
27.7784 39.2822
27.9623 39.8433
28.1462 40.309
28.3304 38.7946
28.5145 37.388
28.6987 37.0004
28.8829 36.847
29.0673 36.181
29.2517 35.7562
29.4361 35.5072
29.6207 34.5216
29.8053 34.2758
29.99 33.9009
30.1748 33.7191
30.3597 33.5758
30.5447 33.4224
30.7297 33.4934
30.915 32.945
31.1002 32.374
31.2855 32.0623
31.4708 32.1051
31.6563 31.5805
31.8418 31.32
32.0275 31.1306
32.2132 30.5653
32.399 30.2102
32.5848 29.6774
32.7708 29.2533
32.9569 29.1272
33.143 29.0227
33.3293 28.5349
33.5158 28.2086
33.7022 27.7783
33.8887 27.4386
34.0753 26.9938
34.262 26.6856
34.4488 26.3533
34.6357 26.0023
34.8227 25.7397
35.0098 25.5089
35.1969 25.1777
35.3842 24.9408
35.5716 24.7237
35.759 24.4966
35.9468 24.1487
36.1345 23.9155
36.3222 23.5177
36.5101 23.3411
36.6981 22.9933
36.8861 22.6673
37.0743 22.3558
37.2626 22.1225
37.451 21.9227
37.6395 21.6748
37.8281 21.3487
38.0168 20.9766
38.2056 20.7769
38.3945 20.4797
38.5837 20.2819
38.7728 19.9888
38.9621 19.7813
39.1514 19.4556
39.3409 19.2745
39.5304 18.9189
39.7201 18.7717
39.9099 18.5643
40.0999 18.3191
40.2899 18.0852
40.48 17.8556
40.6703 17.638
40.8607 17.4405
41.0512 17.2268
41.242 16.9073
41.4327 16.6914
41.6236 16.4853
41.8146 16.3115
42.0057 16.0376
42.1969 15.7874
42.3882 15.6797
42.5797 15.4514
42.7713 15.2412
42.963 15.0041
43.1549 14.7894
43.3468 14.5637
43.5389 14.4285
43.7312 14.1783
43.9237 14.0094
44.1162 13.8012
44.3088 13.6077
44.5016 13.4079
44.6945 13.1818
44.8875 13.0486
45.0806 12.9087
45.2739 12.7332
45.4673 12.475
45.6609 12.323
45.8546 12.1416
46.0484 11.9844
46.2424 11.8149
46.4365 11.6378
46.631 11.4662
46.8254 11.3146
47.0199 11.1348
47.2146 10.969
47.4095 10.7905
47.6044 10.6674
47.7996 10.5014
47.9948 10.3741
48.1902 10.2121
48.3858 10.0798
48.5815 9.9318
48.7774 9.76978
48.9734 9.6539
49.1696 9.47103
49.3661 9.32271
49.5626 9.18996
49.7592 9.03921
49.956 8.92545
50.153 8.78372
50.3501 8.64256
50.5474 8.48989
50.7448 8.38644
50.9424 8.23542
51.1402 8.10427
51.3381 7.97468
51.5362 7.87415
51.7344 7.74405
51.9328 7.55821
52.1316 7.45336
52.3304 7.36271
52.5293 7.21562
52.7284 7.13154
52.9276 6.96845
53.1271 6.89061
53.3267 6.7664
53.5265 6.65402
53.7264 6.53306
53.9266 6.40358
54.1269 6.3381
54.3274 6.20869
54.528 6.02489
54.7289 5.83591
54.9301 5.68794
55.1314 5.57184
55.3328 5.32677
55.5344 5.10459
55.7361 5.0292

File: Ni3Fe_FD0282.xy
TT I
1.27165 7.68128
1.45013 6.56099
1.62863 6.12139
1.80712 5.05438
1.98562 4.32636
2.16411 5.21317
2.34263 4.484
2.52115 5.3353
2.69965 7.1052
2.87818 8.29503
3.05672 11.3542
3.23527 14.6467
3.4138 18.6427
3.59237 24.8395
3.77094 26.8324
3.9495 30.7901
4.12809 36.2164
4.30669 247.166
4.4853 69.6449
4.6639 57.1995
4.84253 69.507
5.02118 91.8442
5.19981 509.537
5.37848 263.879
5.55716 108.531
5.73586 97.4252
5.91455 101.573
6.09328 3666.81
6.27201 89.7259
6.45075 70.3862
6.62952 65.4163
6.8083 61.3657
6.98711 57.7152
7.16591 58.0131
7.34475 100.401
7.5236 56.5757
7.70247 58.6585
7.88135 60.0099
8.06026 64.7075
8.23919 72.4695
8.41812 89.3539
8.59709 1041.87
8.77609 109.183
8.9551 96.4782
9.13412 85.0734
9.31318 86.2524
9.49226 87.6488
9.67134 103.707
9.85047 104.379
10.0296 403.606
10.2088 597.346
10.388 110.76
10.5672 452.877
10.7465 91.0478
10.9257 81.7008
11.105 74.5683
11.2844 73.5597
11.4637 67.4053
11.6431 65.8534
11.8225 65.2134
12.002 66.301
12.1814 139.975
12.3609 76.0892
12.5405 67.2977
12.72 73.5359
12.8996 73.7603
13.0792 82.0933
13.2589 218.716
13.4386 151.403
13.6183 221.82
13.7981 112.906
13.9779 78.8585
14.1577 75.3447
14.3376 74.5749
14.5175 71.248
14.6974 73.5942
14.8774 111.855
15.0574 175.116
15.2374 74.2236
15.4175 69.1845
15.5976 68.4362
15.7778 97.7343
15.958 176.16
16.1382 65.6761
16.3185 61.1843
16.4988 57.734
16.6792 56.6252
16.8596 57.3613
17.04 58.2229
17.2205 67.6627
17.401 77.9404
17.5815 61.5252
17.7622 63.6247
17.9428 78.1566
18.1237 136.947
18.3044 89.6708
18.4852 86.2495
18.666 62.991
18.8469 60.5058
19.0278 59.2545
19.2088 62.1721
19.3898 77.6603
19.5709 56.7757
19.752 55.3824
19.9332 58.6963
20.1144 71.5334
20.2957 64.3298
20.477 57.0485
20.6586 51.8065
20.84 50.8068
21.0215 50.7205
21.203 52.4753
21.3846 51.2375
21.5662 50.6562
21.7479 54.4354
21.9297 66.5087
22.1115 57.8145
22.2933 52.6362
22.4753 50.9692
22.6572 50.8773
22.8393 53.6792
23.0214 59.8636
23.2037 51.0992
23.3859 51.9064
23.5682 57.6496
23.7505 51.3577
23.9329 47.2814
24.1154 46.0625
24.2979 45.1575
24.4805 44.7254
24.6631 44.6566
24.8458 43.9078
25.0286 44.4247
25.2114 46.2968
25.3943 46.5983
25.5773 42.619
25.7605 42.0358
25.9436 42.4385
26.1268 43.3071
26.31 41.8206
26.4933 42.3597
26.6767 43.6827
26.8601 42.1881
27.0437 40.5592
27.2272 40.0121
27.4109 39.8488
27.5946 39.9679
27.7784 39.4298
27.9623 39.7412
28.1462 40.3652
28.3304 38.8646
28.5145 37.41
28.6987 37.0866
28.8829 36.7099
29.0673 36.0532
29.2517 35.692
29.4361 35.4833
29.6207 34.5791
29.8053 34.2784
29.99 33.9306
30.1748 33.6827
30.3597 33.6574
30.5447 33.4594
30.7297 33.3752
30.915 32.8936
31.1002 32.332
31.2855 32.1093
31.4708 31.9984
31.6563 31.6017
31.8418 31.308
32.0275 31.2018
32.2132 30.5925
32.399 30.1314
32.5848 29.5152
32.7708 29.3348
32.9569 29.1379
33.143 28.8478
33.3293 28.4845
33.5158 28.1454
33.7022 27.683
33.8887 27.363
34.0753 26.9712
34.262 26.663
34.4488 26.3724
34.6357 26.0001
34.8227 25.7477
35.0098 25.4476
35.1969 25.1483
35.3842 24.9054
35.5716 24.703
35.759 24.3154
35.9468 24.0337
36.1345 23.7643
36.3222 23.7073
36.5101 23.3014
36.6981 23.047
36.8861 22.7107
37.0743 22.3898
37.2626 22.0456
37.451 21.8288
37.6395 21.6588
37.8281 21.3035
38.0168 20.9871
38.2056 20.8068
38.3945 20.532
38.5837 20.2269
38.7728 20.0058
38.9621 19.6793
39.1514 19.4098
39.3409 19.1755
39.5304 18.9543
39.7201 18.8033
39.9099 18.5374
40.0999 18.3279
40.2899 18.004
40.48 17.8259
40.6703 17.5768
40.8607 17.4335
41.0512 17.1719
41.242 16.8994
41.4327 16.7335
41.6236 16.4403
41.8146 16.3001
42.0057 16.0352
42.1969 15.8536
42.3882 15.6609
42.5797 15.3651
42.7713 15.2039
42.963 15.069
43.1549 14.8241
43.3468 14.5609
43.5389 14.3644
43.7312 14.1271
43.9237 13.9536
44.1162 13.8383
44.3088 13.5685
44.5016 13.4126
44.6945 13.2156
44.8875 13.024
45.0806 12.8718
45.2739 12.6966
45.4673 12.5315
45.6609 12.2913
45.8546 12.1837
46.0484 12.0393
46.2424 11.8171
46.4365 11.6676
46.631 11.4356
46.8254 11.2934
47.0199 11.0953
47.2146 10.9664
47.4095 10.8253
47.6044 10.6099
47.7996 10.4734
47.9948 10.3474
48.1902 10.1768
48.3858 10.0271
48.5815 9.87143
48.7774 9.75105
48.9734 9.65329
49.1696 9.47574
49.3661 9.32806
49.5626 9.15674
49.7592 9.05695
49.956 8.90929
50.153 8.76989
50.3501 8.61135
50.5474 8.51928
50.7448 8.38682
50.9424 8.25707
51.1402 8.11413
51.3381 7.97701
51.5362 7.83591
51.7344 7.72633
51.9328 7.58641
52.1316 7.44933
52.3304 7.35392
52.5293 7.21174
52.7284 7.10061
52.9276 6.97845
53.1271 6.86344
53.3267 6.74978
53.5265 6.62496
53.7264 6.53427
53.9266 6.40056
54.1269 6.26211
54.3274 6.13242
54.528 5.98259
54.7289 5.80724
54.9301 5.66423
55.1314 5.57604
55.3328 5.3462
55.5344 5.1098
55.7361 5.03572

File: Ni3Fe_FD0283.xy
TT I
1.27165 7.84418
1.45013 6.96012
1.62863 5.20662
1.80712 5.54351
1.98562 4.42418
2.16411 4.61069
2.34263 5.07838
2.52115 4.67856
2.69965 6.95709
2.87818 8.25188
3.05672 10.8825
3.23527 15.2668
3.4138 19.4429
3.59237 24.9647
3.77094 27.4951
3.9495 30.6545
4.12809 35.8864
4.30669 250.072
4.4853 69.5047
4.6639 57.7174
4.84253 69.1131
5.02118 91.4155
5.19981 510.212
5.37848 261.45
5.55716 108.125
5.73586 96.9866
5.91455 101.265
6.09328 3685.06
6.27201 90.7602
6.45075 70.5991
6.62952 65.3928
6.8083 61.0277
6.98711 58.3568
7.16591 57.3299
7.34475 101.385
7.5236 56.6966
7.70247 58.3485
7.88135 59.7397
8.06026 64.5677
8.23919 72.2618
8.41812 89.7386
8.59709 1038.27
8.77609 109.216
8.9551 96.3495
9.13412 85.2147
9.31318 86.2584
9.49226 87.9671
9.67134 103.918
9.85047 104.62
10.0296 401.804
10.2088 599.028
10.388 110.944
10.5672 452.876
10.7465 91.2594
10.9257 81.9458
11.105 74.8179
11.2844 73.639
11.4637 67.4313
11.6431 66.2251
11.8225 64.83
12.002 66.1368
12.1814 139.94
12.3609 76.0677
12.5405 67.1895
12.72 73.8101
12.8996 73.9898
13.0792 82.1563
13.2589 218.23
13.4386 151.711
13.6183 221.303
13.7981 113.446
13.9779 78.551
14.1577 75.3929
14.3376 74.7067
14.5175 71.5837
14.6974 73.3753
14.8774 111.922
15.0574 174.996
15.2374 74.4156
15.4175 68.9862
15.5976 68.4835
15.7778 97.105
15.958 176.149
16.1382 65.8025
16.3185 61.1914
16.4988 57.7267
16.6792 56.6671
16.8596 57.5935
17.04 58.0589
17.2205 67.6169
17.401 77.8811
17.5815 61.642
17.7622 63.7061
17.9428 78.524
18.1237 137.378
18.3044 89.618
18.4852 85.7801
18.666 63.095
18.8469 60.4306
19.0278 59.3028
19.2088 62.315
19.3898 77.898
19.5709 56.8622
19.752 55.6786
19.9332 58.5806
20.1144 71.7185
20.2957 64.3676
20.477 57.0693
20.6586 51.7876
20.84 50.8879
21.0215 50.7262
21.203 52.3949
21.3846 51.4471
21.5662 50.8062
21.7479 54.5859
21.9297 66.5908
22.1115 57.834
22.2933 52.6263
22.4753 50.7611
22.6572 50.8287
22.8393 53.555
23.0214 60.0283
23.2037 50.8345
23.3859 51.7013
23.5682 57.707
23.7505 51.2744
23.9329 47.0769
24.1154 46.0509
24.2979 45.1488
24.4805 44.6319
24.6631 44.4751
24.8458 44.1177
25.0286 44.5469
25.2114 46.202
25.3943 46.4497
25.5773 42.6685
25.7605 42.0674
25.9436 42.3853
26.1268 43.2323
26.31 41.8184
26.4933 42.2589
26.6767 43.6002
26.8601 42.1581
27.0437 40.4059
27.2272 40.1397
27.4109 39.8715
27.5946 40.06
27.7784 39.3676
27.9623 39.6815
28.1462 40.5199
28.3304 38.677
28.5145 37.3897
28.6987 37.0534
28.8829 36.8629
29.0673 36.1524
29.2517 35.6157
29.4361 35.5182
29.6207 34.5083
29.8053 34.2628
29.99 33.785
30.1748 33.7335
30.3597 33.5634
30.5447 33.4582
30.7297 33.4175
30.915 32.8974
31.1002 32.3942
31.2855 32.0445
31.4708 31.9978
31.6563 31.6409
31.8418 31.3292
32.0275 31.0703
32.2132 30.59
32.399 30.1356
32.5848 29.5503
32.7708 29.247
32.9569 29.1673
33.143 28.8779
33.3293 28.5236
33.5158 28.1705
33.7022 27.5903
33.8887 27.3306
34.0753 27.0551
34.262 26.6979
34.4488 26.3329
34.6357 26.034
34.8227 25.6983
35.0098 25.4532
35.1969 25.1166
35.3842 24.9185
35.5716 24.707
35.759 24.4794
35.9468 23.9841
36.1345 23.8643
36.3222 23.6277
36.5101 23.2966
36.6981 23.0221
36.8861 22.6896
37.0743 22.3538
37.2626 22.1362
37.451 21.8625
37.6395 21.7696
37.8281 21.3467
38.0168 21.0091
38.2056 20.8283
38.3945 20.4737
38.5837 20.2035
38.7728 19.9798
38.9621 19.7059
39.1514 19.5114
39.3409 19.204
39.5304 18.9516
39.7201 18.7995
39.9099 18.5362
40.0999 18.3144
40.2899 18.0637
40.48 17.9138
40.6703 17.5835
40.8607 17.3765
41.0512 17.1917
41.242 16.9947
41.4327 16.6833
41.6236 16.4888
41.8146 16.2566
42.0057 16.0398
42.1969 15.7981
42.3882 15.6752
42.5797 15.4343
42.7713 15.2721
42.963 15.0097
43.1549 14.7966
43.3468 14.5557
43.5389 14.3863
43.7312 14.2203
43.9237 14.037
44.1162 13.7426
44.3088 13.6289
44.5016 13.3982
44.6945 13.2402
44.8875 13.0622
45.0806 12.8928
45.2739 12.6832
45.4673 12.4952
45.6609 12.3202
45.8546 12.1332
46.0484 11.9471
46.2424 11.7865
46.4365 11.6723
46.631 11.4772
46.8254 11.2609
47.0199 11.1304
47.2146 10.9426
47.4095 10.7986
47.6044 10.6273
47.7996 10.4958
47.9948 10.2901
48.1902 10.1629
48.3858 10.0548
48.5815 9.90441
48.7774 9.77677
48.9734 9.61108
49.1696 9.47923
49.3661 9.33183
49.5626 9.15157
49.7592 9.04317
49.956 8.94838
50.153 8.74635
50.3501 8.60338
50.5474 8.48806
50.7448 8.40936
50.9424 8.26642
51.1402 8.10753
51.3381 7.96691
51.5362 7.87952
51.7344 7.72748
51.9328 7.54576
52.1316 7.49235
52.3304 7.33893
52.5293 7.25669
52.7284 7.13394
52.9276 6.99462
53.1271 6.88474
53.3267 6.75375
53.5265 6.62482
53.7264 6.50206
53.9266 6.38783
54.1269 6.27558
54.3274 6.16296
54.528 6.00079
54.7289 5.83817
54.9301 5.73892
55.1314 5.51962
55.3328 5.36797
55.5344 5.16795
55.7361 5.00182