Folder: NiFe_MOF_catalyst_paper/XRD (part 22)

File: Ni3Fe_FD0110.xy
TT I
1.27165 8.42476
1.45013 6.87887
1.62863 5.94331
1.80712 5.61738
1.98562 4.55773
2.16411 5.00199
2.34263 4.32653
2.52115 3.97503
2.69965 4.99916
2.87818 7.75421
3.05672 11.0645
3.23527 14.8597
3.4138 18.4574
3.59237 21.6234
3.77094 24.8454
3.9495 28.4192
4.12809 32.1336
4.30669 37.1222
4.4853 44.58
4.6639 52.8521
4.84253 65.7769
5.02118 91.8836
5.19981 624.884
5.37848 585.512
5.55716 109.314
5.73586 96.2915
5.91455 108.89
6.09328 2358.37
6.27201 93.3883
6.45075 66.5487
6.62952 59.2482
6.8083 55.1363
6.98711 53.1253
7.16591 51.7701
7.34475 51.6662
7.5236 57.1058
7.70247 53.274
7.88135 55.2412
8.06026 59.982
8.23919 67.5067
8.41812 83.907
8.59709 798.261
8.77609 123.778
8.9551 84.6988
9.13412 80.9958
9.31318 90.9068
9.49226 83.0076
9.67134 87.7029
9.85047 98.0385
10.0296 574.668
10.2088 1127.45
10.388 104.724
10.5672 284.849
10.7465 92.9047
10.9257 74.9176
11.105 69.3565
11.2844 65.4428
11.4637 62.5101
11.6431 61.4177
11.8225 60.6251
12.002 67.3706
12.1814 108.312
12.3609 78.5152
12.5405 62.298
12.72 64.3634
12.8996 68.9107
13.0792 78.7435
13.2589 191.143
13.4386 238.881
13.6183 175.75
13.7981 170.602
13.9779 75.2815
14.1577 75.309
14.3376 68.198
14.5175 67.6267
14.6974 68.5177
14.8774 120.047
15.0574 206.766
15.2374 68.55
15.4175 65.4049
15.5976 64.9105
15.7778 107.584
15.958 179.378
16.1382 61.6775
16.3185 56.5
16.4988 54.244
16.6792 53.4371
16.8596 53.6183
17.04 54.664
17.2205 63.8387
17.401 80.9139
17.5815 58.2772
17.7622 60.6917
17.9428 84.3309
18.1237 105.187
18.3044 87.7102
18.4852 97.8812
18.666 60.3036
18.8469 57.7452
19.0278 56.0938
19.2088 61.4471
19.3898 66.0701
19.5709 56.715
19.752 52.7722
19.9332 57.7139
20.1144 64.5421
20.2957 59.8878
20.477 59.9348
20.6586 49.0449
20.84 48.4712
21.0215 48.3547
21.203 48.6256
21.3846 50.0801
21.5662 48.3826
21.7479 53.5821
21.9297 59.8028
22.1115 55.8968
22.2933 52.7293
22.4753 48.3862
22.6572 48.598
22.8393 51.1322
23.0214 55.5772
23.2037 49.6918
23.3859 51.3875
23.5682 51.7149
23.7505 54.0038
23.9329 45.1865
24.1154 43.9328
24.2979 43.1678
24.4805 42.3644
24.6631 42.6317
24.8458 42.0708
25.0286 42.4978
25.2114 43.7074
25.3943 44.0453
25.5773 41.5129
25.7605 40.3491
25.9436 40.5686
26.1268 40.9434
26.31 40.6005
26.4933 40.4059
26.6767 41.3761
26.8601 40.9079
27.0437 38.9784
27.2272 38.4807
27.4109 37.9701
27.5946 38.388
27.7784 38.1559
27.9623 37.98
28.1462 38.7393
28.3304 37.6544
28.5145 36.0325
28.6987 35.5911
28.8829 35.1407
29.0673 34.7934
29.2517 34.0663
29.4361 33.7165
29.6207 33.3248
29.8053 32.6583
29.99 32.3488
30.1748 32.1128
30.3597 32.1897
30.5447 31.9809
30.7297 31.8695
30.915 31.7075
31.1002 31.1567
31.2855 30.7304
31.4708 30.587
31.6563 30.3911
31.8418 29.9205
32.0275 29.7336
32.2132 29.4154
32.399 28.8136
32.5848 28.3576
32.7708 27.9873
32.9569 27.9392
33.143 27.6273
33.3293 27.3106
33.5158 27.0927
33.7022 26.4935
33.8887 26.1259
34.0753 25.9084
34.262 25.5031
34.4488 25.2377
34.6357 24.854
34.8227 24.5428
35.0098 24.3179
35.1969 24.0524
35.3842 23.8424
35.5716 23.7082
35.759 23.4023
35.9468 23.0402
36.1345 22.7509
36.3222 22.5467
36.5101 22.2889
36.6981 21.9973
36.8861 21.7184
37.0743 21.436
37.2626 21.163
37.451 20.9297
37.6395 20.7342
37.8281 20.4255
38.0168 20.072
38.2056 19.8097
38.3945 19.5942
38.5837 19.3375
38.7728 19.1331
38.9621 18.8886
39.1514 18.5337
39.3409 18.367
39.5304 18.1148
39.7201 17.9649
39.9099 17.7604
40.0999 17.4832
40.2899 17.2574
40.48 16.9888
40.6703 16.8142
40.8607 16.6533
41.0512 16.478
41.242 16.1305
41.4327 15.9549
41.6236 15.7697
41.8146 15.5324
42.0057 15.3493
42.1969 15.1067
42.3882 14.9951
42.5797 14.7451
42.7713 14.5235
42.963 14.3413
43.1549 14.0881
43.3468 13.9932
43.5389 13.783
43.7312 13.5715
43.9237 13.393
44.1162 13.2156
44.3088 13.0378
44.5016 12.7836
44.6945 12.6392
44.8875 12.4529
45.0806 12.2759
45.2739 12.1261
45.4673 11.9441
45.6609 11.772
45.8546 11.6155
46.0484 11.4758
46.2424 11.27
46.4365 11.1455
46.631 10.955
46.8254 10.798
47.0199 10.6538
47.2146 10.5351
47.4095 10.3361
47.6044 10.1634
47.7996 10.0144
47.9948 9.88313
48.1902 9.73462
48.3858 9.60258
48.5815 9.49193
48.7774 9.36464
48.9734 9.20885
49.1696 9.05781
49.3661 8.93962
49.5626 8.78325
49.7592 8.7026
49.956 8.54298
50.153 8.42369
50.3501 8.27524
50.5474 8.11868
50.7448 8.0264
50.9424 7.90386
51.1402 7.77993
51.3381 7.67335
51.5362 7.52009
51.7344 7.37422
51.9328 7.2589
52.1316 7.12918
52.3304 7.04823
52.5293 6.90597
52.7284 6.80689
52.9276 6.70854
53.1271 6.60723
53.3267 6.4571
53.5265 6.35429
53.7264 6.23144
53.9266 6.14207
54.1269 6.03099
54.3274 5.90489
54.528 5.76025
54.7289 5.51521
54.9301 5.39091
55.1314 5.27089
55.3328 4.9848
55.5344 4.83688
55.7361 4.67494

File: Ni3Fe_FD0111.xy
TT I
1.27165 8.35498
1.45013 6.71939
1.62863 5.76413
1.80712 5.00431
1.98562 4.97519
2.16411 4.71413
2.34263 3.9708
2.52115 4.29421
2.69965 5.11768
2.87818 7.90416
3.05672 10.8124
3.23527 14.9279
3.4138 18.5603
3.59237 21.8128
3.77094 24.563
3.9495 28.3262
4.12809 32.0708
4.30669 37.5191
4.4853 44.5923
4.6639 53.3498
4.84253 65.8491
5.02118 92.0751
5.19981 616.006
5.37848 587.012
5.55716 110.026
5.73586 96.1995
5.91455 109.18
6.09328 2376.95
6.27201 93.6028
6.45075 66.393
6.62952 59.4154
6.8083 54.9936
6.98711 53.0017
7.16591 51.8827
7.34475 51.7512
7.5236 57.4048
7.70247 53.221
7.88135 55.6715
8.06026 59.7838
8.23919 67.406
8.41812 83.9514
8.59709 806.047
8.77609 124.463
8.9551 85.2377
9.13412 80.7316
9.31318 90.7316
9.49226 83.0258
9.67134 87.8362
9.85047 98.3904
10.0296 572.48
10.2088 1129.93
10.388 104.946
10.5672 287.412
10.7465 93.1358
10.9257 75.3138
11.105 69.5751
11.2844 65.4977
11.4637 62.7834
11.6431 61.3475
11.8225 60.431
12.002 67.0679
12.1814 109.24
12.3609 79.0623
12.5405 62.4633
12.72 64.2324
12.8996 69.0707
13.0792 78.7894
13.2589 191.77
13.4386 238.401
13.6183 176.927
13.7981 172.422
13.9779 75.4656
14.1577 75.3871
14.3376 68.4434
14.5175 67.7146
14.6974 69.0819
14.8774 120.926
15.0574 207.673
15.2374 68.8239
15.4175 65.7901
15.5976 65.0541
15.7778 107.725
15.958 180.734
16.1382 62.1005
16.3185 56.7992
16.4988 54.6847
16.6792 53.5086
16.8596 53.6258
17.04 54.8176
17.2205 63.8938
17.401 81.1064
17.5815 58.5148
17.7622 60.7038
17.9428 84.4794
18.1237 105.893
18.3044 87.8578
18.4852 98.2054
18.666 60.5006
18.8469 57.5773
19.0278 56.2164
19.2088 61.6404
19.3898 66.5008
19.5709 56.7136
19.752 52.7169
19.9332 58.0246
20.1144 64.8744
20.2957 60.3475
20.477 60.1397
20.6586 49.4595
20.84 48.8068
21.0215 48.5326
21.203 48.9539
21.3846 50.4248
21.5662 48.655
21.7479 53.571
21.9297 60.0289
22.1115 56.0615
22.2933 52.6016
22.4753 48.3278
22.6572 48.6703
22.8393 51.3399
23.0214 55.6529
23.2037 49.6374
23.3859 51.6353
23.5682 52.0758
23.7505 54.289
23.9329 45.3706
24.1154 43.9436
24.2979 43.3107
24.4805 42.6986
24.6631 42.7809
24.8458 42.1595
25.0286 42.619
25.2114 43.9247
25.3943 44.2706
25.5773 41.68
25.7605 40.3939
25.9436 40.6301
26.1268 40.9977
26.31 40.8002
26.4933 40.5439
26.6767 41.364
26.8601 41.0101
27.0437 39.3149
27.2272 38.6453
27.4109 38.3153
27.5946 38.2406
27.7784 38.2445
27.9623 38.145
28.1462 38.8428
28.3304 37.7251
28.5145 36.1843
28.6987 35.5772
28.8829 35.1936
29.0673 35.0136
29.2517 34.2023
29.4361 33.8498
29.6207 33.4042
29.8053 32.6592
29.99 32.4334
30.1748 32.295
30.3597 32.3916
30.5447 32.1152
30.7297 31.8957
30.915 31.8476
31.1002 31.1506
31.2855 30.8111
31.4708 30.6556
31.6563 30.543
31.8418 30.1743
32.0275 29.9488
32.2132 29.5822
32.399 28.8964
32.5848 28.5028
32.7708 28.2086
32.9569 27.981
33.143 27.6857
33.3293 27.3727
33.5158 27.128
33.7022 26.6275
33.8887 26.2895
34.0753 26.0457
34.262 25.5395
34.4488 25.3592
34.6357 24.8673
34.8227 24.7096
35.0098 24.4245
35.1969 24.1767
35.3842 23.8848
35.5716 23.807
35.759 23.4298
35.9468 23.0607
36.1345 22.8264
36.3222 22.6508
36.5101 22.4345
36.6981 22.1244
36.8861 21.7247
37.0743 21.4364
37.2626 21.1852
37.451 20.9506
37.6395 20.84
37.8281 20.5059
38.0168 20.1872
38.2056 19.8654
38.3945 19.5912
38.5837 19.4082
38.7728 19.2242
38.9621 18.8904
39.1514 18.6629
39.3409 18.4368
39.5304 18.286
39.7201 17.9919
39.9099 17.8276
40.0999 17.5932
40.2899 17.3198
40.48 17.0834
40.6703 16.8386
40.8607 16.706
41.0512 16.4825
41.242 16.2528
41.4327 16.0156
41.6236 15.8217
41.8146 15.6347
42.0057 15.3539
42.1969 15.1822
42.3882 14.9947
42.5797 14.795
42.7713 14.6067
42.963 14.4122
43.1549 14.2123
43.3468 13.9431
43.5389 13.8254
43.7312 13.6111
43.9237 13.4186
44.1162 13.2397
44.3088 13.0438
44.5016 12.8731
44.6945 12.6988
44.8875 12.5503
45.0806 12.3504
45.2739 12.1491
45.4673 11.9976
45.6609 11.8389
45.8546 11.6443
46.0484 11.5098
46.2424 11.3409
46.4365 11.1824
46.631 10.9992
46.8254 10.8432
47.0199 10.6996
47.2146 10.4924
47.4095 10.3566
47.6044 10.1924
47.7996 10.0539
47.9948 9.91636
48.1902 9.77326
48.3858 9.6487
48.5815 9.53745
48.7774 9.3751
48.9734 9.19489
49.1696 9.12876
49.3661 8.94879
49.5626 8.7945
49.7592 8.69783
49.956 8.57167
50.153 8.44348
50.3501 8.26065
50.5474 8.13373
50.7448 8.07071
50.9424 7.94208
51.1402 7.79273
51.3381 7.6817
51.5362 7.56207
51.7344 7.44851
51.9328 7.29483
52.1316 7.16876
52.3304 7.09197
52.5293 6.91247
52.7284 6.82482
52.9276 6.70356
53.1271 6.62903
53.3267 6.52901
53.5265 6.34239
53.7264 6.29508
53.9266 6.16431
54.1269 6.0409
54.3274 5.8621
54.528 5.74001
54.7289 5.59934
54.9301 5.41246
55.1314 5.23186
55.3328 5.05219
55.5344 4.86285
55.7361 4.73791

File: Ni3Fe_FD0112.xy
TT I
1.27165 8.56057
1.45013 6.46785
1.62863 5.76401
1.80712 5.4082
1.98562 5.0793
2.16411 5.17387
2.34263 4.11289
2.52115 4.29703
2.69965 4.8784
2.87818 6.86364
3.05672 10.9784
3.23527 15.0216
3.4138 18.7335
3.59237 21.587
3.77094 24.9028
3.9495 28.2604
4.12809 32.6499
4.30669 37.0885
4.4853 44.3712
4.6639 53.2312
4.84253 65.8975
5.02118 91.7007
5.19981 614.601
5.37848 578.26
5.55716 109.539
5.73586 96.5043
5.91455 108.865
6.09328 2385.17
6.27201 92.8546
6.45075 66.4576
6.62952 59.3524
6.8083 55.4263
6.98711 52.8742
7.16591 51.9439
7.34475 51.7549
7.5236 57.0621
7.70247 53.3337
7.88135 55.4338
8.06026 60.363
8.23919 67.3273
8.41812 84.0321
8.59709 808.311
8.77609 123.811
8.9551 84.9462
9.13412 80.7429
9.31318 90.4233
9.49226 82.4886
9.67134 87.931
9.85047 98.1361
10.0296 570.247
10.2088 1113.86
10.388 104.845
10.5672 289.475
10.7465 92.9107
10.9257 75.0902
11.105 69.6552
11.2844 65.6402
11.4637 62.8253
11.6431 61.6086
11.8225 60.4665
12.002 67.261
12.1814 109.839
12.3609 78.7495
12.5405 62.4996
12.72 64.4523
12.8996 68.9293
13.0792 79.06
13.2589 192.316
13.4386 236.81
13.6183 177.419
13.7981 171.903
13.9779 75.6242
14.1577 75.2297
14.3376 68.4117
14.5175 67.4893
14.6974 69.1362
14.8774 120.893
15.0574 207.383
15.2374 68.8612
15.4175 65.558
15.5976 65.1093
15.7778 108.017
15.958 181.42
16.1382 62.0583
16.3185 56.8961
16.4988 54.4242
16.6792 53.3839
16.8596 53.7078
17.04 54.8891
17.2205 64.0593
17.401 81.0192
17.5815 58.4756
17.7622 60.6652
17.9428 84.5519
18.1237 106.056
18.3044 87.4394
18.4852 97.8812
18.666 60.4941
18.8469 57.6075
19.0278 56.2863
19.2088 61.368
19.3898 66.7027
19.5709 56.6689
19.752 53.0515
19.9332 58.0876
20.1144 64.8728
20.2957 60.1357
20.477 59.7385
20.6586 49.4155
20.84 48.577
21.0215 48.6197
21.203 48.8152
21.3846 50.3318
21.5662 48.5425
21.7479 53.4182
21.9297 60.059
22.1115 56.0872
22.2933 52.7759
22.4753 48.3916
22.6572 48.6391
22.8393 51.4353
23.0214 55.6956
23.2037 49.8407
23.3859 51.4718
23.5682 52.0473
23.7505 54.2108
23.9329 45.4149
24.1154 44.0718
24.2979 43.3215
24.4805 42.5513
24.6631 42.7754
24.8458 42.1703
25.0286 42.4937
25.2114 43.9441
25.3943 44.204
25.5773 41.4939
25.7605 40.244
25.9436 40.7209
26.1268 41.0737
26.31 40.6687
26.4933 40.4723
26.6767 41.2648
26.8601 41.1379
27.0437 39.363
27.2272 38.6082
27.4109 38.2266
27.5946 38.2569
27.7784 38.3208
27.9623 38.1392
28.1462 38.9405
28.3304 37.7071
28.5145 36.0511
28.6987 35.5932
28.8829 35.1373
29.0673 34.8006
29.2517 34.1683
29.4361 33.8328
29.6207 33.2536
29.8053 32.7114
29.99 32.5827
30.1748 32.2567
30.3597 32.2555
30.5447 32.066
30.7297 31.9395
30.915 31.8154
31.1002 31.2124
31.2855 30.8004
31.4708 30.6527
31.6563 30.5307
31.8418 30.0454
32.0275 29.8542
32.2132 29.4504
32.399 28.9851
32.5848 28.4105
32.7708 28.0808
32.9569 27.9716
33.143 27.7256
33.3293 27.4186
33.5158 27.1222
33.7022 26.5247
33.8887 26.279
34.0753 25.8922
34.262 25.5275
34.4488 25.2549
34.6357 24.9059
34.8227 24.604
35.0098 24.454
35.1969 24.2131
35.3842 23.8594
35.5716 23.8125
35.759 23.5034
35.9468 23.0882
36.1345 22.7419
36.3222 22.578
36.5101 22.3097
36.6981 22.078
36.8861 21.7982
37.0743 21.4097
37.2626 21.1225
37.451 20.9397
37.6395 20.8041
37.8281 20.4901
38.0168 20.1215
38.2056 19.8854
38.3945 19.635
38.5837 19.3717
38.7728 19.1332
38.9621 18.9426
39.1514 18.6532
39.3409 18.3857
39.5304 18.2164
39.7201 18.0118
39.9099 17.7375
40.0999 17.5327
40.2899 17.3673
40.48 17.0552
40.6703 16.8529
40.8607 16.6874
41.0512 16.4471
41.242 16.2018
41.4327 16.0456
41.6236 15.7919
41.8146 15.6314
42.0057 15.3645
42.1969 15.1443
42.3882 15.0132
42.5797 14.7715
42.7713 14.5712
42.963 14.3536
43.1549 14.1914
43.3468 13.9357
43.5389 13.7922
43.7312 13.5708
43.9237 13.4162
44.1162 13.2255
44.3088 13.0232
44.5016 12.8131
44.6945 12.663
44.8875 12.4908
45.0806 12.2899
45.2739 12.1417
45.4673 12.0055
45.6609 11.8438
45.8546 11.6647
46.0484 11.5385
46.2424 11.3459
46.4365 11.2069
46.631 11.0373
46.8254 10.7925
47.0199 10.6286
47.2146 10.5093
47.4095 10.3531
47.6044 10.2058
47.7996 10.0478
47.9948 9.88201
48.1902 9.77037
48.3858 9.59689
48.5815 9.52453
48.7774 9.35821
48.9734 9.1861
49.1696 9.09178
49.3661 8.92513
49.5626 8.83082
49.7592 8.69507
49.956 8.57119
50.153 8.45317
50.3501 8.30722
50.5474 8.17567
50.7448 8.04896
50.9424 7.92019
51.1402 7.81766
51.3381 7.69329
51.5362 7.54645
51.7344 7.41706
51.9328 7.28154
52.1316 7.17286
52.3304 7.08413
52.5293 6.91587
52.7284 6.82832
52.9276 6.64491
53.1271 6.62251
53.3267 6.48428
53.5265 6.3632
53.7264 6.29062
53.9266 6.14459
54.1269 6.04328
54.3274 5.89992
54.528 5.69932
54.7289 5.55602
54.9301 5.37532
55.1314 5.23733
55.3328 5.02097
55.5344 4.87104
55.7361 4.79404

File: Ni3Fe_FD0113.xy
TT I
1.27165 8.32155
1.45013 6.95549
1.62863 6.02183
1.80712 5.20927
1.98562 5.1466
2.16411 4.77641
2.34263 4.34904
2.52115 4.03652
2.69965 5.19805
2.87818 6.97039
3.05672 10.9423
3.23527 15.1225
3.4138 18.5308
3.59237 21.6531
3.77094 24.7809
3.9495 28.1986
4.12809 32.1898
4.30669 37.277
4.4853 44.2861
4.6639 53.8055
4.84253 66.3656
5.02118 92.1808
5.19981 622.705
5.37848 562.49
5.55716 109.225
5.73586 96.9298
5.91455 108.493
6.09328 2418.67
6.27201 92.5782
6.45075 66.5025
6.62952 59.4495
6.8083 55.2795
6.98711 52.8425
7.16591 51.9867
7.34475 51.5963
7.5236 57.2197
7.70247 53.5242
7.88135 55.9102
8.06026 60.2845
8.23919 67.7392
8.41812 83.6374
8.59709 812.217
8.77609 122.222
8.9551 85.1586
9.13412 81.1021
9.31318 90.2409
9.49226 82.9241
9.67134 88.2623
9.85047 98.4469
10.0296 572.758
10.2088 1099.95
10.388 104.651
10.5672 292.435
10.7465 92.5355
10.9257 75.1296
11.105 69.5293
11.2844 65.5539
11.4637 62.9843
11.6431 61.9338
11.8225 60.6967
12.002 67.0931
12.1814 109.728
12.3609 78.3932
12.5405 62.7823
12.72 64.4147
12.8996 69.0469
13.0792 78.9123
13.2589 192.721
13.4386 230.584
13.6183 177.86
13.7981 168.754
13.9779 75.3668
14.1577 75.13
14.3376 68.5764
14.5175 67.8546
14.6974 69.2373
14.8774 120.081
15.0574 205.721
15.2374 68.5391
15.4175 65.7624
15.5976 65.0797
15.7778 107.238
15.958 181.719
16.1382 61.9549
16.3185 56.8894
16.4988 54.3745
16.6792 53.4394
16.8596 53.7013
17.04 54.8004
17.2205 63.9642
17.401 81.106
17.5815 58.5724
17.7622 61.0132
17.9428 84.7049
18.1237 106.541
18.3044 86.9658
18.4852 97.1209
18.666 60.521
18.8469 57.4539
19.0278 56.228
19.2088 61.5706
19.3898 66.8218
19.5709 56.6808
19.752 52.8048
19.9332 57.682
20.1144 64.8456
20.2957 60.0984
20.477 59.6459
20.6586 49.434
20.84 48.6721
21.0215 48.6065
21.203 49.0187
21.3846 50.3227
21.5662 48.4557
21.7479 53.5811
21.9297 60.3086
22.1115 55.6424
22.2933 52.6265
22.4753 48.4163
22.6572 48.5937
22.8393 51.2683
23.0214 55.7251
23.2037 49.7913
23.3859 51.5194
23.5682 52.2717
23.7505 53.8517
23.9329 45.4156
24.1154 44.038
24.2979 43.2469
24.4805 42.6194
24.6631 42.7594
24.8458 42.1297
25.0286 42.6111
25.2114 43.9669
25.3943 44.0936
25.5773 41.6011
25.7605 40.5181
25.9436 40.6376
26.1268 41.0741
26.31 40.6575
26.4933 40.397
26.6767 41.3811
26.8601 40.9523
27.0437 39.2125
27.2272 38.5937
27.4109 38.2782
27.5946 38.2856
27.7784 38.3379
27.9623 38.0754
28.1462 38.9109
28.3304 37.6643
28.5145 36.0528
28.6987 35.5802
28.8829 35.1411
29.0673 34.8778
29.2517 34.2851
29.4361 33.9792
29.6207 33.3646
29.8053 32.787
29.99 32.4274
30.1748 32.2472
30.3597 32.412
30.5447 32.0396
30.7297 31.8707
30.915 31.8002
31.1002 31.1905
31.2855 30.8008
31.4708 30.6911
31.6563 30.5324
31.8418 30.1102
32.0275 29.9495
32.2132 29.5115
32.399 28.9222
32.5848 28.4495
32.7708 28.0467
32.9569 27.9023
33.143 27.5774
33.3293 27.3632
33.5158 27.0234
33.7022 26.5858
33.8887 26.2558
34.0753 25.9267
34.262 25.4905
34.4488 25.2115
34.6357 24.9474
34.8227 24.6614
35.0098 24.3705
35.1969 24.1917
35.3842 23.8852
35.5716 23.7311
35.759 23.4772
35.9468 23.0459
36.1345 22.8027
36.3222 22.6043
36.5101 22.3052
36.6981 22.0438
36.8861 21.8138
37.0743 21.3977
37.2626 21.2086
37.451 20.9154
37.6395 20.7393
37.8281 20.4564
38.0168 20.1199
38.2056 19.8789
38.3945 19.641
38.5837 19.3832
38.7728 19.1063
38.9621 18.9027
39.1514 18.6465
39.3409 18.4126
39.5304 18.2477
39.7201 18.0509
39.9099 17.7928
40.0999 17.5367
40.2899 17.2798
40.48 17.0351
40.6703 16.8664
40.8607 16.6876
41.0512 16.4093
41.242 16.2068
41.4327 16.0132
41.6236 15.799
41.8146 15.595
42.0057 15.3874
42.1969 15.21
42.3882 14.9761
42.5797 14.7853
42.7713 14.617
42.963 14.3975
43.1549 14.2216
43.3468 13.9818
43.5389 13.8267
43.7312 13.5642
43.9237 13.4108
44.1162 13.2168
44.3088 13.0692
44.5016 12.8601
44.6945 12.6964
44.8875 12.488
45.0806 12.3112
45.2739 12.16
45.4673 11.9949
45.6609 11.8304
45.8546 11.6543
46.0484 11.4792
46.2424 11.3151
46.4365 11.1617
46.631 10.9717
46.8254 10.8474
47.0199 10.6779
47.2146 10.5608
47.4095 10.3584
47.6044 10.2178
47.7996 10.0493
47.9948 9.87631
48.1902 9.76389
48.3858 9.65659
48.5815 9.48499
48.7774 9.36924
48.9734 9.2409
49.1696 9.07834
49.3661 8.92209
49.5626 8.78352
49.7592 8.67888
49.956 8.60766
50.153 8.44078
50.3501 8.298
50.5474 8.1688
50.7448 8.02517
50.9424 7.90879
51.1402 7.77882
51.3381 7.67279
51.5362 7.52525
51.7344 7.39711
51.9328 7.28875
52.1316 7.16213
52.3304 7.05957
52.5293 6.93617
52.7284 6.82341
52.9276 6.72558
53.1271 6.61641
53.3267 6.50414
53.5265 6.38152
53.7264 6.24354
53.9266 6.14075
54.1269 6.02173
54.3274 5.90753
54.528 5.7571
54.7289 5.54149
54.9301 5.376
55.1314 5.25076
55.3328 5.00908
55.5344 4.82298
55.7361 4.724

File: Ni3Fe_FD0114.xy
TT I
1.27165 8.22297
1.45013 7.19088
1.62863 5.82259
1.80712 5.05174
1.98562 5.60704
2.16411 4.82918
2.34263 3.97309
2.52115 3.88374
2.69965 5.12679
2.87818 7.42079
3.05672 11.1722
3.23527 14.8974
3.4138 17.9216
3.59237 21.3551
3.77094 24.7489
3.9495 28.5825
4.12809 32.0353
4.30669 37.7207
4.4853 44.4355
4.6639 53.3507
4.84253 65.4139
5.02118 91.789
5.19981 608.202
5.37848 566.497
5.55716 109.246
5.73586 95.9687
5.91455 107.937
6.09328 2408.58
6.27201 92.0258
6.45075 66.6267
6.62952 59.5666
6.8083 55.2284
6.98711 52.8694
7.16591 51.7232
7.34475 52.0139
7.5236 56.8088
7.70247 53.3087
7.88135 55.5031
8.06026 59.5337
8.23919 67.4914
8.41812 83.5611
8.59709 814.471
8.77609 122.592
8.9551 84.8507
9.13412 81.0449
9.31318 89.8536
9.49226 82.7256
9.67134 87.691
9.85047 98.3397
10.0296 569.133
10.2088 1104.19
10.388 104.701
10.5672 291.624
10.7465 92.202
10.9257 74.9996
11.105 69.8403
11.2844 65.4258
11.4637 62.8585
11.6431 61.6678
11.8225 60.3424
12.002 66.8813
12.1814 110.114
12.3609 78.7082
12.5405 62.4737
12.72 64.4282
12.8996 68.9801
13.0792 78.8357
13.2589 193.234
13.4386 234.685
13.6183 178.328
13.7981 169.754
13.9779 75.5953
14.1577 75.1594
14.3376 68.2544
14.5175 67.5991
14.6974 68.9513
14.8774 120.442
15.0574 207.674
15.2374 68.4612
15.4175 65.3902
15.5976 64.8411
15.7778 107.696
15.958 182.018
16.1382 61.7611
16.3185 56.6577
16.4988 54.4312
16.6792 53.3832
16.8596 53.7149
17.04 54.7717
17.2205 64.0437
17.401 80.6499
17.5815 58.495
17.7622 60.829
17.9428 84.3129
18.1237 106.638
18.3044 87.4692
18.4852 97.743
18.666 60.54
18.8469 57.6807
19.0278 56.1582
19.2088 61.4021
19.3898 66.7196
19.5709 56.544
19.752 52.7479
19.9332 58.0716
20.1144 64.7355
20.2957 60.2446
20.477 59.6955
20.6586 49.2853
20.84 48.7241
21.0215 48.5906
21.203 49.0059
21.3846 50.3359
21.5662 48.551
21.7479 53.6499
21.9297 60.0696
22.1115 56.0782
22.2933 52.6129
22.4753 48.4818
22.6572 48.6661
22.8393 51.3538
23.0214 55.7388
23.2037 49.7277
23.3859 51.3755
23.5682 52.2337
23.7505 54.0416
23.9329 45.2639
24.1154 44.0324
24.2979 43.0969
24.4805 42.5733
24.6631 42.6986
24.8458 42.2277
25.0286 42.6079
25.2114 43.888
25.3943 44.1121
25.5773 41.6436
25.7605 40.2962
25.9436 40.6215
26.1268 40.969
26.31 40.7861
26.4933 40.5333
26.6767 41.3931
26.8601 41.007
27.0437 39.2946
27.2272 38.5401
27.4109 38.1638
27.5946 38.3618
27.7784 38.1398
27.9623 38.0196
28.1462 38.7993
28.3304 37.8418
28.5145 36.0423
28.6987 35.6276
28.8829 35.1692
29.0673 34.9585
29.2517 34.3098
29.4361 33.965
29.6207 33.2745
29.8053 32.7554
29.99 32.5665
30.1748 32.3331
30.3597 32.338
30.5447 32.0308
30.7297 31.9643
30.915 31.7544
31.1002 31.2092
31.2855 30.8542
31.4708 30.6817
31.6563 30.5746
31.8418 30.0842
32.0275 29.8355
32.2132 29.4019
32.399 28.9427
32.5848 28.431
32.7708 28.1281
32.9569 27.9685
33.143 27.6684
33.3293 27.3025
33.5158 27.0885
33.7022 26.5081
33.8887 26.2059
34.0753 26.0032
34.262 25.6102
34.4488 25.1507
34.6357 24.9685
34.8227 24.6145
35.0098 24.4656
35.1969 24.0967
35.3842 23.8122
35.5716 23.7038
35.759 23.4648
35.9468 23.0157
36.1345 22.7973
36.3222 22.6772
36.5101 22.3542
36.6981 22.1183
36.8861 21.8044
37.0743 21.3669
37.2626 21.1783
37.451 20.9322
37.6395 20.7079
37.8281 20.4196
38.0168 20.1909
38.2056 19.8909
38.3945 19.5843
38.5837 19.3736
38.7728 19.1932
38.9621 18.9536
39.1514 18.6535
39.3409 18.3987
39.5304 18.2403
39.7201 17.988
39.9099 17.8032
40.0999 17.5422
40.2899 17.3283
40.48 17.0723
40.6703 16.8685
40.8607 16.674
41.0512 16.4976
41.242 16.2272
41.4327 15.9991
41.6236 15.7933
41.8146 15.6076
42.0057 15.3354
42.1969 15.1714
42.3882 14.9983
42.5797 14.7899
42.7713 14.6127
42.963 14.4123
43.1549 14.1756
43.3468 13.9732
43.5389 13.757
43.7312 13.6082
43.9237 13.4677
44.1162 13.2042
44.3088 13.0464
44.5016 12.8196
44.6945 12.6733
44.8875 12.5357
45.0806 12.3307
45.2739 12.1601
45.4673 11.9861
45.6609 11.818
45.8546 11.673
46.0484 11.4777
46.2424 11.316
46.4365 11.1772
46.631 10.9733
46.8254 10.8229
47.0199 10.6742
47.2146 10.5425
47.4095 10.3502
47.6044 10.1856
47.7996 10.07
47.9948 9.91761
48.1902 9.76787
48.3858 9.61994
48.5815 9.4915
48.7774 9.38035
48.9734 9.22862
49.1696 9.09252
49.3661 8.95433
49.5626 8.78169
49.7592 8.69883
49.956 8.5439
50.153 8.46638
50.3501 8.27724
50.5474 8.17552
50.7448 8.07092
50.9424 7.9025
51.1402 7.77877
51.3381 7.6427
51.5362 7.56215
51.7344 7.42864
51.9328 7.28975
52.1316 7.16883
52.3304 7.03669
52.5293 6.93774
52.7284 6.82482
52.9276 6.73705
53.1271 6.64479
53.3267 6.52129
53.5265 6.33575
53.7264 6.24933
53.9266 6.14351
54.1269 6.02757
54.3274 5.87856
54.528 5.73285
54.7289 5.52539
54.9301 5.40398
55.1314 5.27157
55.3328 5.04622
55.5344 4.79474
55.7361 4.75404