Folder: NiFe_MOF_catalyst_paper/XRD (part 166)

File: Ni3Fe_FD0900.xy
TT I
1.27165 7.46174
1.45013 5.98013
1.62863 5.43156
1.80712 4.96761
1.98562 4.6034
2.16411 4.95813
2.34263 5.52267
2.52115 7.07669
2.69965 8.65525
2.87818 9.16602
3.05672 11.4414
3.23527 15.2783
3.4138 18.9454
3.59237 23.5586
3.77094 25.9815
3.9495 29.5245
4.12809 33.7436
4.30669 165.229
4.4853 59.7937
4.6639 54.8866
4.84253 66.3643
5.02118 85.2688
5.19981 324.851
5.37848 170.919
5.55716 99.5121
5.73586 90.9102
5.91455 92.0797
6.09328 4559.7
6.27201 79.6333
6.45075 66.1136
6.62952 61.3626
6.8083 57.334
6.98711 54.7933
7.16591 54.4996
7.34475 80.1559
7.5236 53.7622
7.70247 55.3553
7.88135 57.0026
8.06026 61.2088
8.23919 68.5518
8.41812 83.0361
8.59709 1191.4
8.77609 95.5621
8.9551 88.3161
9.13412 80.7305
9.31318 80.9528
9.49226 82.8918
9.67134 94.4258
9.85047 97.8651
10.0296 321.786
10.2088 331.827
10.388 102.493
10.5672 537.065
10.7465 84.6542
10.9257 76.6659
11.105 70.2405
11.2844 68.1785
11.4637 63.8465
11.6431 62.3577
11.8225 61.2101
12.002 62.6537
12.1814 158.418
12.3609 67.3965
12.5405 63.3269
12.72 67.7715
12.8996 69.5137
13.0792 77.9149
13.2589 240.047
13.4386 113.603
13.6183 253.621
13.7981 91.6393
13.9779 74.2913
14.1577 70.6075
14.3376 69.4611
14.5175 67.4558
14.6974 68.8631
14.8774 108.191
15.0574 136.747
15.2374 68.8551
15.4175 65.0012
15.5976 64.7185
15.7778 92.5536
15.958 148.55
16.1382 60.901
16.3185 57.1566
16.4988 54.32
16.6792 53.4383
16.8596 54.0731
17.04 54.8916
17.2205 65.2662
17.401 68.09
17.5815 57.9272
17.7622 60.2021
17.9428 71.8244
18.1237 139.862
18.3044 90.2287
18.4852 73.1921
18.666 59.162
18.8469 56.8039
19.0278 55.6784
19.2088 58.4323
19.3898 75.5716
19.5709 53.0564
19.752 52.2007
19.9332 55.0802
20.1144 69.5101
20.2957 63.7757
20.477 52.0984
20.6586 48.7962
20.84 48.0362
21.0215 47.671
21.203 50.1759
21.3846 47.8207
21.5662 47.9054
21.7479 51.6946
21.9297 64.1765
22.1115 55.4364
22.2933 48.7222
22.4753 47.9326
22.6572 47.9403
22.8393 51.0883
23.0214 56.1762
23.2037 47.8412
23.3859 48.9263
23.5682 56.845
23.7505 47.1064
23.9329 44.3446
24.1154 43.2229
24.2979 42.6599
24.4805 42.092
24.6631 41.9931
24.8458 41.4319
25.0286 42.1204
25.2114 43.9059
25.3943 43.7378
25.5773 40.1257
25.7605 39.6925
25.9436 40.2131
26.1268 40.9957
26.31 39.4146
26.4933 40.0634
26.6767 41.6148
26.8601 39.6378
27.0437 38.0832
27.2272 37.7584
27.4109 37.723
27.5946 37.7352
27.7784 37.1175
27.9623 37.7595
28.1462 38.1215
28.3304 36.4555
28.5145 35.309
28.6987 34.9658
28.8829 34.8412
29.0673 34.0641
29.2517 33.7036
29.4361 33.5519
29.6207 32.6234
29.8053 32.3025
29.99 32.0837
30.1748 31.9349
30.3597 31.6018
30.5447 31.5839
30.7297 31.6668
30.915 31.0595
31.1002 30.5637
31.2855 30.3522
31.4708 30.2527
31.6563 29.854
31.8418 29.6068
32.0275 29.3759
32.2132 28.8602
32.399 28.3745
32.5848 27.995
32.7708 27.6462
32.9569 27.5272
33.143 27.2703
33.3293 26.9348
33.5158 26.5799
33.7022 26.1012
33.8887 25.8843
34.0753 25.4056
34.262 25.2792
34.4488 24.9285
34.6357 24.5302
34.8227 24.2664
35.0098 24.0875
35.1969 23.8067
35.3842 23.5425
35.5716 23.3395
35.759 23.0635
35.9468 22.7671
36.1345 22.5084
36.3222 22.2389
36.5101 22.0953
36.6981 21.6778
36.8861 21.4765
37.0743 21.1082
37.2626 20.8619
37.451 20.6192
37.6395 20.4589
37.8281 20.0478
38.0168 19.8783
38.2056 19.6004
38.3945 19.3281
38.5837 19.1208
38.7728 18.8694
38.9621 18.6659
39.1514 18.3931
39.3409 18.1112
39.5304 17.8472
39.7201 17.7771
39.9099 17.5428
40.0999 17.2429
40.2899 17.0645
40.48 16.8287
40.6703 16.6116
40.8607 16.3966
41.0512 16.2661
41.242 15.9423
41.4327 15.7692
41.6236 15.5248
41.8146 15.411
42.0057 15.1892
42.1969 14.9353
42.3882 14.8014
42.5797 14.5351
42.7713 14.395
42.963 14.2509
43.1549 14.01
43.3468 13.7935
43.5389 13.6246
43.7312 13.4207
43.9237 13.1665
44.1162 13.0528
44.3088 12.8299
44.5016 12.6889
44.6945 12.4896
44.8875 12.3862
45.0806 12.1506
45.2739 12.0174
45.4673 11.8532
45.6609 11.6906
45.8546 11.4788
46.0484 11.3269
46.2424 11.1279
46.4365 11.0357
46.631 10.8072
46.8254 10.6588
47.0199 10.4908
47.2146 10.3261
47.4095 10.2351
47.6044 10.0755
47.7996 9.95717
47.9948 9.75886
48.1902 9.65559
48.3858 9.50662
48.5815 9.36518
48.7774 9.25127
48.9734 9.0861
49.1696 8.92447
49.3661 8.82022
49.5626 8.66834
49.7592 8.53272
49.956 8.46155
50.153 8.3124
50.3501 8.17278
50.5474 8.05177
50.7448 7.90115
50.9424 7.81081
51.1402 7.70017
51.3381 7.53899
51.5362 7.40058
51.7344 7.28432
51.9328 7.18375
52.1316 7.05688
52.3304 6.97226
52.5293 6.81868
52.7284 6.75339
52.9276 6.63076
53.1271 6.52419
53.3267 6.41153
53.5265 6.31086
53.7264 6.16248
53.9266 6.0509
54.1269 5.98695
54.3274 5.87695
54.528 5.71993
54.7289 5.57592
54.9301 5.39481
55.1314 5.23839
55.3328 5.03597
55.5344 4.92165
55.7361 4.73179

File: Ni3Fe_FD0901.xy
TT I
1.27165 7.54136
1.45013 5.84017
1.62863 5.48776
1.80712 5.03379
1.98562 4.96067
2.16411 5.34829
2.34263 5.45544
2.52115 6.94934
2.69965 8.51755
2.87818 8.58643
3.05672 11.4091
3.23527 15.0201
3.4138 18.818
3.59237 23.7644
3.77094 25.8116
3.9495 29.6288
4.12809 34.0324
4.30669 161.552
4.4853 59.403
4.6639 54.9252
4.84253 66.4798
5.02118 85.4506
5.19981 326.825
5.37848 171.384
5.55716 99.9083
5.73586 90.5707
5.91455 92.3025
6.09328 4582.72
6.27201 79.6315
6.45075 66.4574
6.62952 61.8039
6.8083 57.1033
6.98711 54.8461
7.16591 54.3531
7.34475 79.2108
7.5236 53.6647
7.70247 55.4988
7.88135 56.8202
8.06026 61.1309
8.23919 68.5779
8.41812 82.9644
8.59709 1186.24
8.77609 95.5086
8.9551 88.379
9.13412 80.9343
9.31318 81.5252
9.49226 83.2748
9.67134 94.5738
9.85047 98.4215
10.0296 323.073
10.2088 328.852
10.388 102.688
10.5672 537.164
10.7465 84.0677
10.9257 76.4159
11.105 70.5657
11.2844 68.2825
11.4637 63.6492
11.6431 62.2148
11.8225 61.3837
12.002 62.4906
12.1814 158.24
12.3609 67.2373
12.5405 63.1642
12.72 67.8462
12.8996 69.6378
13.0792 78.5919
13.2589 239.751
13.4386 113.851
13.6183 255.65
13.7981 91.3553
13.9779 74.2978
14.1577 70.8708
14.3376 69.5221
14.5175 67.2731
14.6974 69.0865
14.8774 108.398
15.0574 136.629
15.2374 68.9553
15.4175 65.083
15.5976 64.4358
15.7778 92.3909
15.958 148.157
16.1382 60.7701
16.3185 57.2327
16.4988 54.3872
16.6792 53.4247
16.8596 53.875
17.04 54.7041
17.2205 65.7105
17.401 67.9261
17.5815 58.1541
17.7622 59.9765
17.9428 71.7689
18.1237 139.737
18.3044 90.1172
18.4852 73.2752
18.666 59.1627
18.8469 56.975
19.0278 55.8791
19.2088 58.139
19.3898 75.684
19.5709 53.0754
19.752 52.2625
19.9332 55.0277
20.1144 69.4803
20.2957 63.9862
20.477 52.035
20.6586 48.8492
20.84 47.8545
21.0215 47.648
21.203 50.0507
21.3846 47.8046
21.5662 48.1254
21.7479 51.6304
21.9297 64.0253
22.1115 55.4444
22.2933 48.7275
22.4753 47.9014
22.6572 47.8924
22.8393 51.1214
23.0214 56.1729
23.2037 47.9094
23.3859 48.9495
23.5682 56.9339
23.7505 46.9936
23.9329 44.3918
24.1154 43.3169
24.2979 42.6039
24.4805 42.1051
24.6631 42.0171
24.8458 41.5026
25.0286 42.0895
25.2114 43.9291
25.3943 43.753
25.5773 40.1277
25.7605 39.7465
25.9436 40.1088
26.1268 41.0408
26.31 39.4666
26.4933 39.9695
26.6767 41.468
26.8601 39.6005
27.0437 38.2212
27.2272 37.7843
27.4109 37.7761
27.5946 37.6281
27.7784 37.2053
27.9623 37.905
28.1462 38.1596
28.3304 36.4401
28.5145 35.2735
28.6987 34.9719
28.8829 34.7074
29.0673 33.9432
29.2517 33.7272
29.4361 33.6686
29.6207 32.5732
29.8053 32.2654
29.99 32.0277
30.1748 31.7335
30.3597 31.7078
30.5447 31.63
30.7297 31.6614
30.915 31.0287
31.1002 30.5662
31.2855 30.3077
31.4708 30.2307
31.6563 29.9167
31.8418 29.6501
32.0275 29.3781
32.2132 28.8528
32.399 28.4596
32.5848 27.9711
32.7708 27.6745
32.9569 27.5277
33.143 27.3252
33.3293 26.9457
33.5158 26.5649
33.7022 26.0794
33.8887 25.8854
34.0753 25.5759
34.262 25.149
34.4488 24.8744
34.6357 24.5731
34.8227 24.2364
35.0098 23.9806
35.1969 23.8377
35.3842 23.5691
35.5716 23.3673
35.759 23.0036
35.9468 22.7441
36.1345 22.4829
36.3222 22.3202
36.5101 21.9861
36.6981 21.7348
36.8861 21.4065
37.0743 21.0747
37.2626 20.9289
37.451 20.6015
37.6395 20.4713
37.8281 20.1065
38.0168 19.8482
38.2056 19.6022
38.3945 19.3827
38.5837 19.098
38.7728 18.9206
38.9621 18.6388
39.1514 18.3537
39.3409 18.1788
39.5304 17.965
39.7201 17.8285
39.9099 17.5227
40.0999 17.324
40.2899 17.097
40.48 16.8776
40.6703 16.5968
40.8607 16.428
41.0512 16.2219
41.242 15.9971
41.4327 15.7884
41.6236 15.6019
41.8146 15.4037
42.0057 15.1711
42.1969 15.0214
42.3882 14.8032
42.5797 14.5702
42.7713 14.3912
42.963 14.1147
43.1549 13.9785
43.3468 13.7312
43.5389 13.5859
43.7312 13.3883
43.9237 13.2265
44.1162 13.0479
44.3088 12.8433
44.5016 12.6734
44.6945 12.5072
44.8875 12.2997
45.0806 12.1651
45.2739 12.0201
45.4673 11.8484
45.6609 11.6592
45.8546 11.4755
46.0484 11.305
46.2424 11.1537
46.4365 11.0367
46.631 10.8517
46.8254 10.6554
47.0199 10.5033
47.2146 10.3677
47.4095 10.2078
47.6044 10.0642
47.7996 9.90312
47.9948 9.70766
48.1902 9.62607
48.3858 9.51075
48.5815 9.39463
48.7774 9.22348
48.9734 9.11781
49.1696 8.93635
49.3661 8.77347
49.5626 8.64814
49.7592 8.52242
49.956 8.45371
50.153 8.28074
50.3501 8.16119
50.5474 8.05985
50.7448 7.91738
50.9424 7.79983
51.1402 7.7011
51.3381 7.54799
51.5362 7.42287
51.7344 7.30087
51.9328 7.18997
52.1316 7.05371
52.3304 6.9293
52.5293 6.79586
52.7284 6.69689
52.9276 6.60509
53.1271 6.5225
53.3267 6.38255
53.5265 6.26463
53.7264 6.1703
53.9266 6.0853
54.1269 5.94179
54.3274 5.83004
54.528 5.69044
54.7289 5.52423
54.9301 5.35119
55.1314 5.27409
55.3328 5.09513
55.5344 4.89459
55.7361 4.75248

File: Ni3Fe_FD0902.xy
TT I
1.27165 7.6697
1.45013 5.96152
1.62863 4.86413
1.80712 4.42686
1.98562 4.69079
2.16411 4.84406
2.34263 5.38728
2.52115 7.64193
2.69965 8.92955
2.87818 8.56751
3.05672 11.2524
3.23527 14.9569
3.4138 18.8719
3.59237 23.183
3.77094 26.159
3.9495 29.2628
4.12809 34.2812
4.30669 157.433
4.4853 58.6407
4.6639 54.6402
4.84253 66.6255
5.02118 85.4414
5.19981 329.727
5.37848 171.821
5.55716 100.039
5.73586 90.3514
5.91455 92.478
6.09328 4570.88
6.27201 79.5622
6.45075 66.7239
6.62952 61.3743
6.8083 57.2465
6.98711 54.971
7.16591 54.4967
7.34475 78.4287
7.5236 53.7586
7.70247 55.3319
7.88135 56.8034
8.06026 61.2829
8.23919 68.4242
8.41812 82.8671
8.59709 1183.51
8.77609 95.6693
8.9551 88.5248
9.13412 80.7099
9.31318 81.62
9.49226 83.2802
9.67134 94.8427
9.85047 98.3914
10.0296 322.92
10.2088 330.239
10.388 102.256
10.5672 535.17
10.7465 84.4504
10.9257 76.4366
11.105 70.3745
11.2844 68.0797
11.4637 63.5124
11.6431 62.4263
11.8225 61.3525
12.002 62.6576
12.1814 157.992
12.3609 67.3051
12.5405 63.2992
12.72 67.6797
12.8996 69.8685
13.0792 78.0028
13.2589 239.247
13.4386 113.784
13.6183 255.684
13.7981 91.57
13.9779 74.1691
14.1577 70.6298
14.3376 69.3749
14.5175 67.5734
14.6974 69.0978
14.8774 108.891
15.0574 136.93
15.2374 68.8458
15.4175 65.1211
15.5976 64.6827
15.7778 92.2578
15.958 148.265
16.1382 60.9364
16.3185 57.0474
16.4988 54.5215
16.6792 53.278
16.8596 54.1144
17.04 54.7149
17.2205 65.7522
17.401 68.0779
17.5815 58.0727
17.7622 60.0933
17.9428 71.9027
18.1237 140.199
18.3044 90.4289
18.4852 73.1713
18.666 59.298
18.8469 57.0005
19.0278 55.72
19.2088 58.24
19.3898 75.3571
19.5709 52.8355
19.752 52.2451
19.9332 55.1205
20.1144 69.5188
20.2957 64.0228
20.477 52.0048
20.6586 48.5695
20.84 48.0207
21.0215 47.8057
21.203 50.1466
21.3846 47.7306
21.5662 47.9477
21.7479 51.57
21.9297 64.0014
22.1115 55.5787
22.2933 48.5811
22.4753 47.8662
22.6572 48.0513
22.8393 51.0722
23.0214 56.3167
23.2037 47.9688
23.3859 48.9259
23.5682 56.7941
23.7505 47.1663
23.9329 44.3406
24.1154 43.3183
24.2979 42.6859
24.4805 42.2118
24.6631 41.9735
24.8458 41.3683
25.0286 42.1417
25.2114 43.9199
25.3943 43.88
25.5773 40.0086
25.7605 39.7283
25.9436 40.157
26.1268 40.9508
26.31 39.3104
26.4933 40.0553
26.6767 41.4874
26.8601 39.9087
27.0437 38.2028
27.2272 37.8163
27.4109 37.7208
27.5946 37.7263
27.7784 37.1406
27.9623 37.8222
28.1462 38.0838
28.3304 36.467
28.5145 35.3195
28.6987 35.0093
28.8829 34.8399
29.0673 34.0225
29.2517 33.7441
29.4361 33.4729
29.6207 32.5346
29.8053 32.2591
29.99 32.0472
30.1748 31.9865
30.3597 31.6872
30.5447 31.6927
30.7297 31.7347
30.915 31.1242
31.1002 30.635
31.2855 30.2418
31.4708 30.3879
31.6563 29.7883
31.8418 29.5617
32.0275 29.4767
32.2132 28.7892
32.399 28.4197
32.5848 27.9674
32.7708 27.6701
32.9569 27.5724
33.143 27.3636
33.3293 26.845
33.5158 26.5715
33.7022 26.2039
33.8887 25.8968
34.0753 25.5574
34.262 25.1809
34.4488 24.8296
34.6357 24.5777
34.8227 24.3379
35.0098 24.0594
35.1969 23.8532
35.3842 23.5804
35.5716 23.3604
35.759 23.0614
35.9468 22.7029
36.1345 22.5807
36.3222 22.2843
36.5101 22.0039
36.6981 21.7538
36.8861 21.4178
37.0743 21.1345
37.2626 20.9284
37.451 20.6167
37.6395 20.3759
37.8281 20.102
38.0168 19.8227
38.2056 19.6196
38.3945 19.2877
38.5837 19.1107
38.7728 18.8802
38.9621 18.6227
39.1514 18.3603
39.3409 18.1587
39.5304 17.9485
39.7201 17.7242
39.9099 17.4702
40.0999 17.2438
40.2899 17.1134
40.48 16.8225
40.6703 16.6117
40.8607 16.4411
41.0512 16.2519
41.242 15.9726
41.4327 15.7985
41.6236 15.5883
41.8146 15.3793
42.0057 15.1775
42.1969 14.9698
42.3882 14.7883
42.5797 14.5764
42.7713 14.3482
42.963 14.1975
43.1549 13.9903
43.3468 13.7654
43.5389 13.6138
43.7312 13.4058
43.9237 13.2392
44.1162 13.0114
44.3088 12.8887
44.5016 12.6992
44.6945 12.4895
44.8875 12.308
45.0806 12.1459
45.2739 11.9707
45.4673 11.838
45.6609 11.6617
45.8546 11.4926
46.0484 11.34
46.2424 11.1166
46.4365 11.0318
46.631 10.8427
46.8254 10.6871
47.0199 10.5198
47.2146 10.3792
47.4095 10.1685
47.6044 10.0936
47.7996 9.91089
47.9948 9.74266
48.1902 9.65339
48.3858 9.46261
48.5815 9.34649
48.7774 9.19995
48.9734 9.07775
49.1696 8.94436
49.3661 8.84204
49.5626 8.64412
49.7592 8.55446
49.956 8.42466
50.153 8.28181
50.3501 8.16221
50.5474 8.05457
50.7448 7.93626
50.9424 7.78871
51.1402 7.68642
51.3381 7.53571
51.5362 7.40899
51.7344 7.31131
51.9328 7.16647
52.1316 7.06798
52.3304 6.94623
52.5293 6.83782
52.7284 6.73153
52.9276 6.59128
53.1271 6.54015
53.3267 6.37388
53.5265 6.27975
53.7264 6.1621
53.9266 6.07049
54.1269 5.94739
54.3274 5.84764
54.528 5.75648
54.7289 5.56596
54.9301 5.39547
55.1314 5.27765
55.3328 5.08082
55.5344 4.88182
55.7361 4.74089

File: Ni3Fe_FD0904.xy
TT I
1.27165 7.93051
1.45013 6.4396
1.62863 5.21015
1.80712 5.00391
1.98562 4.0922
2.16411 4.65295
2.34263 5.29133
2.52115 7.32271
2.69965 8.60011
2.87818 9.53171
3.05672 11.1286
3.23527 15.2621
3.4138 18.2189
3.59237 23.144
3.77094 25.7961
3.9495 29.5552
4.12809 34.3519
4.30669 149.156
4.4853 58.0879
4.6639 54.539
4.84253 66.9271
5.02118 85.673
5.19981 336.489
5.37848 172.548
5.55716 100.615
5.73586 90.6403
5.91455 92.3978
6.09328 4575.44
6.27201 79.357
6.45075 66.8194
6.62952 61.7551
6.8083 57.4184
6.98711 54.806
7.16591 54.2861
7.34475 76.2307
7.5236 53.6132
7.70247 55.3813
7.88135 56.8082
8.06026 61.5086
8.23919 68.399
8.41812 82.9975
8.59709 1193.37
8.77609 95.9148
8.9551 88.267
9.13412 80.7929
9.31318 81.7192
9.49226 83.423
9.67134 94.3704
9.85047 98.6106
10.0296 326.803
10.2088 323.271
10.388 102.806
10.5672 541.273
10.7465 84.6276
10.9257 76.62
11.105 70.5771
11.2844 68.0997
11.4637 63.7722
11.6431 62.7058
11.8225 61.3836
12.002 62.6818
12.1814 156.281
12.3609 66.6448
12.5405 63.1615
12.72 67.51
12.8996 69.9709
13.0792 78.1931
13.2589 242.577
13.4386 113.456
13.6183 257.275
13.7981 91.5062
13.9779 74.6354
14.1577 70.8169
14.3376 69.6047
14.5175 67.8155
14.6974 69.2056
14.8774 109.403
15.0574 136.926
15.2374 69.0996
15.4175 65.317
15.5976 64.723
15.7778 93.2273
15.958 146.631
16.1382 60.8466
16.3185 57.1766
16.4988 54.4833
16.6792 53.3589
16.8596 53.9656
17.04 54.9
17.2205 65.837
17.401 67.9027
17.5815 58.1445
17.7622 60.2713
17.9428 72.0558
18.1237 139.55
18.3044 90.5455
18.4852 73.1272
18.666 59.2043
18.8469 56.8647
19.0278 55.8986
19.2088 58.39
19.3898 75.1025
19.5709 53.0158
19.752 52.3445
19.9332 55.2103
20.1144 69.4017
20.2957 63.7468
20.477 51.9069
20.6586 48.7003
20.84 47.9304
21.0215 47.7616
21.203 50.0964
21.3846 47.928
21.5662 48.1229
21.7479 51.8469
21.9297 63.9814
22.1115 55.5434
22.2933 48.6684
22.4753 47.9149
22.6572 47.9209
22.8393 51.1226
23.0214 56.2727
23.2037 47.8779
23.3859 48.8629
23.5682 56.7719
23.7505 47.122
23.9329 44.3466
24.1154 43.3025
24.2979 42.7094
24.4805 42.2239
24.6631 41.9202
24.8458 41.5083
25.0286 42.1893
25.2114 43.9295
25.3943 43.8537
25.5773 40.12
25.7605 39.8009
25.9436 40.0959
26.1268 41.09
26.31 39.3404
26.4933 39.9127
26.6767 41.628
26.8601 39.7626
27.0437 38.2466
27.2272 37.8719
27.4109 37.7758
27.5946 37.7139
27.7784 37.3001
27.9623 37.8107
28.1462 38.1455
28.3304 36.5288
28.5145 35.3242
28.6987 34.9714
28.8829 34.835
29.0673 34.1152
29.2517 33.8063
29.4361 33.4732
29.6207 32.5073
29.8053 32.2762
29.99 31.8963
30.1748 32.0112
30.3597 31.6409
30.5447 31.6891
30.7297 31.6798
30.915 31.0232
31.1002 30.4957
31.2855 30.3263
31.4708 30.2373
31.6563 29.7484
31.8418 29.5784
32.0275 29.3509
32.2132 28.824
32.399 28.4132
32.5848 28.0036
32.7708 27.6386
32.9569 27.5077
33.143 27.272
33.3293 26.801
33.5158 26.5842
33.7022 26.1588
33.8887 25.8786
34.0753 25.564
34.262 25.2368
34.4488 24.8101
34.6357 24.4987
34.8227 24.1836
35.0098 23.9912
35.1969 23.8148
35.3842 23.5413
35.5716 23.322
35.759 23.143
35.9468 22.7367
36.1345 22.4936
36.3222 22.2988
36.5101 22.0658
36.6981 21.7271
36.8861 21.4091
37.0743 21.1365
37.2626 20.855
37.451 20.5838
37.6395 20.4724
37.8281 20.1508
38.0168 19.9169
38.2056 19.608
38.3945 19.3677
38.5837 19.0907
38.7728 18.8873
38.9621 18.5788
39.1514 18.3609
39.3409 18.0635
39.5304 17.8803
39.7201 17.7885
39.9099 17.542
40.0999 17.1979
40.2899 17.0807
40.48 16.7652
40.6703 16.6714
40.8607 16.454
41.0512 16.166
41.242 15.9676
41.4327 15.816
41.6236 15.5733
41.8146 15.3579
42.0057 15.1837
42.1969 14.9186
42.3882 14.8294
42.5797 14.5633
42.7713 14.3449
42.963 14.1917
43.1549 13.9565
43.3468 13.7296
43.5389 13.5798
43.7312 13.3855
43.9237 13.2637
44.1162 13.0224
44.3088 12.8465
44.5016 12.6922
44.6945 12.5008
44.8875 12.3132
45.0806 12.1836
45.2739 11.9866
45.4673 11.8347
45.6609 11.6585
45.8546 11.512
46.0484 11.365
46.2424 11.174
46.4365 11.0136
46.631 10.8429
46.8254 10.6686
47.0199 10.5106
47.2146 10.3689
47.4095 10.1785
47.6044 10.0858
47.7996 9.9317
47.9948 9.73382
48.1902 9.62272
48.3858 9.50506
48.5815 9.35411
48.7774 9.21436
48.9734 9.11349
49.1696 8.95031
49.3661 8.79684
49.5626 8.64274
49.7592 8.55028
49.956 8.43618
50.153 8.28402
50.3501 8.13258
50.5474 8.0595
50.7448 7.94274
50.9424 7.81976
51.1402 7.68971
51.3381 7.54725
51.5362 7.415
51.7344 7.32369
51.9328 7.15334
52.1316 7.07581
52.3304 6.90806
52.5293 6.84285
52.7284 6.75485
52.9276 6.60953
53.1271 6.51071
53.3267 6.39926
53.5265 6.26193
53.7264 6.20705
53.9266 6.08124
54.1269 5.9893
54.3274 5.82524
54.528 5.76605
54.7289 5.53269
54.9301 5.38391
55.1314 5.2735
55.3328 5.05941
55.5344 4.88169
55.7361 4.74272

File: Ni3Fe_FD0905.xy
TT I
1.27165 7.1166
1.45013 6.54049
1.62863 5.23105
1.80712 4.92755
1.98562 5.31693
2.16411 4.97533
2.34263 5.34555
2.52115 7.37442
2.69965 8.77123
2.87818 9.35492
3.05672 11.3673
3.23527 15.0697
3.4138 18.9503
3.59237 22.9447
3.77094 25.7937
3.9495 29.4743
4.12809 34.2401
4.30669 146.442
4.4853 57.7893
4.6639 54.6821
4.84253 66.9625
5.02118 85.8581
5.19981 337.126
5.37848 174.124
5.55716 99.812
5.73586 90.8409
5.91455 92.4092
6.09328 4562.56
6.27201 79.5404
6.45075 66.6787
6.62952 61.4418
6.8083 57.5708
6.98711 54.8797
7.16591 54.9266
7.34475 75.9812
7.5236 53.6186
7.70247 55.4474
7.88135 57.113
8.06026 61.0811
8.23919 68.2895
8.41812 82.995
8.59709 1190.13
8.77609 96.1248
8.9551 88.0264
9.13412 80.6313
9.31318 82.3181
9.49226 83.6363
9.67134 94.6268
9.85047 98.542
10.0296 326.391
10.2088 330.238
10.388 102.56
10.5672 541.741
10.7465 84.1262
10.9257 76.7
11.105 70.3351
11.2844 68.2529
11.4637 63.7292
11.6431 62.3425
11.8225 61.1546
12.002 62.8556
12.1814 156.552
12.3609 66.8833
12.5405 63.1766
12.72 67.4109
12.8996 69.8314
13.0792 77.9146
13.2589 242.025
13.4386 113.718
13.6183 257.071
13.7981 91.5648
13.9779 74.4043
14.1577 70.628
14.3376 69.5015
14.5175 67.9167
14.6974 69.2328
14.8774 109.381
15.0574 137.921
15.2374 68.6982
15.4175 65.2878
15.5976 64.8468
15.7778 93.0162
15.958 146.731
16.1382 60.7504
16.3185 57.2257
16.4988 54.4482
16.6792 53.3051
16.8596 54.1257
17.04 54.9997
17.2205 65.7115
17.401 67.5891
17.5815 58.2077
17.7622 60.0446
17.9428 72.0411
18.1237 139.394
18.3044 90.4486
18.4852 73.134
18.666 59.3253
18.8469 57.0004
19.0278 55.8228
19.2088 58.2691
19.3898 75.0757
19.5709 53.1012
19.752 52.1454
19.9332 55.1865
20.1144 69.3859
20.2957 63.9714
20.477 51.9732
20.6586 48.7959
20.84 47.93
21.0215 47.8062
21.203 50.1575
21.3846 47.8402
21.5662 47.8986
21.7479 51.8068
21.9297 64.012
22.1115 55.5793
22.2933 48.6712
22.4753 47.8327
22.6572 48.1567
22.8393 51.1988
23.0214 56.161
23.2037 47.8337
23.3859 48.8134
23.5682 56.8685
23.7505 46.9941
23.9329 44.4604
24.1154 43.2823
24.2979 42.7994
24.4805 42.1619
24.6631 41.9769
24.8458 41.4947
25.0286 42.0691
25.2114 43.8536
25.3943 43.6726
25.5773 40.0425
25.7605 39.6851
25.9436 40.2776
26.1268 41.0007
26.31 39.4494
26.4933 39.9829
26.6767 41.5456
26.8601 39.8396
27.0437 38.2033
27.2272 37.9456
27.4109 37.7632
27.5946 37.6799
27.7784 37.1565
27.9623 37.772
28.1462 38.0886
28.3304 36.5023
28.5145 35.363
28.6987 35.0158
28.8829 34.8502
29.0673 34.0866
29.2517 33.7449
29.4361 33.5577
29.6207 32.4804
29.8053 32.2775
29.99 32.0253
30.1748 31.989
30.3597 31.6015
30.5447 31.6252
30.7297 31.6883
30.915 30.927
31.1002 30.571
31.2855 30.3477
31.4708 30.3501
31.6563 29.778
31.8418 29.7075
32.0275 29.3606
32.2132 28.7981
32.399 28.4287
32.5848 28.0145
32.7708 27.6611
32.9569 27.4921
33.143 27.2922
33.3293 26.8874
33.5158 26.5522
33.7022 26.1281
33.8887 25.8294
34.0753 25.5047
34.262 25.1694
34.4488 24.8526
34.6357 24.583
34.8227 24.2829
35.0098 24.1289
35.1969 23.7484
35.3842 23.6027
35.5716 23.4115
35.759 23.0911
35.9468 22.7365
36.1345 22.5138
36.3222 22.2427
36.5101 22.0225
36.6981 21.7229
36.8861 21.4231
37.0743 21.1458
37.2626 20.9327
37.451 20.5875
37.6395 20.4243
37.8281 20.1143
38.0168 19.8527
38.2056 19.6146
38.3945 19.3019
38.5837 19.1418
38.7728 18.8351
38.9621 18.6476
39.1514 18.3938
39.3409 18.0992
39.5304 17.9236
39.7201 17.7092
39.9099 17.4472
40.0999 17.2668
40.2899 17.0951
40.48 16.8695
40.6703 16.6328
40.8607 16.4745
41.0512 16.2026
41.242 15.9576
41.4327 15.8242
41.6236 15.5388
41.8146 15.3802
42.0057 15.1727
42.1969 14.9318
42.3882 14.7842
42.5797 14.5482
42.7713 14.4011
42.963 14.1543
43.1549 14.0214
43.3468 13.8303
43.5389 13.6455
43.7312 13.4396
43.9237 13.218
44.1162 13.0588
44.3088 12.8651
44.5016 12.6782
44.6945 12.4909
44.8875 12.3646
45.0806 12.1798
45.2739 11.9786
45.4673 11.8447
45.6609 11.6634
45.8546 11.4954
46.0484 11.3442
46.2424 11.1653
46.4365 11.0468
46.631 10.8561
46.8254 10.7094
47.0199 10.5523
47.2146 10.4108
47.4095 10.2073
47.6044 10.0861
47.7996 9.95505
47.9948 9.74803
48.1902 9.65901
48.3858 9.51244
48.5815 9.365
48.7774 9.2711
48.9734 9.08758
49.1696 8.96448
49.3661 8.8576
49.5626 8.66057
49.7592 8.5659
49.956 8.43054
50.153 8.32642
50.3501 8.17952
50.5474 8.04552
50.7448 7.90902
50.9424 7.80176
51.1402 7.65175
51.3381 7.51074
51.5362 7.4003
51.7344 7.30513
51.9328 7.17747
52.1316 7.08986
52.3304 6.95207
52.5293 6.81158
52.7284 6.75741
52.9276 6.62464
53.1271 6.50254
53.3267 6.39336
53.5265 6.30822
53.7264 6.16318
53.9266 6.10229
54.1269 6.00596
54.3274 5.8786
54.528 5.7172
54.7289 5.55186
54.9301 5.37949
55.1314 5.24919
55.3328 5.05663
55.5344 4.87472
55.7361 4.70811