Folder: NiFe_MOF_catalyst_paper/XRD (part 36)

File: Ni3Fe_FD0183.xy
TT I
1.27165 7.60695
1.45013 6.63246
1.62863 6.02025
1.80712 5.16
1.98562 4.88345
2.16411 4.77699
2.34263 4.47256
2.52115 4.84709
2.69965 5.61517
2.87818 8.08003
3.05672 11.153
3.23527 15.0462
3.4138 18.4047
3.59237 22.0127
3.77094 25.1387
3.9495 28.6146
4.12809 33.0947
4.30669 37.7842
4.4853 45.6728
4.6639 53.9998
4.84253 66.5304
5.02118 90.8225
5.19981 519.599
5.37848 408.011
5.55716 107.829
5.73586 95.8892
5.91455 104.901
6.09328 2902.41
6.27201 88.5804
6.45075 66.5017
6.62952 60.3535
6.8083 56.1416
6.98711 53.9915
7.16591 52.9805
7.34475 52.3483
7.5236 55.7837
7.70247 54.2651
7.88135 56.7017
8.06026 61.1492
8.23919 68.1756
8.41812 84.144
8.59709 926.072
8.77609 114.579
8.9551 85.9947
9.13412 81.8238
9.31318 85.7979
9.49226 84.6313
9.67134 89.3659
9.85047 99.5539
10.0296 534.915
10.2088 927.123
10.388 104.916
10.5672 346.881
10.7465 90.7839
10.9257 76.5208
11.105 70.6672
11.2844 66.7413
11.4637 64.127
11.6431 62.8539
11.8225 61.5556
12.002 65.2434
12.1814 122.153
12.3609 74.2278
12.5405 63.5687
12.72 65.7018
12.8996 70.6731
13.0792 79.6842
13.2589 210.54
13.4386 200.016
13.6183 199.926
13.7981 148.628
13.9779 76.8352
14.1577 74.3619
14.3376 69.6301
14.5175 69.0463
14.6974 70.306
14.8774 121.557
15.0574 204.001
15.2374 69.4554
15.4175 66.7247
15.5976 66.2271
15.7778 107.918
15.958 187.598
16.1382 62.0538
16.3185 57.916
16.4988 55.5939
16.6792 54.644
16.8596 54.8768
17.04 55.8668
17.2205 66.0665
17.401 81.9328
17.5815 59.5242
17.7622 61.821
17.9428 83.7901
18.1237 119.123
18.3044 89.3717
18.4852 94.5368
18.666 61.6096
18.8469 58.6043
19.0278 57.2173
19.2088 62.1747
19.3898 70.3123
19.5709 56.4097
19.752 53.7753
19.9332 58.6117
20.1144 68.4007
20.2957 61.8346
20.477 58.9923
20.6586 50.3768
20.84 49.4103
21.0215 49.3039
21.203 50.3011
21.3846 51.0204
21.5662 49.458
21.7479 54.3999
21.9297 63.3099
22.1115 56.9439
22.2933 52.7535
22.4753 49.2959
22.6572 49.6152
22.8393 52.8071
23.0214 58.1636
23.2037 50.265
23.3859 52.1566
23.5682 54.6281
23.7505 53.4632
23.9329 46.1173
24.1154 44.7028
24.2979 44.1195
24.4805 43.5364
24.6631 43.5988
24.8458 42.819
25.0286 43.4605
25.2114 45.1017
25.3943 45.5978
25.5773 42.1404
25.7605 41.1433
25.9436 41.3767
26.1268 42.2725
26.31 41.2113
26.4933 41.4009
26.6767 42.6177
26.8601 41.7934
27.0437 39.9833
27.2272 39.3823
27.4109 39.0384
27.5946 39.1325
27.7784 38.8694
27.9623 38.9212
28.1462 39.8555
28.3304 38.4781
28.5145 36.6718
28.6987 36.3563
28.8829 35.9396
29.0673 35.5286
29.2517 34.9504
29.4361 34.6701
29.6207 33.8493
29.8053 33.4697
29.99 33.1857
30.1748 32.8653
30.3597 32.9974
30.5447 32.8345
30.7297 32.5745
30.915 32.4157
31.1002 31.8048
31.2855 31.4701
31.4708 31.3589
31.6563 31.1174
31.8418 30.702
32.0275 30.6058
32.2132 29.9881
32.399 29.4741
32.5848 28.988
32.7708 28.6948
32.9569 28.562
33.143 28.2446
33.3293 27.9561
33.5158 27.5867
33.7022 27.1479
33.8887 26.7557
34.0753 26.6108
34.262 26.0529
34.4488 25.7752
34.6357 25.4575
34.8227 25.1748
35.0098 24.985
35.1969 24.6821
35.3842 24.3773
35.5716 24.212
35.759 23.969
35.9468 23.5644
36.1345 23.3131
36.3222 23.0871
36.5101 22.7853
36.6981 22.5272
36.8861 22.2306
37.0743 21.9596
37.2626 21.6082
37.451 21.3586
37.6395 21.3179
37.8281 20.9039
38.0168 20.6196
38.2056 20.2533
38.3945 20.0881
38.5837 19.867
38.7728 19.5417
38.9621 19.1865
39.1514 19.0102
39.3409 18.8148
39.5304 18.5435
39.7201 18.3744
39.9099 18.1366
40.0999 17.8576
40.2899 17.6659
40.48 17.4422
40.6703 17.2128
40.8607 17.0304
41.0512 16.7725
41.242 16.5717
41.4327 16.3513
41.6236 16.1616
41.8146 15.9362
42.0057 15.7102
42.1969 15.4978
42.3882 15.317
42.5797 15.0978
42.7713 14.8188
42.963 14.6637
43.1549 14.479
43.3468 14.2513
43.5389 14.1111
43.7312 13.8658
43.9237 13.6713
44.1162 13.4813
44.3088 13.3318
44.5016 13.1228
44.6945 12.9434
44.8875 12.7451
45.0806 12.5915
45.2739 12.4378
45.4673 12.2573
45.6609 12.0645
45.8546 11.9249
46.0484 11.7177
46.2424 11.5812
46.4365 11.3961
46.631 11.1944
46.8254 11.0296
47.0199 10.8948
47.2146 10.7051
47.4095 10.5617
47.6044 10.3971
47.7996 10.2442
47.9948 10.1062
48.1902 9.96047
48.3858 9.82514
48.5815 9.69208
48.7774 9.57025
48.9734 9.3994
49.1696 9.26564
49.3661 9.11843
49.5626 8.93158
49.7592 8.85413
49.956 8.74666
50.153 8.59032
50.3501 8.44024
50.5474 8.30816
50.7448 8.20692
50.9424 8.06737
51.1402 7.97696
51.3381 7.79417
51.5362 7.70504
51.7344 7.54502
51.9328 7.40525
52.1316 7.31878
52.3304 7.22313
52.5293 7.05347
52.7284 6.93858
52.9276 6.87744
53.1271 6.75266
53.3267 6.62696
53.5265 6.50648
53.7264 6.40027
53.9266 6.29159
54.1269 6.17094
54.3274 6.02914
54.528 5.85881
54.7289 5.69553
54.9301 5.59465
55.1314 5.37256
55.3328 5.11601
55.5344 4.97412
55.7361 4.84862

File: Ni3Fe_FD0184.xy
TT I
1.27165 8.11029
1.45013 6.76461
1.62863 5.69153
1.80712 4.96074
1.98562 5.33297
2.16411 4.21192
2.34263 4.94233
2.52115 4.33997
2.69965 6.51718
2.87818 7.92878
3.05672 11.5454
3.23527 15.2528
3.4138 18.7375
3.59237 21.917
3.77094 25.0073
3.9495 28.7662
4.12809 32.602
4.30669 38.2326
4.4853 45.3605
4.6639 54.1955
4.84253 66.6929
5.02118 90.5191
5.19981 513.704
5.37848 415.078
5.55716 107.562
5.73586 95.5476
5.91455 104.612
6.09328 2901.0
6.27201 88.5802
6.45075 66.8478
6.62952 60.5894
6.8083 56.2263
6.98711 53.7762
7.16591 52.8183
7.34475 52.5749
7.5236 55.9729
7.70247 54.4551
7.88135 56.5442
8.06026 61.1387
8.23919 68.3064
8.41812 83.8141
8.59709 926.411
8.77609 114.5
8.9551 85.7096
9.13412 81.9897
9.31318 85.9963
9.49226 84.1708
9.67134 89.4567
9.85047 99.4461
10.0296 532.387
10.2088 938.791
10.388 104.966
10.5672 347.087
10.7465 90.4651
10.9257 76.2163
11.105 70.6527
11.2844 66.5063
11.4637 63.8933
11.6431 62.5839
11.8225 61.7749
12.002 65.2153
12.1814 121.917
12.3609 74.4068
12.5405 63.8602
12.72 65.9202
12.8996 70.4071
13.0792 79.6492
13.2589 210.968
13.4386 202.362
13.6183 200.669
13.7981 149.335
13.9779 76.6747
14.1577 74.1092
14.3376 69.3709
14.5175 68.7573
14.6974 70.2731
14.8774 121.91
15.0574 205.595
15.2374 69.566
15.4175 66.543
15.5976 66.1575
15.7778 107.597
15.958 188.101
16.1382 62.1529
16.3185 57.8501
16.4988 55.6916
16.6792 54.5395
16.8596 54.7537
17.04 55.8455
17.2205 66.1547
17.401 82.0491
17.5815 59.5111
17.7622 61.9141
17.9428 83.7383
18.1237 119.337
18.3044 89.4574
18.4852 94.9394
18.666 61.5147
18.8469 58.7327
19.0278 57.328
19.2088 62.1094
19.3898 70.5278
19.5709 56.5228
19.752 53.9592
19.9332 58.6813
20.1144 68.2722
20.2957 61.9987
20.477 59.0352
20.6586 50.2936
20.84 49.6015
21.0215 49.5555
21.203 50.317
21.3846 50.9065
21.5662 49.6353
21.7479 54.6883
21.9297 63.43
22.1115 56.8184
22.2933 52.784
22.4753 49.3199
22.6572 49.7699
22.8393 52.7351
23.0214 58.3206
23.2037 50.286
23.3859 52.2773
23.5682 54.7978
23.7505 53.5491
23.9329 46.0901
24.1154 44.8177
24.2979 44.078
24.4805 43.3926
24.6631 43.6629
24.8458 42.8995
25.0286 43.4492
25.2114 45.316
25.3943 45.4924
25.5773 42.2086
25.7605 41.2496
25.9436 41.384
26.1268 42.1693
26.31 41.3022
26.4933 41.5633
26.6767 42.6975
26.8601 41.7827
27.0437 39.8576
27.2272 39.3396
27.4109 39.1597
27.5946 39.243
27.7784 38.9484
27.9623 39.0261
28.1462 40.0291
28.3304 38.4894
28.5145 36.6151
28.6987 36.3721
28.8829 35.9199
29.0673 35.4901
29.2517 34.9143
29.4361 34.8029
29.6207 33.8014
29.8053 33.4288
29.99 33.2306
30.1748 32.9351
30.3597 33.0691
30.5447 32.7658
30.7297 32.7226
30.915 32.4863
31.1002 31.8871
31.2855 31.467
31.4708 31.3762
31.6563 31.2416
31.8418 30.7725
32.0275 30.5907
32.2132 30.1086
32.399 29.5241
32.5848 29.0668
32.7708 28.6727
32.9569 28.6484
33.143 28.2189
33.3293 28.0111
33.5158 27.6377
33.7022 27.1904
33.8887 26.783
34.0753 26.5664
34.262 26.1188
34.4488 25.7782
34.6357 25.5059
34.8227 25.1924
35.0098 24.9943
35.1969 24.6695
35.3842 24.458
35.5716 24.2858
35.759 23.9755
35.9468 23.5589
36.1345 23.3421
36.3222 23.0885
36.5101 22.8795
36.6981 22.5039
36.8861 22.2959
37.0743 21.8896
37.2626 21.6136
37.451 21.3612
37.6395 21.1916
37.8281 20.9192
38.0168 20.6135
38.2056 20.3178
38.3945 20.037
38.5837 19.8295
38.7728 19.5945
38.9621 19.3584
39.1514 18.9858
39.3409 18.8285
39.5304 18.5807
39.7201 18.4028
39.9099 18.1727
40.0999 17.9494
40.2899 17.681
40.48 17.4814
40.6703 17.2182
40.8607 17.0805
41.0512 16.8236
41.242 16.5831
41.4327 16.4449
41.6236 16.1179
41.8146 15.9439
42.0057 15.7642
42.1969 15.4905
42.3882 15.2954
42.5797 15.1088
42.7713 14.8891
42.963 14.6844
43.1549 14.5301
43.3468 14.2728
43.5389 14.0766
43.7312 13.9003
43.9237 13.7553
44.1162 13.5295
44.3088 13.3141
44.5016 13.1295
44.6945 12.9619
44.8875 12.7787
45.0806 12.6016
45.2739 12.4775
45.4673 12.2683
45.6609 12.0816
45.8546 11.9146
46.0484 11.7023
46.2424 11.5661
46.4365 11.419
46.631 11.228
46.8254 11.091
47.0199 10.9409
47.2146 10.7581
47.4095 10.5885
47.6044 10.397
47.7996 10.3138
47.9948 10.1424
48.1902 9.98476
48.3858 9.82265
48.5815 9.69891
48.7774 9.57114
48.9734 9.45172
49.1696 9.26024
49.3661 9.14061
49.5626 8.96102
49.7592 8.8622
49.956 8.74664
50.153 8.61377
50.3501 8.4618
50.5474 8.30703
50.7448 8.24097
50.9424 8.09275
51.1402 7.96966
51.3381 7.80904
51.5362 7.7095
51.7344 7.5796
51.9328 7.42211
52.1316 7.29222
52.3304 7.21338
52.5293 7.06919
52.7284 6.99562
52.9276 6.83137
53.1271 6.78775
53.3267 6.6254
53.5265 6.47623
53.7264 6.39024
53.9266 6.29962
54.1269 6.14509
54.3274 6.00376
54.528 5.83362
54.7289 5.68077
54.9301 5.52363
55.1314 5.36758
55.3328 5.1438
55.5344 4.94108
55.7361 4.80766

File: Ni3Fe_FD0185.xy
TT I
1.27165 7.50735
1.45013 6.73666
1.62863 5.49379
1.80712 5.44809
1.98562 4.93813
2.16411 4.68699
2.34263 4.54523
2.52115 4.84536
2.69965 6.06448
2.87818 8.10436
3.05672 11.3432
3.23527 15.1901
3.4138 18.9107
3.59237 21.9173
3.77094 25.4148
3.9495 28.9641
4.12809 33.3251
4.30669 37.7359
4.4853 45.1763
4.6639 54.4066
4.84253 66.6004
5.02118 91.0511
5.19981 519.041
5.37848 411.231
5.55716 107.885
5.73586 95.8983
5.91455 104.625
6.09328 2909.86
6.27201 88.4235
6.45075 66.8394
6.62952 60.4406
6.8083 56.3533
6.98711 54.1978
7.16591 53.0064
7.34475 52.7198
7.5236 55.9879
7.70247 54.6389
7.88135 56.4296
8.06026 61.3631
8.23919 68.3141
8.41812 84.2042
8.59709 929.208
8.77609 114.618
8.9551 86.1479
9.13412 82.1357
9.31318 86.3039
9.49226 84.1231
9.67134 89.4419
9.85047 99.6523
10.0296 533.631
10.2088 929.881
10.388 104.993
10.5672 348.314
10.7465 90.5618
10.9257 76.3604
11.105 70.8911
11.2844 66.9047
11.4637 64.1946
11.6431 62.8315
11.8225 61.6063
12.002 65.3556
12.1814 122.248
12.3609 74.1307
12.5405 63.8285
12.72 65.9216
12.8996 70.3359
13.0792 79.6122
13.2589 211.04
13.4386 200.852
13.6183 200.55
13.7981 147.86
13.9779 76.6083
14.1577 74.145
14.3376 69.6667
14.5175 69.0021
14.6974 70.3315
14.8774 122.222
15.0574 204.379
15.2374 69.5996
15.4175 66.6888
15.5976 66.2608
15.7778 107.551
15.958 187.879
16.1382 62.3634
16.3185 57.9041
16.4988 55.6868
16.6792 54.4806
16.8596 54.6518
17.04 55.8381
17.2205 66.2452
17.401 81.8327
17.5815 59.5662
17.7622 62.094
17.9428 83.8753
18.1237 119.711
18.3044 89.6231
18.4852 94.4235
18.666 61.5139
18.8469 58.6605
19.0278 57.2947
19.2088 62.2576
19.3898 70.485
19.5709 56.5395
19.752 54.0139
19.9332 58.7499
20.1144 68.1509
20.2957 61.9834
20.477 58.9991
20.6586 50.3437
20.84 49.5111
21.0215 49.2985
21.203 50.301
21.3846 50.971
21.5662 49.5525
21.7479 54.5731
21.9297 63.3402
22.1115 56.974
22.2933 52.7249
22.4753 49.4665
22.6572 49.5338
22.8393 52.756
23.0214 58.3061
23.2037 50.4765
23.3859 52.2098
23.5682 54.7278
23.7505 53.4275
23.9329 46.2315
24.1154 44.8399
24.2979 44.1084
24.4805 43.5327
24.6631 43.5552
24.8458 42.9135
25.0286 43.5692
25.2114 45.3375
25.3943 45.3222
25.5773 42.2367
25.7605 41.1549
25.9436 41.434
26.1268 42.2309
26.31 41.4184
26.4933 41.4586
26.6767 42.7422
26.8601 41.7382
27.0437 39.9407
27.2272 39.3835
27.4109 39.0666
27.5946 39.1923
27.7784 38.8696
27.9623 39.0421
28.1462 39.943
28.3304 38.5261
28.5145 36.7415
28.6987 36.3751
28.8829 35.9827
29.0673 35.6746
29.2517 34.9589
29.4361 34.7743
29.6207 33.9466
29.8053 33.4617
29.99 33.1457
30.1748 33.0331
30.3597 33.051
30.5447 32.9254
30.7297 32.8116
30.915 32.4832
31.1002 31.9685
31.2855 31.5
31.4708 31.3354
31.6563 31.2479
31.8418 30.8213
32.0275 30.5682
32.2132 30.0583
32.399 29.4296
32.5848 29.0768
32.7708 28.7868
32.9569 28.5521
33.143 28.3626
33.3293 27.9797
33.5158 27.6266
33.7022 27.0826
33.8887 26.8735
34.0753 26.5866
34.262 26.0795
34.4488 25.8555
34.6357 25.4469
34.8227 25.2213
35.0098 25.0139
35.1969 24.6576
35.3842 24.4084
35.5716 24.2604
35.759 23.9464
35.9468 23.58
36.1345 23.3196
36.3222 23.1319
36.5101 22.9044
36.6981 22.6221
36.8861 22.2419
37.0743 21.9523
37.2626 21.6747
37.451 21.3951
37.6395 21.2365
37.8281 20.9011
38.0168 20.6827
38.2056 20.2362
38.3945 20.0884
38.5837 19.8624
38.7728 19.5581
38.9621 19.3017
39.1514 19.0985
39.3409 18.835
39.5304 18.6537
39.7201 18.4499
39.9099 18.1432
40.0999 17.8827
40.2899 17.6682
40.48 17.4686
40.6703 17.2748
40.8607 17.0646
41.0512 16.7678
41.242 16.5974
41.4327 16.309
41.6236 16.1314
41.8146 15.9679
42.0057 15.7513
42.1969 15.4913
42.3882 15.3464
42.5797 15.0904
42.7713 14.9201
42.963 14.6713
43.1549 14.4838
43.3468 14.2837
43.5389 14.0656
43.7312 13.9085
43.9237 13.705
44.1162 13.5248
44.3088 13.3298
44.5016 13.1362
44.6945 12.9702
44.8875 12.8158
45.0806 12.5983
45.2739 12.4316
45.4673 12.2707
45.6609 12.1006
45.8546 11.883
46.0484 11.7701
46.2424 11.5619
46.4365 11.4113
46.631 11.2279
46.8254 11.0503
47.0199 10.8675
47.2146 10.7725
47.4095 10.5736
47.6044 10.4364
47.7996 10.2687
47.9948 10.1124
48.1902 9.97623
48.3858 9.8341
48.5815 9.6651
48.7774 9.58825
48.9734 9.40616
49.1696 9.2876
49.3661 9.1219
49.5626 8.97236
49.7592 8.86649
49.956 8.73871
50.153 8.61947
50.3501 8.43253
50.5474 8.34299
50.7448 8.2449
50.9424 8.1007
51.1402 7.95374
51.3381 7.81731
51.5362 7.72232
51.7344 7.56092
51.9328 7.4164
52.1316 7.30465
52.3304 7.20828
52.5293 7.07529
52.7284 6.96033
52.9276 6.85598
53.1271 6.75968
53.3267 6.62255
53.5265 6.51003
53.7264 6.38946
53.9266 6.28472
54.1269 6.18792
54.3274 6.03406
54.528 5.85332
54.7289 5.67923
54.9301 5.53578
55.1314 5.44025
55.3328 5.15375
55.5344 4.93278
55.7361 4.84526

File: Ni3Fe_FD0186.xy
TT I
1.27165 8.01171
1.45013 6.60345
1.62863 6.1361
1.80712 4.66835
1.98562 4.57401
2.16411 4.68422
2.34263 4.0283
2.52115 4.27024
2.69965 5.85733
2.87818 8.27352
3.05672 10.6721
3.23527 14.9375
3.4138 18.9642
3.59237 22.0169
3.77094 25.4974
3.9495 29.0948
4.12809 33.285
4.30669 37.606
4.4853 45.16
4.6639 53.9939
4.84253 67.0488
5.02118 90.932
5.19981 520.292
5.37848 407.996
5.55716 108.386
5.73586 95.9292
5.91455 104.895
6.09328 2915.01
6.27201 88.8023
6.45075 66.8957
6.62952 60.2466
6.8083 56.0694
6.98711 54.2459
7.16591 53.3396
7.34475 52.3433
7.5236 56.2039
7.70247 54.5942
7.88135 56.9255
8.06026 61.2644
8.23919 68.7319
8.41812 83.9484
8.59709 930.901
8.77609 114.67
8.9551 86.0277
9.13412 81.9416
9.31318 86.2115
9.49226 84.3253
9.67134 89.5632
9.85047 99.9157
10.0296 535.894
10.2088 921.952
10.388 105.142
10.5672 349.701
10.7465 90.6848
10.9257 76.5957
11.105 70.6282
11.2844 66.8531
11.4637 64.1656
11.6431 62.9595
11.8225 61.9043
12.002 65.2838
12.1814 122.781
12.3609 73.8721
12.5405 63.7521
12.72 65.8429
12.8996 70.5271
13.0792 79.8998
13.2589 211.566
13.4386 200.465
13.6183 201.047
13.7981 147.097
13.9779 76.7802
14.1577 74.3717
14.3376 69.3756
14.5175 69.0335
14.6974 70.613
14.8774 121.973
15.0574 204.135
15.2374 69.5479
15.4175 66.7535
15.5976 66.1957
15.7778 107.892
15.958 187.478
16.1382 62.1724
16.3185 57.9691
16.4988 55.6493
16.6792 54.6569
16.8596 54.7156
17.04 55.7907
17.2205 66.2265
17.401 81.7954
17.5815 59.6276
17.7622 61.9008
17.9428 84.2106
18.1237 119.583
18.3044 89.1662
18.4852 94.3842
18.666 61.6434
18.8469 58.7832
19.0278 57.4663
19.2088 62.1796
19.3898 70.554
19.5709 56.6146
19.752 53.939
19.9332 58.5257
20.1144 68.3177
20.2957 62.1161
20.477 59.0262
20.6586 50.1945
20.84 49.4255
21.0215 49.409
21.203 50.2829
21.3846 51.0251
21.5662 49.4952
21.7479 54.6796
21.9297 63.369
22.1115 56.8461
22.2933 52.8117
22.4753 49.4365
22.6572 49.6914
22.8393 52.6904
23.0214 58.2467
23.2037 50.2639
23.3859 52.316
23.5682 54.6946
23.7505 53.2252
23.9329 46.1411
24.1154 44.8974
24.2979 44.2147
24.4805 43.4475
24.6631 43.6813
24.8458 43.0102
25.0286 43.5741
25.2114 45.2755
25.3943 45.5553
25.5773 42.0835
25.7605 41.2169
25.9436 41.6029
26.1268 42.2537
26.31 41.3025
26.4933 41.4625
26.6767 42.5399
26.8601 41.6688
27.0437 39.9899
27.2272 39.3012
27.4109 39.142
27.5946 39.0935
27.7784 38.9989
27.9623 38.9583
28.1462 39.8778
28.3304 38.3602
28.5145 36.7148
28.6987 36.3827
28.8829 36.0424
29.0673 35.5473
29.2517 34.986
29.4361 34.6016
29.6207 34.0032
29.8053 33.4662
29.99 33.1687
30.1748 32.9598
30.3597 33.007
30.5447 32.8137
30.7297 32.7414
30.915 32.5259
31.1002 31.8479
31.2855 31.5449
31.4708 31.3779
31.6563 31.1585
31.8418 30.7433
32.0275 30.5666
32.2132 30.0696
32.399 29.5321
32.5848 29.0849
32.7708 28.8249
32.9569 28.5104
33.143 28.2522
33.3293 27.9856
33.5158 27.6848
33.7022 27.1117
33.8887 26.8037
34.0753 26.533
34.262 26.1746
34.4488 25.7721
34.6357 25.506
34.8227 25.1748
35.0098 24.9447
35.1969 24.7616
35.3842 24.4086
35.5716 24.303
35.759 24.0154
35.9468 23.5769
36.1345 23.3524
36.3222 23.0974
36.5101 22.9159
36.6981 22.5604
36.8861 22.2803
37.0743 21.9201
37.2626 21.6859
37.451 21.3696
37.6395 21.2392
37.8281 20.8738
38.0168 20.7074
38.2056 20.3002
38.3945 20.0372
38.5837 19.7987
38.7728 19.564
38.9621 19.3313
39.1514 19.0887
39.3409 18.8092
39.5304 18.6332
39.7201 18.4033
39.9099 18.1471
40.0999 17.9853
40.2899 17.6712
40.48 17.4836
40.6703 17.2469
40.8607 17.1119
41.0512 16.8387
41.242 16.5839
41.4327 16.3746
41.6236 16.1159
41.8146 15.9425
42.0057 15.6937
42.1969 15.5048
42.3882 15.3175
42.5797 15.0864
42.7713 14.9139
42.963 14.698
43.1549 14.5215
43.3468 14.2929
43.5389 14.0748
43.7312 13.9071
43.9237 13.7152
44.1162 13.4848
44.3088 13.3606
44.5016 13.1121
44.6945 13.0017
44.8875 12.8012
45.0806 12.5752
45.2739 12.449
45.4673 12.2759
45.6609 12.0601
45.8546 11.8929
46.0484 11.7663
46.2424 11.5758
46.4365 11.4144
46.631 11.2205
46.8254 11.0496
47.0199 10.8896
47.2146 10.7317
47.4095 10.5732
47.6044 10.3906
47.7996 10.2421
47.9948 10.1186
48.1902 9.98956
48.3858 9.8514
48.5815 9.70214
48.7774 9.55969
48.9734 9.44532
49.1696 9.25728
49.3661 9.1275
49.5626 8.99107
49.7592 8.82989
49.956 8.74893
50.153 8.61057
50.3501 8.43085
50.5474 8.32806
50.7448 8.17558
50.9424 8.07743
51.1402 7.96208
51.3381 7.83172
51.5362 7.7079
51.7344 7.53458
51.9328 7.44202
52.1316 7.31689
52.3304 7.185
52.5293 7.09394
52.7284 6.98599
52.9276 6.83597
53.1271 6.78196
53.3267 6.61516
53.5265 6.50317
53.7264 6.45987
53.9266 6.32355
54.1269 6.18022
54.3274 6.01995
54.528 5.89585
54.7289 5.73982
54.9301 5.51575
55.1314 5.34556
55.3328 5.07578
55.5344 4.95957
55.7361 4.84364

File: Ni3Fe_FD0187.xy
TT I
1.27165 7.5594
1.45013 7.21608
1.62863 5.83283
1.80712 4.60664
1.98562 5.0105
2.16411 4.39335
2.34263 4.67659
2.52115 5.09508
2.69965 5.26613
2.87818 7.90078
3.05672 11.1583
3.23527 14.7174
3.4138 18.9023
3.59237 21.8393
3.77094 25.164
3.9495 28.974
4.12809 33.2873
4.30669 38.2769
4.4853 45.2712
4.6639 54.3664
4.84253 66.7083
5.02118 91.3159
5.19981 515.046
5.37848 409.513
5.55716 107.794
5.73586 95.7117
5.91455 104.887
6.09328 2913.9
6.27201 88.7156
6.45075 66.9772
6.62952 60.3217
6.8083 56.3169
6.98711 53.805
7.16591 52.8828
7.34475 52.392
7.5236 55.9727
7.70247 54.3262
7.88135 56.64
8.06026 61.2421
8.23919 68.6458
8.41812 83.9966
8.59709 931.116
8.77609 114.527
8.9551 85.8751
9.13412 81.9009
9.31318 86.0933
9.49226 84.2282
9.67134 89.4096
9.85047 99.6225
10.0296 534.828
10.2088 928.224
10.388 105.052
10.5672 349.53
10.7465 90.6269
10.9257 76.6036
11.105 71.0401
11.2844 67.1667
11.4637 64.1005
11.6431 63.0607
11.8225 61.7446
12.002 65.1411
12.1814 122.744
12.3609 74.143
12.5405 63.8759
12.72 66.0276
12.8996 70.5692
13.0792 79.5705
13.2589 211.685
13.4386 200.986
13.6183 201.268
13.7981 148.266
13.9779 76.6767
14.1577 74.1952
14.3376 69.8227
14.5175 68.938
14.6974 70.408
14.8774 122.12
15.0574 204.785
15.2374 69.792
15.4175 66.8495
15.5976 66.0661
15.7778 107.978
15.958 187.496
16.1382 62.2907
16.3185 57.806
16.4988 55.6273
16.6792 54.4913
16.8596 54.6075
17.04 55.8677
17.2205 66.2524
17.401 81.7138
17.5815 59.7268
17.7622 62.0969
17.9428 83.7573
18.1237 119.994
18.3044 89.6646
18.4852 94.6111
18.666 61.3873
18.8469 58.6976
19.0278 57.1661
19.2088 62.2935
19.3898 70.6925
19.5709 56.7196
19.752 53.8081
19.9332 58.9082
20.1144 68.5894
20.2957 62.1892
20.477 59.2037
20.6586 50.3721
20.84 49.6002
21.0215 49.5576
21.203 50.4391
21.3846 51.0042
21.5662 49.5167
21.7479 54.8581
21.9297 63.5713
22.1115 57.0637
22.2933 52.7291
22.4753 49.4366
22.6572 49.6325
22.8393 52.8425
23.0214 58.3787
23.2037 50.2517
23.3859 52.2819
23.5682 54.9521
23.7505 53.5686
23.9329 46.3297
24.1154 44.9144
24.2979 44.1919
24.4805 43.5369
24.6631 43.6771
24.8458 42.9777
25.0286 43.6342
25.2114 45.3393
25.3943 45.4447
25.5773 42.1814
25.7605 41.1058
25.9436 41.4968
26.1268 42.1019
26.31 41.3698
26.4933 41.5028
26.6767 42.6913
26.8601 41.7277
27.0437 39.9757
27.2272 39.5569
27.4109 38.9559
27.5946 39.164
27.7784 39.0058
27.9623 39.0572
28.1462 40.0788
28.3304 38.5405
28.5145 36.6608
28.6987 36.4016
28.8829 35.8837
29.0673 35.7162
29.2517 35.0093
29.4361 34.67
29.6207 34.0024
29.8053 33.4889
29.99 33.1169
30.1748 32.9662
30.3597 33.1026
30.5447 32.8314
30.7297 32.8179
30.915 32.528
31.1002 31.79
31.2855 31.4791
31.4708 31.3085
31.6563 31.264
31.8418 30.8124
32.0275 30.6479
32.2132 30.1789
32.399 29.5584
32.5848 29.119
32.7708 28.7373
32.9569 28.6126
33.143 28.2726
33.3293 28.0815
33.5158 27.693
33.7022 27.0669
33.8887 26.8799
34.0753 26.6285
34.262 26.1726
34.4488 25.8745
34.6357 25.4637
34.8227 25.2264
35.0098 25.0362
35.1969 24.7195
35.3842 24.4895
35.5716 24.3458
35.759 24.0379
35.9468 23.5013
36.1345 23.3574
36.3222 23.2201
36.5101 22.9304
36.6981 22.5545
36.8861 22.2342
37.0743 21.9449
37.2626 21.6687
37.451 21.4126
37.6395 21.2443
37.8281 20.8938
38.0168 20.5977
38.2056 20.4021
38.3945 20.0876
38.5837 19.8352
38.7728 19.5746
38.9621 19.3642
39.1514 19.0301
39.3409 18.7583
39.5304 18.5798
39.7201 18.4536
39.9099 18.2283
40.0999 17.9457
40.2899 17.7741
40.48 17.4876
40.6703 17.2787
40.8607 17.1118
41.0512 16.826
41.242 16.6257
41.4327 16.3682
41.6236 16.1494
41.8146 15.9676
42.0057 15.7539
42.1969 15.4876
42.3882 15.327
42.5797 15.1161
42.7713 14.8537
42.963 14.7185
43.1549 14.5097
43.3468 14.3149
43.5389 14.0878
43.7312 13.9138
43.9237 13.7087
44.1162 13.5262
44.3088 13.3225
44.5016 13.1232
44.6945 12.9783
44.8875 12.8076
45.0806 12.6073
45.2739 12.4821
45.4673 12.2641
45.6609 12.0553
45.8546 11.9193
46.0484 11.7714
46.2424 11.5784
46.4365 11.4423
46.631 11.2305
46.8254 11.072
47.0199 10.9207
47.2146 10.7367
47.4095 10.5988
47.6044 10.4527
47.7996 10.3039
47.9948 10.1394
48.1902 9.98692
48.3858 9.81394
48.5815 9.75266
48.7774 9.57917
48.9734 9.44605
49.1696 9.26675
49.3661 9.13234
49.5626 8.96908
49.7592 8.84217
49.956 8.75503
50.153 8.63635
50.3501 8.45191
50.5474 8.3685
50.7448 8.22279
50.9424 8.06419
51.1402 7.98725
51.3381 7.7914
51.5362 7.71422
51.7344 7.5956
51.9328 7.41881
52.1316 7.31684
52.3304 7.23996
52.5293 7.07945
52.7284 7.00929
52.9276 6.86226
53.1271 6.80519
53.3267 6.60077
53.5265 6.52197
53.7264 6.41369
53.9266 6.29651
54.1269 6.19018
54.3274 6.03653
54.528 5.8505
54.7289 5.73235
54.9301 5.54353
55.1314 5.39277
55.3328 5.16833
55.5344 5.00703
55.7361 4.82794