Folder: NiFe_MOF_catalyst_paper/XRD (part 47)

File: Ni3Fe_FD0240.xy
TT I
1.27165 7.79643
1.45013 6.38303
1.62863 5.95781
1.80712 5.18664
1.98562 4.67856
2.16411 4.69891
2.34263 4.46961
2.52115 4.68509
2.69965 6.21537
2.87818 8.46227
3.05672 10.8629
3.23527 15.0363
3.4138 19.3254
3.59237 22.1569
3.77094 25.8619
3.9495 30.0319
4.12809 34.9994
4.30669 40.718
4.4853 48.2366
4.6639 58.0637
4.84253 71.6306
5.02118 96.0786
5.19981 885.879
5.37848 270.236
5.55716 111.527
5.73586 100.264
5.91455 109.682
6.09328 3664.64
6.27201 88.545
6.45075 70.7651
6.62952 64.1704
6.8083 59.8592
6.98711 57.4713
7.16591 56.5707
7.34475 55.6375
7.5236 56.2094
7.70247 58.2061
7.88135 60.1147
8.06026 65.4706
8.23919 73.1067
8.41812 90.1925
8.59709 1077.51
8.77609 110.211
8.9551 90.9289
9.13412 86.7758
9.31318 88.0733
9.49226 89.3508
9.67134 95.2855
9.85047 106.436
10.0296 513.299
10.2088 538.402
10.388 115.18
10.5672 451.228
10.7465 91.8982
10.9257 80.6585
11.105 74.8267
11.2844 70.6014
11.4637 67.7187
11.6431 66.1867
11.8225 65.2557
12.002 68.9179
12.1814 141.38
12.3609 69.9218
12.5405 67.4083
12.72 69.5037
12.8996 74.896
13.0792 86.6626
13.2589 231.039
13.4386 149.65
13.6183 228.417
13.7981 110.671
13.9779 79.6544
14.1577 75.3177
14.3376 73.1586
14.5175 72.353
14.6974 74.7826
14.8774 120.18
15.0574 170.269
15.2374 72.0979
15.4175 69.7029
15.5976 69.7878
15.7778 103.771
15.958 173.792
16.1382 63.8953
16.3185 60.1911
16.4988 57.7843
16.6792 56.9834
16.8596 57.2707
17.04 59.1552
17.2205 69.0573
17.401 76.9482
17.5815 62.1428
17.7622 64.4315
17.9428 82.6155
18.1237 139.288
18.3044 90.4939
18.4852 83.4803
18.666 63.23
18.8469 60.7907
19.0278 59.5485
19.2088 62.9556
19.3898 76.4008
19.5709 57.0354
19.752 56.0021
19.9332 59.3859
20.1144 72.6377
20.2957 64.53
20.477 56.4024
20.6586 51.7937
20.84 51.0459
21.0215 51.2833
21.203 52.6023
21.3846 51.657
21.5662 51.7988
21.7479 55.3812
21.9297 66.8939
22.1115 57.6979
22.2933 52.4463
22.4753 50.8044
22.6572 51.7951
22.8393 54.2826
23.0214 59.9011
23.2037 51.4135
23.3859 52.49
23.5682 57.6911
23.7505 51.0622
23.9329 47.3675
24.1154 46.1459
24.2979 45.4934
24.4805 44.9308
24.6631 44.7575
24.8458 44.2158
25.0286 44.9929
25.2114 46.5887
25.3943 46.7075
25.5773 42.7872
25.7605 42.3747
25.9436 42.5086
26.1268 43.5393
26.31 42.1763
26.4933 42.6445
26.6767 43.8597
26.8601 42.2226
27.0437 40.8075
27.2272 40.3037
27.4109 40.1527
27.5946 40.148
27.7784 39.7259
27.9623 40.0006
28.1462 40.5586
28.3304 39.0006
28.5145 37.5626
28.6987 37.1091
28.8829 36.877
29.0673 36.3324
29.2517 35.8186
29.4361 35.5852
29.6207 34.5099
29.8053 34.4955
29.99 34.0951
30.1748 33.7552
30.3597 33.7299
30.5447 33.6467
30.7297 33.6006
30.915 33.0438
31.1002 32.5621
31.2855 32.3031
31.4708 32.1597
31.6563 31.6856
31.8418 31.4389
32.0275 31.1932
32.2132 30.7062
32.399 30.2263
32.5848 29.7646
32.7708 29.415
32.9569 29.3449
33.143 28.9611
33.3293 28.5666
33.5158 28.2684
33.7022 27.7592
33.8887 27.4607
34.0753 27.1051
34.262 26.8164
34.4488 26.4482
34.6357 26.0435
34.8227 25.7998
35.0098 25.5483
35.1969 25.1883
35.3842 25.0434
35.5716 24.8423
35.759 24.3835
35.9468 24.1479
36.1345 23.9096
36.3222 23.7233
36.5101 23.4113
36.6981 23.0456
36.8861 22.8337
37.0743 22.4796
37.2626 22.1531
37.451 21.9246
37.6395 21.8025
37.8281 21.3595
38.0168 21.0439
38.2056 20.8703
38.3945 20.5844
38.5837 20.3038
38.7728 20.0582
38.9621 19.8155
39.1514 19.5537
39.3409 19.295
39.5304 19.0923
39.7201 18.7827
39.9099 18.6172
40.0999 18.4079
40.2899 18.084
40.48 17.8651
40.6703 17.6229
40.8607 17.4938
41.0512 17.2621
41.242 16.9648
41.4327 16.7736
41.6236 16.5473
41.8146 16.3029
42.0057 16.0978
42.1969 15.885
42.3882 15.6721
42.5797 15.4291
42.7713 15.2628
42.963 15.0047
43.1549 14.8516
43.3468 14.6221
43.5389 14.4653
43.7312 14.2398
43.9237 14.018
44.1162 13.8169
44.3088 13.691
44.5016 13.4315
44.6945 13.266
44.8875 13.0803
45.0806 12.8698
45.2739 12.7054
45.4673 12.5588
45.6609 12.3153
45.8546 12.1737
46.0484 12.0347
46.2424 11.7878
46.4365 11.6769
46.631 11.5581
46.8254 11.2894
47.0199 11.1404
47.2146 10.9827
47.4095 10.8016
47.6044 10.6604
47.7996 10.5273
47.9948 10.3581
48.1902 10.1909
48.3858 10.0616
48.5815 9.90763
48.7774 9.80269
48.9734 9.634
49.1696 9.48328
49.3661 9.34902
49.5626 9.17022
49.7592 9.03707
49.956 8.89336
50.153 8.78426
50.3501 8.64701
50.5474 8.51699
50.7448 8.40901
50.9424 8.26868
51.1402 8.13197
51.3381 7.96711
51.5362 7.88976
51.7344 7.71454
51.9328 7.58849
52.1316 7.45802
52.3304 7.34505
52.5293 7.21528
52.7284 7.08189
52.9276 6.97638
53.1271 6.86144
53.3267 6.75903
53.5265 6.6623
53.7264 6.53377
53.9266 6.39665
54.1269 6.24645
54.3274 6.2036
54.528 6.02045
54.7289 5.83385
54.9301 5.66555
55.1314 5.49355
55.3328 5.2794
55.5344 5.11346
55.7361 5.01162

File: Ni3Fe_FD0241.xy
TT I
1.27165 7.64287
1.45013 6.7891
1.62863 5.68087
1.80712 5.44526
1.98562 4.68546
2.16411 4.11399
2.34263 4.59135
2.52115 4.94716
2.69965 6.54027
2.87818 8.34434
3.05672 11.0686
3.23527 14.8732
3.4138 18.7842
3.59237 22.4675
3.77094 26.1603
3.9495 29.967
4.12809 34.7292
4.30669 40.847
4.4853 48.1879
4.6639 57.638
4.84253 71.8195
5.02118 96.3668
5.19981 891.202
5.37848 271.21
5.55716 111.666
5.73586 100.288
5.91455 110.224
6.09328 3685.54
6.27201 88.4579
6.45075 71.3083
6.62952 64.198
6.8083 60.0147
6.98711 57.2804
7.16591 56.7283
7.34475 55.7386
7.5236 55.8858
7.70247 58.1855
7.88135 60.1519
8.06026 65.2883
8.23919 73.0052
8.41812 90.3874
8.59709 1076.64
8.77609 110.197
8.9551 90.6852
9.13412 86.6659
9.31318 88.2691
9.49226 89.3549
9.67134 95.3877
9.85047 106.433
10.0296 512.018
10.2088 537.666
10.388 115.06
10.5672 447.467
10.7465 92.1549
10.9257 80.7437
11.105 74.7126
11.2844 70.3708
11.4637 67.7119
11.6431 66.4172
11.8225 65.2061
12.002 68.7067
12.1814 141.217
12.3609 69.7893
12.5405 67.1861
12.72 69.5742
12.8996 74.7144
13.0792 86.3746
13.2589 231.125
13.4386 148.945
13.6183 228.221
13.7981 110.25
13.9779 79.5771
14.1577 75.0074
14.3376 72.6793
14.5175 72.0689
14.6974 74.5826
14.8774 120.215
15.0574 169.448
15.2374 72.193
15.4175 69.7794
15.5976 69.7642
15.7778 103.168
15.958 174.123
16.1382 63.8024
16.3185 59.943
16.4988 57.7795
16.6792 56.8854
16.8596 57.3211
17.04 59.2276
17.2205 68.7184
17.401 77.0591
17.5815 62.2692
17.7622 64.4349
17.9428 82.5824
18.1237 139.312
18.3044 90.2132
18.4852 83.1509
18.666 63.2292
18.8469 60.6794
19.0278 59.6025
19.2088 62.9559
19.3898 76.5113
19.5709 56.8791
19.752 55.9971
19.9332 59.478
20.1144 72.6008
20.2957 64.5418
20.477 56.5958
20.6586 52.0141
20.84 50.9808
21.0215 51.251
21.203 52.5168
21.3846 51.4757
21.5662 51.8249
21.7479 55.446
21.9297 67.0285
22.1115 57.7375
22.2933 52.4599
22.4753 50.8627
22.6572 51.79
22.8393 54.1955
23.0214 59.8405
23.2037 51.4888
23.3859 52.5774
23.5682 57.8766
23.7505 51.1049
23.9329 47.274
24.1154 46.1157
24.2979 45.4601
24.4805 44.8679
24.6631 44.756
24.8458 44.2561
25.0286 44.9346
25.2114 46.4984
25.3943 46.4936
25.5773 42.8925
25.7605 42.3245
25.9436 42.5648
26.1268 43.5657
26.31 42.0715
26.4933 42.4783
26.6767 43.8896
26.8601 42.2903
27.0437 40.6965
27.2272 40.2945
27.4109 40.083
27.5946 40.2228
27.7784 39.7626
27.9623 39.9885
28.1462 40.5555
28.3304 38.8476
28.5145 37.6237
28.6987 37.1743
28.8829 36.865
29.0673 36.3505
29.2517 35.8115
29.4361 35.6105
29.6207 34.6298
29.8053 34.3357
29.99 34.0392
30.1748 33.8626
30.3597 33.7889
30.5447 33.6493
30.7297 33.6536
30.915 32.9881
31.1002 32.5312
31.2855 32.2576
31.4708 32.1008
31.6563 31.748
31.8418 31.506
32.0275 31.2605
32.2132 30.6326
32.399 30.263
32.5848 29.7442
32.7708 29.426
32.9569 29.3401
33.143 29.0412
33.3293 28.6808
33.5158 28.3193
33.7022 27.7177
33.8887 27.478
34.0753 27.1749
34.262 26.7646
34.4488 26.4117
34.6357 26.1306
34.8227 25.7891
35.0098 25.5185
35.1969 25.2628
35.3842 24.9821
35.5716 24.7845
35.759 24.4664
35.9468 24.1037
36.1345 23.8919
36.3222 23.6516
36.5101 23.3966
36.6981 23.0662
36.8861 22.8105
37.0743 22.4354
37.2626 22.175
37.451 21.9061
37.6395 21.7294
37.8281 21.3587
38.0168 21.1144
38.2056 20.8417
38.3945 20.5129
38.5837 20.303
38.7728 20.0321
38.9621 19.8297
39.1514 19.5823
39.3409 19.2995
39.5304 19.052
39.7201 18.8278
39.9099 18.6176
40.0999 18.3343
40.2899 18.0841
40.48 17.818
40.6703 17.6448
40.8607 17.4282
41.0512 17.2129
41.242 16.9192
41.4327 16.7807
41.6236 16.5236
41.8146 16.2757
42.0057 16.0507
42.1969 15.8611
42.3882 15.7106
42.5797 15.4861
42.7713 15.2787
42.963 15.0686
43.1549 14.7833
43.3468 14.5964
43.5389 14.4548
43.7312 14.1798
43.9237 14.0279
44.1162 13.8171
44.3088 13.6176
44.5016 13.3866
44.6945 13.2623
44.8875 13.0524
45.0806 12.8739
45.2739 12.7143
45.4673 12.5193
45.6609 12.3361
45.8546 12.1988
46.0484 11.9537
46.2424 11.8595
46.4365 11.6425
46.631 11.4787
46.8254 11.318
47.0199 11.1829
47.2146 10.963
47.4095 10.826
47.6044 10.6495
47.7996 10.5166
47.9948 10.334
48.1902 10.204
48.3858 10.0493
48.5815 9.93335
48.7774 9.74345
48.9734 9.62466
49.1696 9.48528
49.3661 9.33416
49.5626 9.13436
49.7592 9.03852
49.956 8.91785
50.153 8.76516
50.3501 8.65892
50.5474 8.50071
50.7448 8.368
50.9424 8.24814
51.1402 8.11585
51.3381 8.00305
51.5362 7.85671
51.7344 7.7359
51.9328 7.60724
52.1316 7.43741
52.3304 7.3458
52.5293 7.23731
52.7284 7.08861
52.9276 6.98849
53.1271 6.9122
53.3267 6.76483
53.5265 6.65139
53.7264 6.55962
53.9266 6.42535
54.1269 6.31607
54.3274 6.20572
54.528 5.96557
54.7289 5.81799
54.9301 5.71613
55.1314 5.58392
55.3328 5.31863
55.5344 5.10402
55.7361 4.97893

File: Ni3Fe_FD0242.xy
TT I
1.27165 7.78963
1.45013 6.23248
1.62863 5.33155
1.80712 5.23262
1.98562 5.32383
2.16411 4.65366
2.34263 4.57491
2.52115 4.78084
2.69965 6.42691
2.87818 8.02311
3.05672 10.9768
3.23527 15.1588
3.4138 18.5421
3.59237 22.2326
3.77094 25.7375
3.9495 29.8682
4.12809 34.7818
4.30669 40.6004
4.4853 48.4151
4.6639 58.0486
4.84253 71.7484
5.02118 96.5026
5.19981 888.181
5.37848 268.519
5.55716 111.87
5.73586 100.656
5.91455 109.516
6.09328 3697.4
6.27201 88.5328
6.45075 71.0123
6.62952 64.0597
6.8083 59.959
6.98711 57.181
7.16591 56.2889
7.34475 55.7411
7.5236 55.9066
7.70247 58.1222
7.88135 60.3049
8.06026 65.1904
8.23919 72.8272
8.41812 90.035
8.59709 1076.91
8.77609 110.251
8.9551 90.3162
9.13412 86.2943
9.31318 87.9463
9.49226 89.2625
9.67134 95.3344
9.85047 106.615
10.0296 512.046
10.2088 531.908
10.388 115.2
10.5672 446.385
10.7465 92.2375
10.9257 80.6196
11.105 74.2204
11.2844 70.7158
11.4637 67.7709
11.6431 66.1679
11.8225 65.0747
12.002 68.4008
12.1814 141.117
12.3609 69.9181
12.5405 67.2666
12.72 69.8009
12.8996 74.6458
13.0792 86.4424
13.2589 231.087
13.4386 149.346
13.6183 228.026
13.7981 109.76
13.9779 79.6417
14.1577 75.2
14.3376 72.901
14.5175 72.3366
14.6974 74.326
14.8774 119.963
15.0574 169.97
15.2374 72.2119
15.4175 69.7705
15.5976 69.7347
15.7778 103.871
15.958 173.749
16.1382 63.8515
16.3185 60.1451
16.4988 57.9771
16.6792 57.0839
16.8596 57.2696
17.04 59.2877
17.2205 68.9506
17.401 76.974
17.5815 62.1624
17.7622 64.3193
17.9428 82.5713
18.1237 139.516
18.3044 90.2649
18.4852 83.3073
18.666 63.2153
18.8469 60.903
19.0278 59.4612
19.2088 62.7397
19.3898 76.9004
19.5709 56.8679
19.752 55.9922
19.9332 59.3189
20.1144 72.5902
20.2957 64.7394
20.477 56.4221
20.6586 51.8989
20.84 51.1617
21.0215 51.1127
21.203 52.6018
21.3846 51.4591
21.5662 51.6559
21.7479 55.5388
21.9297 66.8845
22.1115 57.8751
22.2933 52.3083
22.4753 50.8131
22.6572 51.8756
22.8393 54.0611
23.0214 59.8958
23.2037 51.2217
23.3859 52.713
23.5682 57.7133
23.7505 50.9791
23.9329 47.2839
24.1154 46.0553
24.2979 45.3618
24.4805 44.7685
24.6631 44.8519
24.8458 44.3114
25.0286 44.9629
25.2114 46.5539
25.3943 46.7017
25.5773 42.8564
25.7605 42.3194
25.9436 42.5604
26.1268 43.4504
26.31 42.1141
26.4933 42.5506
26.6767 44.0045
26.8601 42.2799
27.0437 40.5665
27.2272 40.266
27.4109 40.1505
27.5946 40.1066
27.7784 39.6592
27.9623 39.9808
28.1462 40.3955
28.3304 38.9579
28.5145 37.6218
28.6987 37.1625
28.8829 36.9427
29.0673 36.393
29.2517 35.809
29.4361 35.6219
29.6207 34.6154
29.8053 34.3134
29.99 34.0701
30.1748 33.9171
30.3597 33.7282
30.5447 33.6169
30.7297 33.5671
30.915 32.9766
31.1002 32.5255
31.2855 32.2927
31.4708 32.0575
31.6563 31.7539
31.8418 31.4571
32.0275 31.2881
32.2132 30.7561
32.399 30.1636
32.5848 29.7677
32.7708 29.4578
32.9569 29.2172
33.143 29.0053
33.3293 28.5836
33.5158 28.257
33.7022 27.8457
33.8887 27.4949
34.0753 27.1124
34.262 26.7046
34.4488 26.4804
34.6357 26.1565
34.8227 25.8567
35.0098 25.5816
35.1969 25.3353
35.3842 24.9751
35.5716 24.7897
35.759 24.5055
35.9468 24.2236
36.1345 23.9034
36.3222 23.6612
36.5101 23.3994
36.6981 23.079
36.8861 22.7495
37.0743 22.4151
37.2626 22.1721
37.451 21.9298
37.6395 21.6979
37.8281 21.4513
38.0168 21.1503
38.2056 20.8296
38.3945 20.5253
38.5837 20.2634
38.7728 19.9943
38.9621 19.8121
39.1514 19.5426
39.3409 19.3167
39.5304 19.0319
39.7201 18.8646
39.9099 18.5769
40.0999 18.3461
40.2899 18.139
40.48 17.8814
40.6703 17.6613
40.8607 17.4334
41.0512 17.2795
41.242 16.9517
41.4327 16.7938
41.6236 16.5545
41.8146 16.3198
42.0057 16.1026
42.1969 15.8811
42.3882 15.6646
42.5797 15.4634
42.7713 15.2665
42.963 15.0985
43.1549 14.8413
43.3468 14.5754
43.5389 14.44
43.7312 14.249
43.9237 14.0436
44.1162 13.8411
44.3088 13.6467
44.5016 13.4672
44.6945 13.2781
44.8875 13.0779
45.0806 12.8664
45.2739 12.6767
45.4673 12.5329
45.6609 12.3429
45.8546 12.1695
46.0484 12.0223
46.2424 11.8289
46.4365 11.697
46.631 11.4665
46.8254 11.2745
47.0199 11.1525
47.2146 10.9875
47.4095 10.8037
47.6044 10.6391
47.7996 10.4867
47.9948 10.3709
48.1902 10.229
48.3858 10.0575
48.5815 9.88852
48.7774 9.79976
48.9734 9.59563
49.1696 9.48129
49.3661 9.32103
49.5626 9.16226
49.7592 9.0977
49.956 8.93105
50.153 8.7942
50.3501 8.63437
50.5474 8.47103
50.7448 8.37121
50.9424 8.22959
51.1402 8.11694
51.3381 7.98317
51.5362 7.85583
51.7344 7.77016
51.9328 7.55218
52.1316 7.46144
52.3304 7.35342
52.5293 7.22772
52.7284 7.10563
52.9276 6.98691
53.1271 6.9016
53.3267 6.7656
53.5265 6.67239
53.7264 6.52173
53.9266 6.42327
54.1269 6.29536
54.3274 6.18213
54.528 5.99816
54.7289 5.8699
54.9301 5.65639
55.1314 5.52871
55.3328 5.28581
55.5344 5.10422
55.7361 4.98868

File: Ni3Fe_FD0243.xy
TT I
1.27165 7.96348
1.45013 6.16628
1.62863 5.69958
1.80712 5.62819
1.98562 4.83344
2.16411 4.60244
2.34263 4.17439
2.52115 5.26432
2.69965 6.65408
2.87818 8.47396
3.05672 10.1902
3.23527 14.7996
3.4138 18.6581
3.59237 22.3363
3.77094 25.5904
3.9495 30.1756
4.12809 34.8891
4.30669 40.9003
4.4853 48.2205
4.6639 57.9898
4.84253 71.3984
5.02118 96.0085
5.19981 887.213
5.37848 268.087
5.55716 112.153
5.73586 100.162
5.91455 109.192
6.09328 3709.79
6.27201 88.3429
6.45075 70.8235
6.62952 63.9591
6.8083 60.2261
6.98711 57.2258
7.16591 56.7102
7.34475 55.678
7.5236 55.998
7.70247 58.001
7.88135 60.428
8.06026 65.3819
8.23919 73.052
8.41812 90.2807
8.59709 1077.69
8.77609 109.799
8.9551 90.7244
9.13412 86.51
9.31318 87.8965
9.49226 89.3423
9.67134 95.519
9.85047 106.453
10.0296 511.042
10.2088 529.392
10.388 115.09
10.5672 448.126
10.7465 91.8864
10.9257 80.669
11.105 74.7367
11.2844 70.4058
11.4637 67.6042
11.6431 66.3186
11.8225 65.3677
12.002 68.382
12.1814 141.13
12.3609 69.591
12.5405 67.3915
12.72 69.8068
12.8996 74.5116
13.0792 86.6859
13.2589 231.068
13.4386 148.388
13.6183 228.162
13.7981 109.24
13.9779 79.4989
14.1577 75.0488
14.3376 73.1691
14.5175 72.2633
14.6974 74.5389
14.8774 120.195
15.0574 168.747
15.2374 72.0977
15.4175 69.8647
15.5976 69.7229
15.7778 103.845
15.958 172.589
16.1382 63.588
16.3185 60.1442
16.4988 57.8216
16.6792 56.7648
16.8596 57.3122
17.04 59.2386
17.2205 68.7172
17.401 77.0841
17.5815 62.1933
17.7622 64.3985
17.9428 82.3202
18.1237 139.628
18.3044 90.3115
18.4852 82.9684
18.666 63.0373
18.8469 60.7583
19.0278 59.3926
19.2088 62.9232
19.3898 76.6386
19.5709 56.7486
19.752 55.9962
19.9332 59.4011
20.1144 72.6582
20.2957 64.4207
20.477 56.5577
20.6586 52.1731
20.84 51.1293
21.0215 51.1834
21.203 52.4472
21.3846 51.5466
21.5662 51.7255
21.7479 55.4463
21.9297 66.8966
22.1115 57.6761
22.2933 52.3157
22.4753 50.8868
22.6572 51.9242
22.8393 54.2395
23.0214 60.1689
23.2037 51.4054
23.3859 52.5117
23.5682 57.7462
23.7505 51.1213
23.9329 47.3241
24.1154 46.0686
24.2979 45.4274
24.4805 44.8451
24.6631 44.7392
24.8458 44.2579
25.0286 44.9573
25.2114 46.4784
25.3943 46.7427
25.5773 42.7947
25.7605 42.337
25.9436 42.5735
26.1268 43.4709
26.31 42.1862
26.4933 42.458
26.6767 43.924
26.8601 42.2759
27.0437 40.6913
27.2272 40.3261
27.4109 40.1094
27.5946 40.1538
27.7784 39.7717
27.9623 39.8616
28.1462 40.4627
28.3304 38.8136
28.5145 37.5553
28.6987 37.184
28.8829 36.8246
29.0673 36.2862
29.2517 35.9291
29.4361 35.6172
29.6207 34.634
29.8053 34.3652
29.99 33.9761
30.1748 33.8359
30.3597 33.6979
30.5447 33.5159
30.7297 33.6657
30.915 32.9711
31.1002 32.5483
31.2855 32.1455
31.4708 32.2132
31.6563 31.7605
31.8418 31.4201
32.0275 31.2682
32.2132 30.6778
32.399 30.1612
32.5848 29.7605
32.7708 29.3363
32.9569 29.2298
33.143 28.9707
33.3293 28.6201
33.5158 28.2282
33.7022 27.6826
33.8887 27.4952
34.0753 27.1748
34.262 26.7831
34.4488 26.4503
34.6357 26.1155
34.8227 25.9027
35.0098 25.586
35.1969 25.254
35.3842 25.0264
35.5716 24.8391
35.759 24.4408
35.9468 23.9946
36.1345 23.9143
36.3222 23.6267
36.5101 23.3653
36.6981 23.1254
36.8861 22.7005
37.0743 22.4431
37.2626 22.1818
37.451 21.8871
37.6395 21.7769
37.8281 21.3624
38.0168 21.0548
38.2056 20.8557
38.3945 20.583
38.5837 20.2608
38.7728 20.0573
38.9621 19.7537
39.1514 19.5545
39.3409 19.2575
39.5304 19.0988
39.7201 18.7965
39.9099 18.6217
40.0999 18.3638
40.2899 18.1424
40.48 17.8179
40.6703 17.6585
40.8607 17.4613
41.0512 17.2198
41.242 16.9746
41.4327 16.7633
41.6236 16.4982
41.8146 16.3482
42.0057 16.1068
42.1969 15.8174
42.3882 15.6969
42.5797 15.4733
42.7713 15.2477
42.963 15.0182
43.1549 14.8242
43.3468 14.5742
43.5389 14.4209
43.7312 14.2291
43.9237 14.0609
44.1162 13.7986
44.3088 13.645
44.5016 13.4341
44.6945 13.2904
44.8875 13.1066
45.0806 12.883
45.2739 12.7312
45.4673 12.5687
45.6609 12.3103
45.8546 12.1807
46.0484 12.0069
46.2424 11.8138
46.4365 11.6779
46.631 11.5029
46.8254 11.2916
47.0199 11.131
47.2146 11.0385
47.4095 10.8028
47.6044 10.6621
47.7996 10.4826
47.9948 10.3478
48.1902 10.1862
48.3858 10.0818
48.5815 9.90582
48.7774 9.75787
48.9734 9.63054
49.1696 9.4757
49.3661 9.31752
49.5626 9.16453
49.7592 9.05464
49.956 8.95038
50.153 8.80147
50.3501 8.63094
50.5474 8.5156
50.7448 8.38432
50.9424 8.2612
51.1402 8.14038
51.3381 7.96889
51.5362 7.85484
51.7344 7.73153
51.9328 7.56336
52.1316 7.46375
52.3304 7.36129
52.5293 7.21552
52.7284 7.14607
52.9276 7.00394
53.1271 6.87952
53.3267 6.75715
53.5265 6.63949
53.7264 6.5034
53.9266 6.40341
54.1269 6.30529
54.3274 6.16438
54.528 6.00056
54.7289 5.84049
54.9301 5.69731
55.1314 5.53693
55.3328 5.32814
55.5344 5.14077
55.7361 4.99933

File: Ni3Fe_FD0244.xy
TT I
1.27165 8.07095
1.45013 6.97345
1.62863 5.40287
1.80712 4.67221
1.98562 4.873
2.16411 4.93124
2.34263 4.89129
2.52115 5.41252
2.69965 6.62646
2.87818 7.64233
3.05672 11.1053
3.23527 15.0253
3.4138 18.8619
3.59237 22.6908
3.77094 26.183
3.9495 30.148
4.12809 34.6567
4.30669 40.0413
4.4853 49.4614
4.6639 58.4102
4.84253 71.7063
5.02118 96.0579
5.19981 890.597
5.37848 267.861
5.55716 111.927
5.73586 100.769
5.91455 109.759
6.09328 3719.2
6.27201 88.4093
6.45075 70.8561
6.62952 63.8726
6.8083 59.8356
6.98711 57.4988
7.16591 56.8635
7.34475 55.8097
7.5236 56.1085
7.70247 58.2473
7.88135 60.1223
8.06026 65.6714
8.23919 72.8591
8.41812 90.0531
8.59709 1081.95
8.77609 110.482
8.9551 90.725
9.13412 86.7249
9.31318 87.9695
9.49226 89.6091
9.67134 95.141
9.85047 106.359
10.0296 511.779
10.2088 528.783
10.388 115.743
10.5672 449.465
10.7465 92.0412
10.9257 80.895
11.105 74.5112
11.2844 70.7687
11.4637 67.514
11.6431 66.5544
11.8225 65.5042
12.002 69.0252
12.1814 141.125
12.3609 69.6345
12.5405 67.3884
12.72 69.7353
12.8996 75.03
13.0792 86.5087
13.2589 231.5
13.4386 148.341
13.6183 228.649
13.7981 109.285
13.9779 79.8473
14.1577 74.9965
14.3376 73.0708
14.5175 72.3689
14.6974 74.4342
14.8774 120.302
15.0574 168.317
15.2374 72.2017
15.4175 69.946
15.5976 69.8333
15.7778 104.132
15.958 171.885
16.1382 63.8542
16.3185 60.0718
16.4988 57.9433
16.6792 56.9189
16.8596 57.2167
17.04 59.348
17.2205 68.996
17.401 76.9839
17.5815 62.0272
17.7622 64.4846
17.9428 82.3719
18.1237 139.349
18.3044 90.3999
18.4852 82.763
18.666 63.1931
18.8469 60.8572
19.0278 59.4085
19.2088 62.8805
19.3898 76.5954
19.5709 56.9935
19.752 55.8973
19.9332 59.4417
20.1144 72.8065
20.2957 64.541
20.477 56.396
20.6586 51.9689
20.84 51.0565
21.0215 50.9489
21.203 52.4412
21.3846 51.5968
21.5662 51.7337
21.7479 55.5638
21.9297 66.811
22.1115 57.7134
22.2933 52.3486
22.4753 50.8535
22.6572 51.799
22.8393 54.1518
23.0214 59.8906
23.2037 51.4571
23.3859 52.5723
23.5682 57.6034
23.7505 51.1171
23.9329 47.2494
24.1154 46.1612
24.2979 45.4311
24.4805 44.8964
24.6631 44.7041
24.8458 44.3051
25.0286 44.9146
25.2114 46.6565
25.3943 46.5614
25.5773 42.9323
25.7605 42.4077
25.9436 42.7238
26.1268 43.5724
26.31 41.9685
26.4933 42.4924
26.6767 43.8349
26.8601 42.2658
27.0437 40.7429
27.2272 40.3629
27.4109 40.1489
27.5946 40.2085
27.7784 39.5529
27.9623 39.983
28.1462 40.5356
28.3304 38.9232
28.5145 37.6482
28.6987 37.1637
28.8829 36.8953
29.0673 36.3179
29.2517 35.8469
29.4361 35.5786
29.6207 34.728
29.8053 34.2808
29.99 33.973
30.1748 33.887
30.3597 33.7468
30.5447 33.4611
30.7297 33.6453
30.915 33.0511
31.1002 32.4741
31.2855 32.2928
31.4708 32.1056
31.6563 31.8047
31.8418 31.3838
32.0275 31.188
32.2132 30.7063
32.399 30.2473
32.5848 29.8036
32.7708 29.413
32.9569 29.2521
33.143 29.0507
33.3293 28.5825
33.5158 28.2352
33.7022 27.8013
33.8887 27.487
34.0753 27.1291
34.262 26.7937
34.4488 26.3775
34.6357 26.0163
34.8227 25.7446
35.0098 25.516
35.1969 25.1527
35.3842 25.0112
35.5716 24.9089
35.759 24.513
35.9468 24.1402
36.1345 23.8713
36.3222 23.6401
36.5101 23.3106
36.6981 23.0419
36.8861 22.6661
37.0743 22.4239
37.2626 22.0876
37.451 21.924
37.6395 21.7483
37.8281 21.3934
38.0168 21.0792
38.2056 20.8076
38.3945 20.5203
38.5837 20.2569
38.7728 20.0368
38.9621 19.7554
39.1514 19.4652
39.3409 19.2489
39.5304 19.0137
39.7201 18.8085
39.9099 18.589
40.0999 18.3322
40.2899 18.1118
40.48 17.8665
40.6703 17.6179
40.8607 17.4793
41.0512 17.1966
41.242 16.9518
41.4327 16.7704
41.6236 16.5526
41.8146 16.3324
42.0057 16.024
42.1969 15.829
42.3882 15.6586
42.5797 15.4782
42.7713 15.2087
42.963 15.0395
43.1549 14.8212
43.3468 14.6467
43.5389 14.4818
43.7312 14.2179
43.9237 14.0183
44.1162 13.8085
44.3088 13.6219
44.5016 13.4154
44.6945 13.2026
44.8875 13.1178
45.0806 12.9092
45.2739 12.7282
45.4673 12.5411
45.6609 12.3409
45.8546 12.2092
46.0484 12.0394
46.2424 11.844
46.4365 11.6733
46.631 11.478
46.8254 11.2767
47.0199 11.1428
47.2146 11.0002
47.4095 10.8099
47.6044 10.6897
47.7996 10.5017
47.9948 10.3504
48.1902 10.2093
48.3858 10.0581
48.5815 9.96281
48.7774 9.74136
48.9734 9.61957
49.1696 9.46928
49.3661 9.33173
49.5626 9.15588
49.7592 9.0152
49.956 8.91182
50.153 8.81876
50.3501 8.60378
50.5474 8.49849
50.7448 8.38943
50.9424 8.27534
51.1402 8.13339
51.3381 7.97254
51.5362 7.87602
51.7344 7.68427
51.9328 7.5983
52.1316 7.45165
52.3304 7.31162
52.5293 7.19682
52.7284 7.10172
52.9276 7.00504
53.1271 6.90019
53.3267 6.74296
53.5265 6.64198
53.7264 6.52035
53.9266 6.38744
54.1269 6.3136
54.3274 6.1493
54.528 5.99883
54.7289 5.82221
54.9301 5.68531
55.1314 5.52533
55.3328 5.307
55.5344 5.10256
55.7361 4.92759