Folder: NiFe_MOF_catalyst_paper/XRD (part 66)

File: Ni3Fe_FD0344.xy
TT I
1.27165 7.64448
1.45013 6.4221
1.62863 5.6655
1.80712 5.42986
1.98562 5.21052
2.16411 4.81793
2.34263 4.95086
2.52115 6.01455
2.69965 7.42421
2.87818 8.44025
3.05672 11.3144
3.23527 15.0626
3.4138 19.5996
3.59237 23.7803
3.77094 26.4107
3.9495 30.476
4.12809 34.9593
4.30669 140.35
4.4853 59.2799
4.6639 57.2596
4.84253 69.4196
5.02118 92.1872
5.19981 597.187
5.37848 226.328
5.55716 106.674
5.73586 97.2212
5.91455 102.088
6.09328 4043.01
6.27201 86.1779
6.45075 69.5272
6.62952 64.0531
6.8083 59.7957
6.98711 56.9307
7.16591 56.7726
7.34475 76.7674
7.5236 55.6374
7.70247 57.7263
7.88135 59.3102
8.06026 64.4118
8.23919 71.5079
8.41812 88.7389
8.59709 1176.75
8.77609 104.8
8.9551 92.0295
9.13412 84.5045
9.31318 86.0241
9.49226 87.3483
9.67134 98.285
9.85047 104.011
10.0296 439.11
10.2088 471.697
10.388 109.866
10.5672 486.646
10.7465 90.0734
10.9257 80.2485
11.105 73.9408
11.2844 71.3486
11.4637 66.787
11.6431 65.6386
11.8225 64.3518
12.002 66.3685
12.1814 149.93
12.3609 70.7391
12.5405 66.7132
12.72 70.6331
12.8996 73.6162
13.0792 82.859
13.2589 247.311
13.4386 132.785
13.6183 244.901
13.7981 102.247
13.9779 78.4293
14.1577 74.3543
14.3376 72.8415
14.5175 71.0615
14.6974 73.1516
14.8774 119.912
15.0574 154.549
15.2374 72.4627
15.4175 68.5652
15.5976 68.3335
15.7778 103.184
15.958 163.13
16.1382 63.8628
16.3185 59.9894
16.4988 57.0696
16.6792 56.2957
16.8596 56.9
17.04 58.0166
17.2205 69.2057
17.401 73.7898
17.5815 61.118
17.7622 63.3172
17.9428 79.0268
18.1237 139.79
18.3044 91.4882
18.4852 80.0052
18.666 62.2668
18.8469 59.9528
19.0278 58.7083
19.2088 62.0513
19.3898 76.8729
19.5709 55.9945
19.752 55.1197
19.9332 58.7289
20.1144 71.1984
20.2957 64.3843
20.477 55.2267
20.6586 51.1366
20.84 50.1547
21.0215 50.1357
21.203 51.9943
21.3846 50.7225
21.5662 50.5131
21.7479 54.7974
21.9297 66.2153
22.1115 57.12
22.2933 51.422
22.4753 50.2665
22.6572 50.6067
22.8393 53.838
23.0214 58.9266
23.2037 50.2753
23.3859 51.6291
23.5682 57.644
23.7505 49.8625
23.9329 46.6149
24.1154 45.5446
24.2979 44.8055
24.4805 44.2424
24.6631 44.1952
24.8458 43.5338
25.0286 44.2169
25.2114 45.8058
25.3943 45.9445
25.5773 42.1748
25.7605 41.7343
25.9436 42.0633
26.1268 42.9802
26.31 41.4528
26.4933 41.9069
26.6767 43.3616
26.8601 41.5668
27.0437 40.0541
27.2272 39.6942
27.4109 39.4973
27.5946 39.4702
27.7784 38.9889
27.9623 39.4948
28.1462 39.9377
28.3304 38.1487
28.5145 36.9245
28.6987 36.5373
28.8829 36.328
29.0673 35.6457
29.2517 35.2725
29.4361 35.1201
29.6207 34.1228
29.8053 33.9904
29.99 33.5141
30.1748 33.4838
30.3597 33.1126
30.5447 33.0141
30.7297 33.1587
30.915 32.4996
31.1002 31.999
31.2855 31.7756
31.4708 31.7315
31.6563 31.1825
31.8418 31.0076
32.0275 30.6884
32.2132 30.2105
32.399 29.836
32.5848 29.2754
32.7708 28.9437
32.9569 28.788
33.143 28.6105
33.3293 28.1883
33.5158 27.7755
33.7022 27.3824
33.8887 27.105
34.0753 26.7062
34.262 26.3325
34.4488 26.0819
34.6357 25.6467
34.8227 25.4455
35.0098 25.1922
35.1969 24.9208
35.3842 24.6452
35.5716 24.4941
35.759 24.1293
35.9468 23.7406
36.1345 23.5543
36.3222 23.2657
36.5101 23.0675
36.6981 22.7557
36.8861 22.4672
37.0743 22.0938
37.2626 21.865
37.451 21.4966
37.6395 21.4533
37.8281 21.0604
38.0168 20.7907
38.2056 20.4771
38.3945 20.1801
38.5837 20.0133
38.7728 19.7077
38.9621 19.4104
39.1514 19.2374
39.3409 19.0156
39.5304 18.7836
39.7201 18.5723
39.9099 18.3767
40.0999 18.1264
40.2899 17.8477
40.48 17.5742
40.6703 17.4023
40.8607 17.1845
41.0512 16.976
41.242 16.7096
41.4327 16.5172
41.6236 16.2359
41.8146 16.0482
42.0057 15.8577
42.1969 15.6515
42.3882 15.433
42.5797 15.2415
42.7713 15.0289
42.963 14.7989
43.1549 14.6044
43.3468 14.3986
43.5389 14.2556
43.7312 14.0418
43.9237 13.8349
44.1162 13.654
44.3088 13.4823
44.5016 13.2917
44.6945 13.0589
44.8875 12.8634
45.0806 12.7059
45.2739 12.5197
45.4673 12.3706
45.6609 12.1193
45.8546 12.0047
46.0484 11.8317
46.2424 11.6491
46.4365 11.5267
46.631 11.3097
46.8254 11.1537
47.0199 11.013
47.2146 10.8057
47.4095 10.654
47.6044 10.4976
47.7996 10.3769
47.9948 10.2081
48.1902 10.0373
48.3858 9.91731
48.5815 9.761
48.7774 9.66071
48.9734 9.49207
49.1696 9.34573
49.3661 9.19369
49.5626 9.03672
49.7592 8.95588
49.956 8.81594
50.153 8.68848
50.3501 8.54281
50.5474 8.42448
50.7448 8.29394
50.9424 8.15752
51.1402 7.99288
51.3381 7.85017
51.5362 7.75152
51.7344 7.62312
51.9328 7.50173
52.1316 7.36743
52.3304 7.25641
52.5293 7.14216
52.7284 7.00816
52.9276 6.93872
53.1271 6.79576
53.3267 6.69867
53.5265 6.58025
53.7264 6.42816
53.9266 6.321
54.1269 6.18739
54.3274 6.08566
54.528 5.93125
54.7289 5.79013
54.9301 5.64417
55.1314 5.50558
55.3328 5.3263
55.5344 5.08167
55.7361 4.96323

File: Ni3Fe_FD0345.xy
TT I
1.27165 7.82737
1.45013 6.54365
1.62863 5.21149
1.80712 4.96552
1.98562 4.49159
2.16411 4.81482
2.34263 5.6019
2.52115 6.10579
2.69965 7.60466
2.87818 8.28065
3.05672 11.5953
3.23527 15.1367
3.4138 18.9901
3.59237 23.564
3.77094 26.3137
3.9495 29.802
4.12809 34.9286
4.30669 138.439
4.4853 58.3321
4.6639 57.1514
4.84253 69.397
5.02118 91.7492
5.19981 594.155
5.37848 226.447
5.55716 106.614
5.73586 96.3915
5.91455 101.949
6.09328 4027.11
6.27201 85.865
6.45075 69.3335
6.62952 64.0627
6.8083 59.7825
6.98711 57.152
7.16591 56.4611
7.34475 76.4617
7.5236 55.8925
7.70247 57.3426
7.88135 59.4418
8.06026 63.8165
8.23919 71.6399
8.41812 88.5195
8.59709 1177.63
8.77609 104.329
8.9551 91.9992
9.13412 84.8285
9.31318 85.7112
9.49226 87.0824
9.67134 97.7592
9.85047 103.514
10.0296 438.652
10.2088 476.84
10.388 109.713
10.5672 486.595
10.7465 89.5446
10.9257 80.0164
11.105 73.642
11.2844 70.8944
11.4637 66.7138
11.6431 65.2217
11.8225 64.112
12.002 66.3228
12.1814 150.688
12.3609 70.4624
12.5405 66.341
12.72 70.6605
12.8996 73.3218
13.0792 82.6404
13.2589 246.969
13.4386 133.026
13.6183 244.017
13.7981 102.166
13.9779 78.2157
14.1577 74.0636
14.3376 72.6658
14.5175 71.1714
14.6974 72.9565
14.8774 119.587
15.0574 154.606
15.2374 72.0743
15.4175 68.6144
15.5976 67.9646
15.7778 102.75
15.958 163.807
16.1382 63.5556
16.3185 59.6744
16.4988 57.0714
16.6792 56.2765
16.8596 56.4388
17.04 58.0039
17.2205 69.1291
17.401 73.556
17.5815 61.0412
17.7622 63.4271
17.9428 78.9589
18.1237 139.975
18.3044 91.8922
18.4852 79.9536
18.666 62.2154
18.8469 59.8551
19.0278 58.6361
19.2088 61.8989
19.3898 76.673
19.5709 55.5279
19.752 54.9913
19.9332 58.5672
20.1144 71.2673
20.2957 64.53
20.477 55.2035
20.6586 51.1604
20.84 50.2608
21.0215 50.1945
21.203 51.9581
21.3846 50.4927
21.5662 50.5457
21.7479 54.669
21.9297 66.1082
22.1115 57.0018
22.2933 51.2738
22.4753 50.1903
22.6572 50.6661
22.8393 53.8781
23.0214 58.9111
23.2037 50.3253
23.3859 51.6196
23.5682 57.5094
23.7505 49.8018
23.9329 46.4616
24.1154 45.4955
24.2979 44.7688
24.4805 44.1447
24.6631 44.108
24.8458 43.4498
25.0286 44.2908
25.2114 45.9618
25.3943 45.9144
25.5773 42.1871
25.7605 41.5846
25.9436 42.0288
26.1268 42.8679
26.31 41.3298
26.4933 41.9859
26.6767 43.3094
26.8601 41.5994
27.0437 39.9419
27.2272 39.814
27.4109 39.5179
27.5946 39.4834
27.7784 38.9277
27.9623 39.4225
28.1462 39.8291
28.3304 38.156
28.5145 36.9486
28.6987 36.6412
28.8829 36.3807
29.0673 35.6794
29.2517 35.2699
29.4361 35.0693
29.6207 34.1614
29.8053 33.8295
29.99 33.4502
30.1748 33.3027
30.3597 33.2474
30.5447 33.1554
30.7297 33.1195
30.915 32.4104
31.1002 32.0437
31.2855 31.6687
31.4708 31.6952
31.6563 31.2554
31.8418 30.9684
32.0275 30.7691
32.2132 30.277
32.399 29.7594
32.5848 29.297
32.7708 28.9569
32.9569 28.8066
33.143 28.6217
33.3293 28.1975
33.5158 27.7862
33.7022 27.4028
33.8887 27.0764
34.0753 26.6892
34.262 26.378
34.4488 26.0547
34.6357 25.6607
34.8227 25.3456
35.0098 25.2375
35.1969 24.8933
35.3842 24.6799
35.5716 24.4059
35.759 24.1291
35.9468 23.7881
36.1345 23.5021
36.3222 23.2706
36.5101 23.0265
36.6981 22.7661
36.8861 22.4791
37.0743 22.1049
37.2626 21.8896
37.451 21.5369
37.6395 21.4389
37.8281 21.046
38.0168 20.7468
38.2056 20.5341
38.3945 20.2276
38.5837 19.9466
38.7728 19.7857
38.9621 19.4929
39.1514 19.245
39.3409 18.9944
39.5304 18.7423
39.7201 18.5373
39.9099 18.3216
40.0999 18.0447
40.2899 17.8698
40.48 17.5863
40.6703 17.3568
40.8607 17.1811
41.0512 16.9694
41.242 16.6891
41.4327 16.5263
41.6236 16.3022
41.8146 16.0705
42.0057 15.8767
42.1969 15.6541
42.3882 15.4813
42.5797 15.2296
42.7713 15.0675
42.963 14.7688
43.1549 14.5976
43.3468 14.3694
43.5389 14.1385
43.7312 14.0137
43.9237 13.7967
44.1162 13.6403
44.3088 13.4078
44.5016 13.251
44.6945 13.0863
44.8875 12.898
45.0806 12.7332
45.2739 12.512
45.4673 12.3568
45.6609 12.189
45.8546 11.9872
46.0484 11.8019
46.2424 11.6867
46.4365 11.5225
46.631 11.3019
46.8254 11.1761
47.0199 10.9896
47.2146 10.8257
47.4095 10.6767
47.6044 10.5134
47.7996 10.3814
47.9948 10.1902
48.1902 10.0859
48.3858 9.95589
48.5815 9.73088
48.7774 9.64738
48.9734 9.45133
49.1696 9.35859
49.3661 9.1856
49.5626 9.02402
49.7592 8.92898
49.956 8.8199
50.153 8.66262
50.3501 8.50248
50.5474 8.37234
50.7448 8.30658
50.9424 8.14941
51.1402 8.0075
51.3381 7.84205
51.5362 7.7562
51.7344 7.64077
51.9328 7.5124
52.1316 7.37471
52.3304 7.26077
52.5293 7.12366
52.7284 7.03736
52.9276 6.84892
53.1271 6.79094
53.3267 6.64981
53.5265 6.55358
53.7264 6.43393
53.9266 6.3251
54.1269 6.2117
54.3274 6.08633
54.528 5.94779
54.7289 5.82153
54.9301 5.64426
55.1314 5.49019
55.3328 5.25107
55.5344 5.06372
55.7361 4.91758

File: Ni3Fe_FD0346.xy
TT I
1.27165 7.65277
1.45013 6.45155
1.62863 5.41785
1.80712 4.76904
1.98562 4.56685
2.16411 5.04209
2.34263 5.067
2.52115 5.84737
2.69965 7.532
2.87818 8.50527
3.05672 11.335
3.23527 14.5292
3.4138 19.5191
3.59237 23.0964
3.77094 26.5071
3.9495 30.661
4.12809 35.2986
4.30669 136.444
4.4853 58.3321
4.6639 56.8317
4.84253 69.6309
5.02118 91.9634
5.19981 599.523
5.37848 224.794
5.55716 106.76
5.73586 96.8585
5.91455 101.866
6.09328 4026.69
6.27201 85.8422
6.45075 69.3501
6.62952 63.8643
6.8083 60.0019
6.98711 57.6378
7.16591 56.6446
7.34475 76.1165
7.5236 55.8511
7.70247 57.3659
7.88135 59.4758
8.06026 63.9809
8.23919 71.309
8.41812 88.613
8.59709 1181.16
8.77609 104.574
8.9551 91.4836
9.13412 84.4292
9.31318 85.9435
9.49226 87.2667
9.67134 97.8686
9.85047 103.817
10.0296 439.689
10.2088 472.805
10.388 110.236
10.5672 487.053
10.7465 89.3234
10.9257 79.8331
11.105 73.643
11.2844 70.9605
11.4637 66.4462
11.6431 65.1819
11.8225 64.5181
12.002 66.3472
12.1814 150.921
12.3609 70.5633
12.5405 66.3622
12.72 70.4048
12.8996 73.3315
13.0792 82.7931
13.2589 246.752
13.4386 132.799
13.6183 244.19
13.7981 102.232
13.9779 78.0519
14.1577 74.2402
14.3376 72.815
14.5175 71.0378
14.6974 73.0605
14.8774 119.961
15.0574 154.177
15.2374 72.0431
15.4175 68.2979
15.5976 68.1565
15.7778 102.871
15.958 163.026
16.1382 63.7235
16.3185 59.8311
16.4988 57.1901
16.6792 55.9816
16.8596 56.4989
17.04 57.9064
17.2205 69.2653
17.401 73.57
17.5815 61.2245
17.7622 63.1675
17.9428 78.98
18.1237 139.848
18.3044 91.6277
18.4852 80.0267
18.666 62.1565
18.8469 59.8402
19.0278 58.7025
19.2088 61.8375
19.3898 76.7795
19.5709 55.7068
19.752 54.8998
19.9332 58.4035
20.1144 71.3806
20.2957 64.6282
20.477 55.1398
20.6586 51.1689
20.84 50.3319
21.0215 50.2502
21.203 52.0444
21.3846 50.4567
21.5662 50.5545
21.7479 54.8281
21.9297 65.9802
22.1115 57.1526
22.2933 51.291
22.4753 50.2932
22.6572 50.6606
22.8393 53.8318
23.0214 58.9496
23.2037 50.4004
23.3859 51.6082
23.5682 57.6563
23.7505 49.7963
23.9329 46.4638
24.1154 45.2315
24.2979 44.6546
24.4805 44.2374
24.6631 43.9894
24.8458 43.5154
25.0286 44.5186
25.2114 45.8687
25.3943 45.9806
25.5773 42.1074
25.7605 41.7408
25.9436 42.0473
26.1268 42.8255
26.31 41.3668
26.4933 42.0154
26.6767 43.2655
26.8601 41.6088
27.0437 40.0648
27.2272 39.6222
27.4109 39.4265
27.5946 39.4532
27.7784 39.1423
27.9623 39.4073
28.1462 39.9286
28.3304 38.3565
28.5145 36.9964
28.6987 36.5516
28.8829 36.3354
29.0673 35.6805
29.2517 35.2833
29.4361 35.0826
29.6207 34.1352
29.8053 33.8786
29.99 33.5679
30.1748 33.2679
30.3597 33.1647
30.5447 33.1535
30.7297 33.0619
30.915 32.5138
31.1002 31.9231
31.2855 31.7307
31.4708 31.5769
31.6563 31.289
31.8418 30.9701
32.0275 30.8355
32.2132 30.1134
32.399 29.7662
32.5848 29.278
32.7708 29.0363
32.9569 28.8157
33.143 28.4945
33.3293 28.1952
33.5158 27.8302
33.7022 27.4104
33.8887 27.0198
34.0753 26.6527
34.262 26.3531
34.4488 26.01
34.6357 25.678
34.8227 25.4641
35.0098 25.1571
35.1969 24.8544
35.3842 24.6421
35.5716 24.4665
35.759 24.1329
35.9468 23.7832
36.1345 23.5064
36.3222 23.2549
36.5101 23.0923
36.6981 22.7231
36.8861 22.4233
37.0743 22.135
37.2626 21.888
37.451 21.5583
37.6395 21.3883
37.8281 21.0416
38.0168 20.7978
38.2056 20.4599
38.3945 20.2153
38.5837 19.9599
38.7728 19.7052
38.9621 19.486
39.1514 19.1974
39.3409 18.9457
39.5304 18.7401
39.7201 18.6132
39.9099 18.3608
40.0999 18.0705
40.2899 17.8051
40.48 17.6488
40.6703 17.4216
40.8607 17.1717
41.0512 16.9013
41.242 16.6941
41.4327 16.5079
41.6236 16.2298
41.8146 16.0878
42.0057 15.8111
42.1969 15.6581
42.3882 15.3943
42.5797 15.1772
42.7713 14.9826
42.963 14.8155
43.1549 14.5972
43.3468 14.4109
43.5389 14.1764
43.7312 13.9807
43.9237 13.7884
44.1162 13.5976
44.3088 13.4573
44.5016 13.2676
44.6945 13.0616
44.8875 12.9206
45.0806 12.7154
45.2739 12.5264
45.4673 12.3657
45.6609 12.1416
45.8546 11.9819
46.0484 11.8453
46.2424 11.6651
46.4365 11.4997
46.631 11.3017
46.8254 11.1735
47.0199 11.001
47.2146 10.8272
47.4095 10.7364
47.6044 10.4346
47.7996 10.3117
47.9948 10.186
48.1902 10.0222
48.3858 9.92025
48.5815 9.78674
48.7774 9.64466
48.9734 9.47463
49.1696 9.34455
49.3661 9.21018
49.5626 9.0474
49.7592 8.9379
49.956 8.81164
50.153 8.62903
50.3501 8.53725
50.5474 8.35831
50.7448 8.27788
50.9424 8.1202
51.1402 8.00538
51.3381 7.85098
51.5362 7.75658
51.7344 7.60394
51.9328 7.4867
52.1316 7.38085
52.3304 7.25141
52.5293 7.15052
52.7284 6.97871
52.9276 6.87396
53.1271 6.81609
53.3267 6.62466
53.5265 6.52743
53.7264 6.44028
53.9266 6.31787
54.1269 6.20987
54.3274 6.1181
54.528 5.92342
54.7289 5.78293
54.9301 5.55134
55.1314 5.52518
55.3328 5.26809
55.5344 5.13614
55.7361 4.9502

File: Ni3Fe_FD0347.xy
TT I
1.27165 7.41001
1.45013 6.60485
1.62863 5.8954
1.80712 5.37476
1.98562 4.71931
2.16411 4.50648
2.34263 4.61353
2.52115 5.55628
2.69965 7.31797
2.87818 8.41411
3.05672 11.2982
3.23527 14.8214
3.4138 19.0261
3.59237 23.5471
3.77094 25.9577
3.9495 29.938
4.12809 35.1053
4.30669 135.938
4.4853 57.9036
4.6639 56.9366
4.84253 69.6458
5.02118 91.7191
5.19981 597.242
5.37848 225.041
5.55716 106.581
5.73586 96.1163
5.91455 101.914
6.09328 4021.14
6.27201 85.4138
6.45075 69.4124
6.62952 63.5129
6.8083 60.0338
6.98711 57.082
7.16591 56.6719
7.34475 76.2073
7.5236 55.9351
7.70247 57.2742
7.88135 59.2016
8.06026 63.9962
8.23919 71.6888
8.41812 88.3238
8.59709 1184.51
8.77609 104.517
8.9551 91.3412
9.13412 84.5367
9.31318 85.7636
9.49226 87.6049
9.67134 98.1043
9.85047 103.905
10.0296 438.931
10.2088 473.242
10.388 109.898
10.5672 484.308
10.7465 89.348
10.9257 79.5976
11.105 73.6547
11.2844 70.9438
11.4637 66.6452
11.6431 65.179
11.8225 64.2835
12.002 66.2092
12.1814 150.489
12.3609 70.7591
12.5405 66.2749
12.72 70.3813
12.8996 73.1519
13.0792 82.9986
13.2589 246.311
13.4386 133.191
13.6183 244.363
13.7981 102.103
13.9779 78.0429
14.1577 74.0562
14.3376 72.796
14.5175 70.976
14.6974 72.8198
14.8774 119.773
15.0574 154.478
15.2374 72.2319
15.4175 68.4805
15.5976 68.0069
15.7778 102.875
15.958 163.847
16.1382 63.6264
16.3185 59.6753
16.4988 57.1407
16.6792 56.2262
16.8596 56.4544
17.04 57.9743
17.2205 69.0466
17.401 73.7599
17.5815 60.8635
17.7622 63.2986
17.9428 79.083
18.1237 140.238
18.3044 91.5409
18.4852 80.1499
18.666 62.373
18.8469 59.733
19.0278 58.62
19.2088 61.8139
19.3898 76.9466
19.5709 55.7167
19.752 55.0016
19.9332 58.4107
20.1144 71.4894
20.2957 64.4542
20.477 55.0038
20.6586 51.212
20.84 50.2547
21.0215 50.1646
21.203 51.8497
21.3846 50.4973
21.5662 50.6212
21.7479 54.6396
21.9297 66.4133
22.1115 57.2413
22.2933 51.3899
22.4753 50.1183
22.6572 50.6091
22.8393 53.8028
23.0214 58.9785
23.2037 50.3243
23.3859 51.5632
23.5682 57.6384
23.7505 49.7492
23.9329 46.4152
24.1154 45.2758
24.2979 44.7375
24.4805 44.17
24.6631 44.0419
24.8458 43.4554
25.0286 44.2031
25.2114 45.8186
25.3943 45.9541
25.5773 42.1578
25.7605 41.5806
25.9436 42.0249
26.1268 42.8162
26.31 41.3149
26.4933 41.9831
26.6767 43.4314
26.8601 41.6101
27.0437 40.0832
27.2272 39.7184
27.4109 39.5539
27.5946 39.5565
27.7784 39.0154
27.9623 39.4546
28.1462 39.8894
28.3304 38.1364
28.5145 36.9589
28.6987 36.6041
28.8829 36.4064
29.0673 35.6895
29.2517 35.2881
29.4361 35.1721
29.6207 34.138
29.8053 33.7516
29.99 33.6136
30.1748 33.2761
30.3597 33.203
30.5447 33.1743
30.7297 33.1677
30.915 32.5626
31.1002 32.0147
31.2855 31.803
31.4708 31.7052
31.6563 31.243
31.8418 31.023
32.0275 30.8365
32.2132 30.2164
32.399 29.7328
32.5848 29.3794
32.7708 28.945
32.9569 28.8186
33.143 28.5519
33.3293 28.1492
33.5158 27.7691
33.7022 27.433
33.8887 27.0967
34.0753 26.7649
34.262 26.3438
34.4488 26.0259
34.6357 25.6691
34.8227 25.4122
35.0098 25.1608
35.1969 24.7829
35.3842 24.6643
35.5716 24.4772
35.759 24.0981
35.9468 23.6971
36.1345 23.5039
36.3222 23.2856
36.5101 23.0478
36.6981 22.6925
36.8861 22.4463
37.0743 22.1188
37.2626 21.7178
37.451 21.5595
37.6395 21.4266
37.8281 21.0503
38.0168 20.8208
38.2056 20.5191
38.3945 20.1514
38.5837 20.0148
38.7728 19.6738
38.9621 19.448
39.1514 19.2568
39.3409 18.9716
39.5304 18.739
39.7201 18.57
39.9099 18.2897
40.0999 18.0476
40.2899 17.7429
40.48 17.5726
40.6703 17.3859
40.8607 17.1962
41.0512 16.9508
41.242 16.6821
41.4327 16.4993
41.6236 16.2687
41.8146 16.1249
42.0057 15.8562
42.1969 15.6204
42.3882 15.4803
42.5797 15.237
42.7713 15.0741
42.963 14.7923
43.1549 14.6539
43.3468 14.3641
43.5389 14.2012
43.7312 13.9943
43.9237 13.8687
44.1162 13.6684
44.3088 13.4538
44.5016 13.2752
44.6945 13.0518
44.8875 12.8517
45.0806 12.7254
45.2739 12.5113
45.4673 12.2903
45.6609 12.188
45.8546 11.9821
46.0484 11.8118
46.2424 11.6633
46.4365 11.5059
46.631 11.3109
46.8254 11.1448
47.0199 10.9932
47.2146 10.8353
47.4095 10.6454
47.6044 10.4867
47.7996 10.3239
47.9948 10.2056
48.1902 10.0927
48.3858 9.91552
48.5815 9.82815
48.7774 9.67401
48.9734 9.49522
49.1696 9.34317
49.3661 9.20365
49.5626 9.06408
49.7592 8.93232
49.956 8.79228
50.153 8.65118
50.3501 8.52134
50.5474 8.38931
50.7448 8.28958
50.9424 8.18218
51.1402 8.04336
51.3381 7.87224
51.5362 7.75979
51.7344 7.63036
51.9328 7.48076
52.1316 7.361
52.3304 7.28292
52.5293 7.16175
52.7284 7.01245
52.9276 6.89343
53.1271 6.8047
53.3267 6.65868
53.5265 6.488
53.7264 6.42793
53.9266 6.31967
54.1269 6.25309
54.3274 6.10592
54.528 5.9728
54.7289 5.79491
54.9301 5.58696
55.1314 5.51116
55.3328 5.25722
55.5344 5.11659
55.7361 5.01489

File: Ni3Fe_FD0349.xy
TT I
1.27165 7.98748
1.45013 6.13719
1.62863 4.78725
1.80712 5.28712
1.98562 4.57021
2.16411 4.90836
2.34263 5.34916
2.52115 5.70809
2.69965 7.82847
2.87818 8.4411
3.05672 11.7102
3.23527 15.0678
3.4138 19.1353
3.59237 23.3616
3.77094 26.4072
3.9495 30.0898
4.12809 34.8324
4.30669 132.659
4.4853 57.6066
4.6639 57.1904
4.84253 69.2889
5.02118 91.8753
5.19981 599.958
5.37848 223.653
5.55716 106.426
5.73586 96.0141
5.91455 101.873
6.09328 4015.49
6.27201 85.6568
6.45075 69.1599
6.62952 63.8718
6.8083 60.0546
6.98711 57.0638
7.16591 56.2605
7.34475 75.7542
7.5236 55.6753
7.70247 56.9283
7.88135 59.454
8.06026 64.2573
8.23919 71.6063
8.41812 87.8784
8.59709 1183.62
8.77609 104.33
8.9551 91.6275
9.13412 84.424
9.31318 85.9122
9.49226 87.2937
9.67134 97.2876
9.85047 103.326
10.0296 440.175
10.2088 475.302
10.388 109.788
10.5672 484.68
10.7465 89.1326
10.9257 79.8672
11.105 73.604
11.2844 70.9942
11.4637 66.62
11.6431 64.9838
11.8225 64.2645
12.002 66.3065
12.1814 149.736
12.3609 70.4773
12.5405 66.2387
12.72 70.2859
12.8996 73.2013
13.0792 82.7608
13.2589 246.118
13.4386 133.153
13.6183 244.875
13.7981 102.201
13.9779 77.9285
14.1577 74.1063
14.3376 72.5854
14.5175 71.1235
14.6974 72.7564
14.8774 120.08
15.0574 154.612
15.2374 71.8445
15.4175 68.3086
15.5976 68.0964
15.7778 102.955
15.958 163.18
16.1382 63.4075
16.3185 59.694
16.4988 57.0442
16.6792 55.9663
16.8596 56.7099
17.04 57.9864
17.2205 69.0709
17.401 73.4714
17.5815 60.9888
17.7622 63.3215
17.9428 79.0619
18.1237 139.612
18.3044 91.768
18.4852 79.8532
18.666 62.0215
18.8469 59.6003
19.0278 58.5409
19.2088 61.9203
19.3898 76.7812
19.5709 55.8541
19.752 54.9187
19.9332 58.7144
20.1144 71.4065
20.2957 64.4703
20.477 55.239
20.6586 51.1273
20.84 50.4145
21.0215 50.0963
21.203 52.0854
21.3846 50.5767
21.5662 50.6199
21.7479 54.791
21.9297 66.1459
22.1115 57.2645
22.2933 51.3271
22.4753 50.1864
22.6572 50.5892
22.8393 53.8216
23.0214 59.0205
23.2037 50.2286
23.3859 51.6115
23.5682 57.6983
23.7505 49.7677
23.9329 46.4932
24.1154 45.2843
24.2979 44.5487
24.4805 43.9809
24.6631 44.1029
24.8458 43.401
25.0286 44.147
25.2114 45.8732
25.3943 45.8474
25.5773 42.0921
25.7605 41.551
25.9436 42.0185
26.1268 42.8345
26.31 41.3872
26.4933 41.9654
26.6767 43.3021
26.8601 41.5437
27.0437 40.0615
27.2272 39.6133
27.4109 39.5624
27.5946 39.5051
27.7784 39.085
27.9623 39.5399
28.1462 39.9215
28.3304 38.218
28.5145 36.9548
28.6987 36.6082
28.8829 36.4147
29.0673 35.6395
29.2517 35.3001
29.4361 35.0382
29.6207 34.0263
29.8053 33.7769
29.99 33.4267
30.1748 33.2668
30.3597 33.1603
30.5447 33.112
30.7297 33.118
30.915 32.5779
31.1002 31.9807
31.2855 31.7901
31.4708 31.653
31.6563 31.1267
31.8418 30.9202
32.0275 30.8187
32.2132 30.1822
32.399 29.794
32.5848 29.2605
32.7708 28.9582
32.9569 28.7774
33.143 28.5797
33.3293 28.2671
33.5158 27.8376
33.7022 27.2713
33.8887 27.0702
34.0753 26.7108
34.262 26.3363
34.4488 26.0089
34.6357 25.7126
34.8227 25.5166
35.0098 25.2199
35.1969 24.8508
35.3842 24.5956
35.5716 24.4202
35.759 24.131
35.9468 23.7689
36.1345 23.5582
36.3222 23.3213
36.5101 23.0111
36.6981 22.6908
36.8861 22.3495
37.0743 22.1433
37.2626 21.8418
37.451 21.5372
37.6395 21.3723
37.8281 21.0675
38.0168 20.7578
38.2056 20.503
38.3945 20.2161
38.5837 19.9437
38.7728 19.7149
38.9621 19.5013
39.1514 19.1636
39.3409 18.9647
39.5304 18.7295
39.7201 18.5575
39.9099 18.3526
40.0999 18.1278
40.2899 17.8581
40.48 17.5976
40.6703 17.3704
40.8607 17.1691
41.0512 16.9751
41.242 16.734
41.4327 16.5018
41.6236 16.2685
41.8146 16.0988
42.0057 15.8371
42.1969 15.6079
42.3882 15.3916
42.5797 15.2952
42.7713 15.0481
42.963 14.8272
43.1549 14.5779
43.3468 14.3964
43.5389 14.2121
43.7312 14.0155
43.9237 13.8267
44.1162 13.6373
44.3088 13.4845
44.5016 13.2345
44.6945 13.0384
44.8875 12.9231
45.0806 12.6848
45.2739 12.5713
45.4673 12.3759
45.6609 12.1339
45.8546 12.0263
46.0484 11.8405
46.2424 11.6823
46.4365 11.4665
46.631 11.3076
46.8254 11.1433
47.0199 10.9985
47.2146 10.8355
47.4095 10.6619
47.6044 10.529
47.7996 10.3471
47.9948 10.1772
48.1902 10.0619
48.3858 9.92997
48.5815 9.75461
48.7774 9.65497
48.9734 9.52421
49.1696 9.36992
49.3661 9.22486
49.5626 8.98847
49.7592 8.95563
49.956 8.78239
50.153 8.66418
50.3501 8.51
50.5474 8.3982
50.7448 8.26289
50.9424 8.12495
51.1402 8.01648
51.3381 7.88604
51.5362 7.75781
51.7344 7.64367
51.9328 7.46788
52.1316 7.35181
52.3304 7.26938
52.5293 7.13912
52.7284 7.02769
52.9276 6.86557
53.1271 6.80387
53.3267 6.66833
53.5265 6.52487
53.7264 6.41463
53.9266 6.32891
54.1269 6.19957
54.3274 6.08162
54.528 5.97978
54.7289 5.78656
54.9301 5.58465
55.1314 5.4598
55.3328 5.28489
55.5344 5.11501
55.7361 4.95384