Folder: NiFe_MOF_catalyst_paper/XRD (part 2)

File: Ni3Fe_FD0006.xy
TT I
1.27165 36.2547
1.45013 31.8264
1.62863 29.0125
1.80712 25.8788
1.98562 25.8076
2.16411 25.7981
2.34263 26.6904
2.52115 26.3334
2.69965 29.4504
2.87818 40.276
3.05672 66.1483
3.23527 81.452
3.4138 45.9457
3.59237 40.1568
3.77094 41.7909
3.9495 44.0749
4.12809 55.0472
4.30669 77.8549
4.4853 69.5128
4.6639 55.9659
4.84253 60.6452
5.02118 90.5612
5.19981 248.661
5.37848 4138.75
5.55716 164.904
5.73586 99.9185
5.91455 106.179
6.09328 395.747
6.27201 382.224
6.45075 73.5589
6.62952 54.5805
6.8083 51.7193
6.98711 48.3921
7.16591 51.9682
7.34475 69.8887
7.5236 63.8915
7.70247 53.5186
7.88135 39.2407
8.06026 39.8719
8.23919 43.8566
8.41812 54.1977
8.59709 138.233
8.77609 780.043
8.9551 81.8671
9.13412 58.0727
9.31318 232.567
9.49226 51.3144
9.67134 49.0776
9.85047 54.6382
10.0296 85.8071
10.2088 356.371
10.388 162.923
10.5672 87.6218
10.7465 303.21
10.9257 48.8292
11.105 40.767
11.2844 39.6406
11.4637 38.2948
11.6431 37.1448
11.8225 36.8072
12.002 61.2855
12.1814 45.6066
12.3609 83.7759
12.5405 46.8035
12.72 38.7533
12.8996 38.7798
13.0792 40.5661
13.2589 61.3114
13.4386 114.392
13.6183 107.1
13.7981 122.516
13.9779 74.286
14.1577 43.9993
14.3376 55.9973
14.5175 35.715
14.6974 35.4443
14.8774 39.4868
15.0574 53.8872
15.2374 121.818
15.4175 41.0487
15.5976 36.5272
15.7778 38.5007
15.958 49.6603
16.1382 138.473
16.3185 41.3904
16.4988 32.425
16.6792 30.4043
16.8596 30.294
17.04 37.5263
17.2205 31.9829
17.401 34.0053
17.5815 52.8867
17.7622 33.759
17.9428 41.5667
18.1237 41.6418
18.3044 74.6257
18.4852 63.3549
18.666 78.7145
18.8469 36.045
19.0278 32.1388
19.2088 31.7503
19.3898 36.5298
19.5709 45.4945
19.752 39.1059
19.9332 30.8277
20.1144 31.2433
20.2957 38.5203
20.477 41.3442
20.6586 44.7544
20.84 30.3748
21.0215 30.1651
21.203 27.4507
21.3846 27.6348
21.5662 32.5243
21.7479 28.5091
21.9297 30.115
22.1115 37.4163
22.2933 49.6231
22.4753 39.494
22.6572 29.462
22.8393 29.0763
23.0214 31.2573
23.2037 35.5003
23.3859 38.4389
23.5682 34.3419
23.7505 32.7933
23.9329 48.4148
24.1154 29.6765
24.2979 26.9773
24.4805 25.4522
24.6631 25.3426
24.8458 27.7884
25.0286 25.4642
25.2114 25.4242
25.3943 27.7409
25.5773 30.8867
25.7605 32.287
25.9436 26.3482
26.1268 25.232
26.31 25.5018
26.4933 29.4389
26.6767 25.6128
26.8601 26.4078
27.0437 32.839
27.2272 28.8582
27.4109 24.2991
27.5946 23.8522
27.7784 24.2876
27.9623 25.7286
28.1462 25.3048
28.3304 26.5048
28.5145 29.862
28.6987 26.6395
28.8829 22.9002
29.0673 22.0638
29.2517 23.093
29.4361 22.2458
29.6207 21.5388
29.8053 23.0521
29.99 21.2213
30.1748 20.8145
30.3597 21.0226
30.5447 20.9812
30.7297 21.1784
30.915 20.9569
31.1002 23.2799
31.2855 22.9964
31.4708 20.63
31.6563 20.2952
31.8418 21.3835
32.0275 21.2567
32.2132 20.4987
32.399 21.6434
32.5848 20.2886
32.7708 18.9079
32.9569 18.533
33.143 18.8116
33.3293 18.268
33.5158 18.6734
33.7022 19.5591
33.8887 18.4623
34.0753 17.6697
34.262 17.4967
34.4488 17.505
34.6357 16.8956
34.8227 17.1334
35.0098 16.5021
35.1969 16.1674
35.3842 16.256
35.5716 16.213
35.759 16.4919
35.9468 17.2899
36.1345 16.5551
36.3222 15.758
36.5101 15.6161
36.6981 15.8716
36.8861 15.2442
37.0743 15.4813
37.2626 15.1184
37.451 14.6361
37.6395 14.4153
37.8281 14.2874
38.0168 14.0243
38.2056 14.1213
38.3945 13.7907
38.5837 13.4412
38.7728 13.5376
38.9621 13.3023
39.1514 13.2364
39.3409 13.0449
39.5304 12.7722
39.7201 12.507
39.9099 12.4858
40.0999 12.345
40.2899 12.4018
40.48 12.2292
40.6703 12.0283
40.8607 11.8975
41.0512 11.7762
41.242 11.7374
41.4327 11.6011
41.6236 11.2729
41.8146 11.1624
42.0057 10.9867
42.1969 10.946
42.3882 10.9248
42.5797 10.6137
42.7713 10.4488
42.963 10.3308
43.1549 10.0978
43.3468 9.9748
43.5389 9.8132
43.7312 9.72694
43.9237 9.60618
44.1162 9.49954
44.3088 9.50266
44.5016 9.27658
44.6945 9.16718
44.8875 9.05357
45.0806 8.95827
45.2739 8.82795
45.4673 8.68761
45.6609 8.57979
45.8546 8.48254
46.0484 8.40766
46.2424 8.29711
46.4365 8.13559
46.631 8.05233
46.8254 7.89773
47.0199 7.80726
47.2146 7.70276
47.4095 7.54919
47.6044 7.43883
47.7996 7.32975
47.9948 7.24762
48.1902 7.11519
48.3858 6.98661
48.5815 6.96091
48.7774 6.84137
48.9734 6.7893
49.1696 6.63072
49.3661 6.55748
49.5626 6.46993
49.7592 6.43574
49.956 6.30738
50.153 6.18333
50.3501 6.15937
50.5474 6.04622
50.7448 5.93307
50.9424 5.86276
51.1402 5.74167
51.3381 5.67753
51.5362 5.59804
51.7344 5.50526
51.9328 5.38078
52.1316 5.30803
52.3304 5.22903
52.5293 5.15984
52.7284 5.07738
52.9276 5.01107
53.1271 4.93417
53.3267 4.85103
53.5265 4.70299
53.7264 4.65626
53.9266 4.60066
54.1269 4.5076
54.3274 4.40513
54.528 4.27647
54.7289 4.11866
54.9301 4.0274
55.1314 3.94014
55.3328 3.78736
55.5344 3.57418
55.7361 3.52909

File: Ni3Fe_FD0007.xy
TT I
1.27165 36.3076
1.45013 32.6295
1.62863 28.9857
1.80712 27.0758
1.98562 25.6821
2.16411 25.7355
2.34263 25.3595
2.52115 26.5445
2.69965 30.096
2.87818 39.5747
3.05672 65.9157
3.23527 81.2753
3.4138 45.7239
3.59237 39.5467
3.77094 41.9543
3.9495 43.8594
4.12809 54.4329
4.30669 78.0491
4.4853 69.8128
4.6639 55.9205
4.84253 60.4774
5.02118 91.3757
5.19981 250.057
5.37848 4126.14
5.55716 164.529
5.73586 99.823
5.91455 106.089
6.09328 397.452
6.27201 377.854
6.45075 73.671
6.62952 54.5721
6.8083 51.7265
6.98711 48.708
7.16591 51.5155
7.34475 69.9671
7.5236 64.2143
7.70247 53.3018
7.88135 39.5522
8.06026 39.9275
8.23919 44.0109
8.41812 54.1221
8.59709 139.013
8.77609 774.718
8.9551 81.3313
9.13412 58.4042
9.31318 234.964
9.49226 51.1997
9.67134 49.0985
9.85047 55.002
10.0296 86.0471
10.2088 361.183
10.388 160.774
10.5672 88.0006
10.7465 302.833
10.9257 48.9563
11.105 41.1874
11.2844 39.7432
11.4637 38.3986
11.6431 37.5792
11.8225 36.9038
12.002 61.7543
12.1814 45.681
12.3609 84.3123
12.5405 46.3886
12.72 38.7854
12.8996 38.9233
13.0792 40.5101
13.2589 61.3319
13.4386 115.356
13.6183 106.385
13.7981 123.571
13.9779 73.4716
14.1577 44.3785
14.3376 55.4924
14.5175 35.9929
14.6974 35.4678
14.8774 39.8709
15.0574 54.0411
15.2374 120.147
15.4175 41.1771
15.5976 36.9605
15.7778 38.8166
15.958 49.8052
16.1382 137.902
16.3185 41.2641
16.4988 32.4602
16.6792 30.5918
16.8596 30.4563
17.04 37.6075
17.2205 31.939
17.401 34.0861
17.5815 52.6939
17.7622 33.8986
17.9428 41.5646
18.1237 41.7119
18.3044 75.2296
18.4852 62.6157
18.666 78.097
18.8469 36.0803
19.0278 32.1469
19.2088 31.7336
19.3898 36.6943
19.5709 45.6147
19.752 39.0079
19.9332 30.75
20.1144 31.4594
20.2957 38.5923
20.477 41.1809
20.6586 44.6517
20.84 30.5943
21.0215 29.9475
21.203 27.5577
21.3846 27.7509
21.5662 32.6166
21.7479 28.6342
21.9297 30.0828
22.1115 37.5236
22.2933 49.1163
22.4753 39.1707
22.6572 29.4846
22.8393 29.2041
23.0214 31.1178
23.2037 35.7662
23.3859 38.0302
23.5682 34.5059
23.7505 32.8041
23.9329 48.0632
24.1154 29.6559
24.2979 27.142
24.4805 25.4288
24.6631 25.3603
24.8458 27.7641
25.0286 25.5067
25.2114 25.3396
25.3943 27.7874
25.5773 30.8325
25.7605 32.0516
25.9436 26.4766
26.1268 25.0922
26.31 25.5295
26.4933 29.4989
26.6767 25.6675
26.8601 26.5041
27.0437 32.6052
27.2272 28.6563
27.4109 24.4278
27.5946 23.9058
27.7784 24.2475
27.9623 25.7652
28.1462 25.276
28.3304 26.5965
28.5145 29.5581
28.6987 26.5519
28.8829 23.0298
29.0673 22.0272
29.2517 23.0172
29.4361 22.1289
29.6207 21.5626
29.8053 22.9744
29.99 21.1857
30.1748 20.9065
30.3597 21.094
30.5447 20.9435
30.7297 21.2839
30.915 20.8899
31.1002 23.3626
31.2855 22.9998
31.4708 20.6341
31.6563 20.3281
31.8418 21.3464
32.0275 21.1987
32.2132 20.4598
32.399 21.5965
32.5848 20.156
32.7708 18.8701
32.9569 18.533
33.143 18.8362
33.3293 18.2874
33.5158 18.6283
33.7022 19.4458
33.8887 18.4121
34.0753 17.6952
34.262 17.5506
34.4488 17.3673
34.6357 16.8857
34.8227 17.1218
35.0098 16.5608
35.1969 16.1901
35.3842 16.1865
35.5716 16.2051
35.759 16.5332
35.9468 17.267
36.1345 16.5352
36.3222 15.8185
36.5101 15.5782
36.6981 15.7777
36.8861 15.2737
37.0743 15.4165
37.2626 15.1063
37.451 14.6535
37.6395 14.4902
37.8281 14.273
38.0168 14.0762
38.2056 14.0852
38.3945 13.8242
38.5837 13.438
38.7728 13.5514
38.9621 13.351
39.1514 13.2609
39.3409 13.0293
39.5304 12.7785
39.7201 12.6238
39.9099 12.499
40.0999 12.311
40.2899 12.3664
40.48 12.2526
40.6703 12.062
40.8607 11.9218
41.0512 11.7508
41.242 11.769
41.4327 11.5519
41.6236 11.2511
41.8146 11.1641
42.0057 11.0381
42.1969 10.9516
42.3882 10.9295
42.5797 10.5883
42.7713 10.3823
42.963 10.2887
43.1549 10.1238
43.3468 9.96761
43.5389 9.81534
43.7312 9.70594
43.9237 9.57761
44.1162 9.57089
44.3088 9.43877
44.5016 9.247
44.6945 9.18429
44.8875 9.10203
45.0806 8.94821
45.2739 8.84317
45.4673 8.72156
45.6609 8.58073
45.8546 8.50806
46.0484 8.36381
46.2424 8.29154
46.4365 8.16613
46.631 8.0289
46.8254 7.88236
47.0199 7.8379
47.2146 7.67808
47.4095 7.5591
47.6044 7.44285
47.7996 7.34171
47.9948 7.28386
48.1902 7.1331
48.3858 7.01697
48.5815 6.94855
48.7774 6.87384
48.9734 6.74115
49.1696 6.65604
49.3661 6.50449
49.5626 6.45087
49.7592 6.39065
49.956 6.31533
50.153 6.21466
50.3501 6.08132
50.5474 6.07005
50.7448 5.96273
50.9424 5.86131
51.1402 5.78041
51.3381 5.69499
51.5362 5.62028
51.7344 5.49988
51.9328 5.40523
52.1316 5.29065
52.3304 5.25546
52.5293 5.18997
52.7284 5.05339
52.9276 4.99598
53.1271 4.94189
53.3267 4.83821
53.5265 4.7721
53.7264 4.6519
53.9266 4.56052
54.1269 4.51474
54.3274 4.40008
54.528 4.32656
54.7289 4.17565
54.9301 4.04978
55.1314 3.90117
55.3328 3.7324
55.5344 3.60004
55.7361 3.52718

File: Ni3Fe_FD0008.xy
TT I
1.27165 35.9345
1.45013 32.833
1.62863 28.5485
1.80712 26.3541
1.98562 25.5331
2.16411 25.6052
2.34263 26.0857
2.52115 25.9478
2.69965 30.0889
2.87818 40.4888
3.05672 65.9694
3.23527 81.1139
3.4138 45.7728
3.59237 39.73
3.77094 41.6848
3.9495 44.0045
4.12809 54.4639
4.30669 78.2056
4.4853 69.7745
4.6639 56.037
4.84253 60.9095
5.02118 91.3603
5.19981 251.307
5.37848 4109.72
5.55716 164.316
5.73586 100.257
5.91455 107.068
6.09328 400.774
6.27201 374.029
6.45075 73.8501
6.62952 54.9956
6.8083 52.0382
6.98711 48.6455
7.16591 52.029
7.34475 69.7185
7.5236 64.2663
7.70247 52.812
7.88135 39.8321
8.06026 40.0071
8.23919 44.1024
8.41812 54.6789
8.59709 139.73
8.77609 769.366
8.9551 81.5176
9.13412 58.7399
9.31318 237.103
9.49226 51.4831
9.67134 49.1668
9.85047 55.1425
10.0296 86.6845
10.2088 366.287
10.388 158.637
10.5672 87.881
10.7465 302.011
10.9257 49.1951
11.105 41.5053
11.2844 39.774
11.4637 38.6355
11.6431 37.3991
11.8225 36.8725
12.002 62.562
12.1814 46.1312
12.3609 84.832
12.5405 46.5179
12.72 39.0735
12.8996 38.9899
13.0792 40.8374
13.2589 61.6057
13.4386 116.703
13.6183 105.132
13.7981 124.838
13.9779 72.6069
14.1577 44.3966
14.3376 54.8317
14.5175 36.0615
14.6974 35.817
14.8774 40.1553
15.0574 54.2425
15.2374 118.714
15.4175 41.033
15.5976 37.0306
15.7778 38.9411
15.958 50.1243
16.1382 136.705
16.3185 41.3173
16.4988 32.5468
16.6792 30.6581
16.8596 30.4312
17.04 38.0598
17.2205 32.0367
17.401 34.2681
17.5815 52.4931
17.7622 33.8631
17.9428 41.3569
18.1237 41.8801
18.3044 75.8275
18.4852 61.9843
18.666 77.2693
18.8469 35.9946
19.0278 32.2081
19.2088 31.8568
19.3898 36.8577
19.5709 45.5542
19.752 38.6712
19.9332 30.7231
20.1144 31.47
20.2957 38.7769
20.477 40.8725
20.6586 44.0764
20.84 30.5926
21.0215 30.0866
21.203 27.5181
21.3846 27.7371
21.5662 32.671
21.7479 28.6422
21.9297 30.0256
22.1115 37.6997
22.2933 48.5135
22.4753 38.9715
22.6572 29.3874
22.8393 29.0876
23.0214 31.1102
23.2037 35.8167
23.3859 37.6183
23.5682 34.5337
23.7505 32.8568
23.9329 47.7409
24.1154 29.5615
24.2979 27.0614
24.4805 25.5567
24.6631 25.409
24.8458 27.8206
25.0286 25.5646
25.2114 25.3451
25.3943 27.847
25.5773 30.7389
25.7605 31.897
25.9436 26.4964
26.1268 25.2165
26.31 25.5854
26.4933 29.2088
26.6767 25.5717
26.8601 26.4986
27.0437 32.534
27.2272 28.4819
27.4109 24.4114
27.5946 23.9665
27.7784 24.3416
27.9623 25.7082
28.1462 25.2104
28.3304 26.5865
28.5145 29.3369
28.6987 26.3464
28.8829 22.9861
29.0673 22.1883
29.2517 23.0186
29.4361 22.2863
29.6207 21.666
29.8053 23.0764
29.99 21.2683
30.1748 20.9382
30.3597 21.0432
30.5447 20.9974
30.7297 21.3352
30.915 20.925
31.1002 23.2112
31.2855 22.8152
31.4708 20.5724
31.6563 20.3935
31.8418 21.3733
32.0275 21.2163
32.2132 20.478
32.399 21.5888
32.5848 20.2624
32.7708 18.8664
32.9569 18.5896
33.143 18.9011
33.3293 18.2713
33.5158 18.7001
33.7022 19.401
33.8887 18.4145
34.0753 17.7175
34.262 17.5518
34.4488 17.5081
34.6357 16.9038
34.8227 17.2126
35.0098 16.5437
35.1969 16.1722
35.3842 16.2284
35.5716 16.2314
35.759 16.5428
35.9468 17.2123
36.1345 16.5179
36.3222 15.7306
36.5101 15.5876
36.6981 15.8133
36.8861 15.2634
37.0743 15.4325
37.2626 15.1051
37.451 14.64
37.6395 14.4687
37.8281 14.2507
38.0168 14.1208
38.2056 14.0752
38.3945 13.7199
38.5837 13.4656
38.7728 13.4837
38.9621 13.3051
39.1514 13.3087
39.3409 13.0796
39.5304 12.7564
39.7201 12.5807
39.9099 12.5159
40.0999 12.3638
40.2899 12.3228
40.48 12.2298
40.6703 12.0203
40.8607 11.8948
41.0512 11.714
41.242 11.7428
41.4327 11.549
41.6236 11.3098
41.8146 11.1679
42.0057 10.9937
42.1969 10.9472
42.3882 10.9007
42.5797 10.6162
42.7713 10.4385
42.963 10.3289
43.1549 10.1354
43.3468 9.96726
43.5389 9.83478
43.7312 9.70362
43.9237 9.61215
44.1162 9.51965
44.3088 9.43898
44.5016 9.26969
44.6945 9.15926
44.8875 9.06614
45.0806 8.95849
45.2739 8.85805
45.4673 8.67269
45.6609 8.5808
45.8546 8.46111
46.0484 8.37084
46.2424 8.25166
46.4365 8.09887
46.631 8.01127
46.8254 7.87152
47.0199 7.80544
47.2146 7.70832
47.4095 7.54518
47.6044 7.45701
47.7996 7.34054
47.9948 7.23523
48.1902 7.12483
48.3858 7.04039
48.5815 6.92643
48.7774 6.79119
48.9734 6.72845
49.1696 6.6432
49.3661 6.5323
49.5626 6.4612
49.7592 6.38051
49.956 6.26864
50.153 6.17129
50.3501 6.10678
50.5474 6.04387
50.7448 5.95191
50.9424 5.85317
51.1402 5.76728
51.3381 5.68785
51.5362 5.58791
51.7344 5.50116
51.9328 5.43357
52.1316 5.3181
52.3304 5.24056
52.5293 5.13681
52.7284 5.07259
52.9276 5.02092
53.1271 4.93509
53.3267 4.85119
53.5265 4.73072
53.7264 4.67739
53.9266 4.57829
54.1269 4.4729
54.3274 4.38937
54.528 4.27963
54.7289 4.16417
54.9301 4.02853
55.1314 3.9428
55.3328 3.75065
55.5344 3.62278
55.7361 3.51547

File: Ni3Fe_FD0009.xy
TT I
1.27165 36.9727
1.45013 33.1579
1.62863 28.8931
1.80712 26.6922
1.98562 26.1413
2.16411 25.6499
2.34263 25.9877
2.52115 26.5428
2.69965 30.4725
2.87818 40.3825
3.05672 66.2356
3.23527 80.6962
3.4138 45.7293
3.59237 40.2889
3.77094 42.2246
3.9495 43.9737
4.12809 54.5639
4.30669 77.7833
4.4853 69.1117
4.6639 55.6599
4.84253 60.7183
5.02118 91.7041
5.19981 252.672
5.37848 4094.1
5.55716 164.174
5.73586 99.8951
5.91455 107.233
6.09328 403.126
6.27201 370.279
6.45075 74.1042
6.62952 54.9609
6.8083 52.3284
6.98711 48.2178
7.16591 51.5512
7.34475 69.86
7.5236 64.5042
7.70247 52.8827
7.88135 39.8202
8.06026 40.1788
8.23919 44.151
8.41812 54.9191
8.59709 140.928
8.77609 764.236
8.9551 81.6252
9.13412 58.8964
9.31318 238.225
9.49226 51.7294
9.67134 49.5728
9.85047 55.624
10.0296 86.9433
10.2088 370.93
10.388 157.562
10.5672 88.3466
10.7465 300.935
10.9257 49.1302
11.105 41.6703
11.2844 40.1612
11.4637 38.6302
11.6431 37.6113
11.8225 36.9987
12.002 63.6562
12.1814 45.931
12.3609 85.4999
12.5405 46.3994
12.72 39.3173
12.8996 39.1785
13.0792 41.0485
13.2589 61.8822
13.4386 118.058
13.6183 104.41
13.7981 126.52
13.9779 71.9644
14.1577 44.7183
14.3376 54.1842
14.5175 36.3438
14.6974 35.8224
14.8774 40.447
15.0574 54.602
15.2374 117.002
15.4175 41.1684
15.5976 37.1355
15.7778 38.9492
15.958 50.0507
16.1382 135.987
16.3185 41.4472
16.4988 32.6713
16.6792 31.0281
16.8596 30.6766
17.04 38.1308
17.2205 32.2762
17.401 34.3307
17.5815 52.2255
17.7622 34.0519
17.9428 41.4215
18.1237 41.8801
18.3044 76.6782
18.4852 61.4738
18.666 76.7237
18.8469 36.1752
19.0278 32.3377
19.2088 32.108
19.3898 36.9238
19.5709 45.4934
19.752 38.6036
19.9332 30.9518
20.1144 31.4864
20.2957 39.1015
20.477 40.8745
20.6586 43.942
20.84 30.8328
21.0215 30.0696
21.203 27.691
21.3846 27.8585
21.5662 32.7502
21.7479 28.7144
21.9297 30.2268
22.1115 37.7145
22.2933 48.1955
22.4753 38.4988
22.6572 29.625
22.8393 29.3371
23.0214 31.2151
23.2037 35.9795
23.3859 37.2487
23.5682 34.531
23.7505 32.9367
23.9329 47.4648
24.1154 29.6793
24.2979 27.0674
24.4805 25.6522
24.6631 25.5679
24.8458 27.6344
25.0286 25.6367
25.2114 25.4705
25.3943 27.8317
25.5773 30.6971
25.7605 31.7084
25.9436 26.4193
26.1268 25.2428
26.31 25.7031
26.4933 29.0781
26.6767 25.6128
26.8601 26.6032
27.0437 32.4402
27.2272 28.4643
27.4109 24.3618
27.5946 23.9994
27.7784 24.4088
27.9623 25.6194
28.1462 25.2908
28.3304 26.5394
28.5145 29.1974
28.6987 26.3841
28.8829 22.9279
29.0673 22.121
29.2517 23.0185
29.4361 22.1137
29.6207 21.6021
29.8053 23.0212
29.99 21.2417
30.1748 21.0267
30.3597 21.0132
30.5447 21.0778
30.7297 21.2553
30.915 20.9451
31.1002 23.2145
31.2855 22.8321
31.4708 20.5338
31.6563 20.4278
31.8418 21.4019
32.0275 21.2222
32.2132 20.5137
32.399 21.4803
32.5848 20.2004
32.7708 18.9344
32.9569 18.6142
33.143 18.8851
33.3293 18.3674
33.5158 18.696
33.7022 19.4343
33.8887 18.3402
34.0753 17.8053
34.262 17.5301
34.4488 17.4373
34.6357 16.9592
34.8227 17.1302
35.0098 16.6035
35.1969 16.2018
35.3842 16.24
35.5716 16.2255
35.759 16.527
35.9468 17.1833
36.1345 16.4793
36.3222 15.7693
36.5101 15.7154
36.6981 15.7431
36.8861 15.1948
37.0743 15.5
37.2626 15.006
37.451 14.5999
37.6395 14.4263
37.8281 14.2405
38.0168 14.0564
38.2056 14.1196
38.3945 13.6912
38.5837 13.5133
38.7728 13.5341
38.9621 13.3343
39.1514 13.3124
39.3409 13.013
39.5304 12.7121
39.7201 12.6171
39.9099 12.5025
40.0999 12.3256
40.2899 12.392
40.48 12.2185
40.6703 12.0466
40.8607 11.9134
41.0512 11.7294
41.242 11.7766
41.4327 11.5677
41.6236 11.3038
41.8146 11.1692
42.0057 11.0094
42.1969 11.0007
42.3882 10.9238
42.5797 10.6203
42.7713 10.43
42.963 10.3004
43.1549 10.125
43.3468 9.99941
43.5389 9.85092
43.7312 9.72009
43.9237 9.62775
44.1162 9.53368
44.3088 9.45567
44.5016 9.26165
44.6945 9.16913
44.8875 9.08929
45.0806 8.94979
45.2739 8.82849
45.4673 8.70075
45.6609 8.56937
45.8546 8.47093
46.0484 8.4093
46.2424 8.26042
46.4365 8.15065
46.631 8.02047
46.8254 7.90384
47.0199 7.79916
47.2146 7.69893
47.4095 7.55935
47.6044 7.44199
47.7996 7.32299
47.9948 7.25175
48.1902 7.13434
48.3858 7.04722
48.5815 6.93343
48.7774 6.80952
48.9734 6.74758
49.1696 6.63286
49.3661 6.54063
49.5626 6.42483
49.7592 6.3967
49.956 6.30489
50.153 6.21017
50.3501 6.10459
50.5474 6.02135
50.7448 5.94288
50.9424 5.84654
51.1402 5.78416
51.3381 5.64496
51.5362 5.55749
51.7344 5.51242
51.9328 5.42578
52.1316 5.31358
52.3304 5.22026
52.5293 5.15419
52.7284 5.06818
52.9276 5.02604
53.1271 4.94163
53.3267 4.83621
53.5265 4.70606
53.7264 4.68291
53.9266 4.58724
54.1269 4.49602
54.3274 4.37937
54.528 4.25602
54.7289 4.14704
54.9301 4.02396
55.1314 3.92165
55.3328 3.73658
55.5344 3.59819
55.7361 3.55322

File: Ni3Fe_FD0010.xy
TT I
1.27165 36.0476
1.45013 32.7183
1.62863 28.6148
1.80712 26.4031
1.98562 26.0007
2.16411 25.9667
2.34263 26.4229
2.52115 26.5887
2.69965 30.0423
2.87818 40.2429
3.05672 66.1669
3.23527 81.1828
3.4138 45.416
3.59237 39.5993
3.77094 41.3324
3.9495 43.8814
4.12809 54.6015
4.30669 78.3184
4.4853 69.5208
4.6639 55.4242
4.84253 60.9544
5.02118 91.6382
5.19981 253.709
5.37848 4079.92
5.55716 164.014
5.73586 100.277
5.91455 106.919
6.09328 405.13
6.27201 365.994
6.45075 73.7206
6.62952 54.682
6.8083 52.5802
6.98711 48.3463
7.16591 51.9484
7.34475 69.7013
7.5236 64.3918
7.70247 52.8451
7.88135 39.472
8.06026 40.1569
8.23919 44.3276
8.41812 55.3887
8.59709 141.792
8.77609 759.596
8.9551 81.4382
9.13412 58.9959
9.31318 240.629
9.49226 51.7868
9.67134 49.6396
9.85047 55.7076
10.0296 87.7245
10.2088 376.478
10.388 155.905
10.5672 88.6287
10.7465 300.014
10.9257 49.1827
11.105 41.8581
11.2844 40.2713
11.4637 38.6784
11.6431 37.4323
11.8225 37.1404
12.002 64.5413
12.1814 46.1589
12.3609 86.171
12.5405 46.4347
12.72 39.4211
12.8996 39.2403
13.0792 41.1159
13.2589 61.58
13.4386 119.603
13.6183 103.052
13.7981 127.983
13.9779 71.2405
14.1577 45.0722
14.3376 53.5764
14.5175 36.4358
14.6974 36.0205
14.8774 40.4595
15.0574 54.7712
15.2374 115.396
15.4175 41.4109
15.5976 37.397
15.7778 39.3014
15.958 50.4629
16.1382 135.308
16.3185 41.0313
16.4988 32.6611
16.6792 30.9146
16.8596 30.7098
17.04 38.4026
17.2205 32.3386
17.401 34.4327
17.5815 52.1839
17.7622 34.1549
17.9428 41.3567
18.1237 41.9993
18.3044 77.4062
18.4852 60.8921
18.666 76.0568
18.8469 36.0821
19.0278 32.3971
19.2088 32.2295
19.3898 37.3364
19.5709 45.5795
19.752 38.2905
19.9332 30.9049
20.1144 31.5918
20.2957 39.2467
20.477 40.4162
20.6586 43.5401
20.84 30.6977
21.0215 30.002
21.203 27.8115
21.3846 27.7858
21.5662 32.6049
21.7479 29.0176
21.9297 30.3146
22.1115 38.0988
22.2933 47.6323
22.4753 38.5909
22.6572 29.4779
22.8393 29.3482
23.0214 31.176
23.2037 36.1945
23.3859 36.9139
23.5682 34.4956
23.7505 32.8813
23.9329 46.91
24.1154 29.744
24.2979 27.2878
24.4805 25.729
24.6631 25.6345
24.8458 27.8748
25.0286 25.7362
25.2114 25.6531
25.3943 27.9189
25.5773 30.627
25.7605 31.4152
25.9436 26.4482
26.1268 25.2101
26.31 25.7974
26.4933 29.1287
26.6767 25.6756
26.8601 26.5892
27.0437 32.2737
27.2272 28.4203
27.4109 24.5205
27.5946 24.1621
27.7784 24.437
27.9623 25.6108
28.1462 25.3221
28.3304 26.4506
28.5145 28.9412
28.6987 26.2647
28.8829 22.9439
29.0673 22.331
29.2517 23.1892
29.4361 22.228
29.6207 21.6367
29.8053 23.0036
29.99 21.238
30.1748 21.0678
30.3597 21.1177
30.5447 21.0884
30.7297 21.2807
30.915 20.9452
31.1002 23.3118
31.2855 22.6466
31.4708 20.6494
31.6563 20.4057
31.8418 21.3826
32.0275 21.0608
32.2132 20.468
32.399 21.4089
32.5848 20.1198
32.7708 18.949
32.9569 18.6728
33.143 18.8286
33.3293 18.3379
33.5158 18.6991
33.7022 19.4475
33.8887 18.3413
34.0753 17.7043
34.262 17.5145
34.4488 17.3862
34.6357 17.021
34.8227 17.068
35.0098 16.5481
35.1969 16.2395
35.3842 16.3091
35.5716 16.2232
35.759 16.4802
35.9468 17.1048
36.1345 16.4887
36.3222 15.6924
36.5101 15.6608
36.6981 15.7362
36.8861 15.2899
37.0743 15.3977
37.2626 15.078
37.451 14.6038
37.6395 14.4797
37.8281 14.298
38.0168 14.0777
38.2056 14.1243
38.3945 13.7361
38.5837 13.5158
38.7728 13.5315
38.9621 13.317
39.1514 13.1931
39.3409 13.044
39.5304 12.7161
39.7201 12.5595
39.9099 12.5136
40.0999 12.3829
40.2899 12.3829
40.48 12.2127
40.6703 12.0337
40.8607 11.9372
41.0512 11.7303
41.242 11.7616
41.4327 11.5556
41.6236 11.2714
41.8146 11.1317
42.0057 10.9741
42.1969 10.9277
42.3882 10.8807
42.5797 10.5481
42.7713 10.4271
42.963 10.3126
43.1549 10.128
43.3468 9.93592
43.5389 9.82814
43.7312 9.68462
43.9237 9.59074
44.1162 9.54746
44.3088 9.43283
44.5016 9.26075
44.6945 9.14074
44.8875 9.02924
45.0806 8.94538
45.2739 8.80757
45.4673 8.64148
45.6609 8.53884
45.8546 8.49647
46.0484 8.36417
46.2424 8.22565
46.4365 8.10659
46.631 8.02299
46.8254 7.89692
47.0199 7.78129
47.2146 7.68079
47.4095 7.53584
47.6044 7.4683
47.7996 7.31287
47.9948 7.24463
48.1902 7.14409
48.3858 7.0092
48.5815 6.93585
48.7774 6.85467
48.9734 6.72345
49.1696 6.62183
49.3661 6.53533
49.5626 6.46041
49.7592 6.35327
49.956 6.27002
50.153 6.20882
50.3501 6.09428
50.5474 6.01212
50.7448 5.95869
50.9424 5.86456
51.1402 5.76837
51.3381 5.6285
51.5362 5.60463
51.7344 5.51412
51.9328 5.40871
52.1316 5.30835
52.3304 5.25154
52.5293 5.13758
52.7284 5.05676
52.9276 4.99264
53.1271 4.9227
53.3267 4.84731
53.5265 4.72952
53.7264 4.65884
53.9266 4.58294
54.1269 4.48956
54.3274 4.41098
54.528 4.25173
54.7289 4.14285
54.9301 4.05249
55.1314 3.95265
55.3328 3.71402
55.5344 3.59553
55.7361 3.54759