Folder: NiFe_MOF_catalyst_paper/XRD (part 55)

File: Ni3Fe_FD0284.xy
TT I
1.27165 7.22851
1.45013 6.21769
1.62863 5.26704
1.80712 5.35529
1.98562 5.18087
2.16411 4.6532
2.34263 4.85579
2.52115 5.83554
2.69965 7.00936
2.87818 8.56886
3.05672 11.4785
3.23527 15.8304
3.4138 19.2914
3.59237 24.7452
3.77094 26.949
3.9495 30.7047
4.12809 36.4645
4.30669 255.335
4.4853 70.0383
4.6639 57.3185
4.84253 69.9167
5.02118 91.82
5.19981 506.972
5.37848 262.014
5.55716 108.195
5.73586 96.7706
5.91455 101.352
6.09328 3680.87
6.27201 89.9498
6.45075 70.9077
6.62952 65.4551
6.8083 60.9338
6.98711 57.7891
7.16591 58.0393
7.34475 102.231
7.5236 56.5388
7.70247 58.5619
7.88135 60.1828
8.06026 64.432
8.23919 72.4238
8.41812 89.7514
8.59709 1036.05
8.77609 109.114
8.9551 96.5054
9.13412 85.4271
9.31318 86.318
9.49226 87.3911
9.67134 103.958
9.85047 104.589
10.0296 398.633
10.2088 607.732
10.388 110.667
10.5672 453.564
10.7465 91.4629
10.9257 81.638
11.105 74.7332
11.2844 73.9541
11.4637 67.5062
11.6431 66.4328
11.8225 65.2397
12.002 66.2221
12.1814 140.006
12.3609 76.5527
12.5405 67.0155
12.72 73.6043
12.8996 73.8478
13.0792 82.2419
13.2589 217.603
13.4386 152.298
13.6183 221.403
13.7981 113.339
13.9779 78.9009
14.1577 75.7428
14.3376 74.8395
14.5175 71.3682
14.6974 73.4975
14.8774 111.719
15.0574 175.556
15.2374 74.3639
15.4175 69.1218
15.5976 68.5279
15.7778 97.1538
15.958 176.814
16.1382 65.8832
16.3185 61.2989
16.4988 57.9332
16.6792 56.6749
16.8596 57.6067
17.04 58.2314
17.2205 67.5438
17.401 77.8185
17.5815 61.5862
17.7622 63.654
17.9428 78.1249
18.1237 137.329
18.3044 90.0135
18.4852 85.9377
18.666 62.8139
18.8469 60.5139
19.0278 59.4512
19.2088 62.2529
19.3898 77.9662
19.5709 56.7314
19.752 55.457
19.9332 58.489
20.1144 71.5375
20.2957 64.5602
20.477 57.4158
20.6586 51.7109
20.84 50.8327
21.0215 50.7961
21.203 52.3183
21.3846 51.1605
21.5662 50.8465
21.7479 54.4773
21.9297 66.4745
22.1115 57.7049
22.2933 52.5077
22.4753 51.0131
22.6572 50.7638
22.8393 53.3045
23.0214 59.9015
23.2037 50.8786
23.3859 51.9936
23.5682 57.7155
23.7505 51.2541
23.9329 47.0846
24.1154 45.8814
24.2979 45.2255
24.4805 44.6096
24.6631 44.6332
24.8458 43.8192
25.0286 44.477
25.2114 46.2697
25.3943 46.4486
25.5773 42.7038
25.7605 42.2085
25.9436 42.432
26.1268 43.4026
26.31 41.8461
26.4933 42.2095
26.6767 43.6073
26.8601 42.2028
27.0437 40.4852
27.2272 40.0855
27.4109 39.7346
27.5946 39.8518
27.7784 39.3787
27.9623 39.6051
28.1462 40.4625
28.3304 38.7175
28.5145 37.3998
28.6987 37.0539
28.8829 36.7753
29.0673 36.109
29.2517 35.7736
29.4361 35.4518
29.6207 34.4747
29.8053 34.2316
29.99 33.9678
30.1748 33.7457
30.3597 33.6265
30.5447 33.3988
30.7297 33.4363
30.915 32.9729
31.1002 32.3556
31.2855 32.0129
31.4708 32.0174
31.6563 31.5786
31.8418 31.2961
32.0275 31.1897
32.2132 30.6345
32.399 30.0157
32.5848 29.6352
32.7708 29.3046
32.9569 29.1085
33.143 28.9382
33.3293 28.533
33.5158 28.153
33.7022 27.5696
33.8887 27.395
34.0753 27.08
34.262 26.7131
34.4488 26.3436
34.6357 25.9539
34.8227 25.7296
35.0098 25.5269
35.1969 25.1522
35.3842 24.9046
35.5716 24.7667
35.759 24.4211
35.9468 23.9092
36.1345 23.7358
36.3222 23.5675
36.5101 23.3482
36.6981 22.9511
36.8861 22.6925
37.0743 22.3918
37.2626 22.1169
37.451 21.872
37.6395 21.6259
37.8281 21.291
38.0168 21.0099
38.2056 20.8186
38.3945 20.404
38.5837 20.1649
38.7728 19.9342
38.9621 19.7697
39.1514 19.4666
39.3409 19.2744
39.5304 19.0234
39.7201 18.7736
39.9099 18.5894
40.0999 18.3214
40.2899 18.0693
40.48 17.7949
40.6703 17.5826
40.8607 17.4453
41.0512 17.1939
41.242 16.8558
41.4327 16.7358
41.6236 16.4953
41.8146 16.3268
42.0057 16.0571
42.1969 15.8126
42.3882 15.6369
42.5797 15.3898
42.7713 15.2466
42.963 14.9872
43.1549 14.8224
43.3468 14.5352
43.5389 14.3794
43.7312 14.2047
43.9237 14.007
44.1162 13.7267
44.3088 13.6385
44.5016 13.4104
44.6945 13.2212
44.8875 13.0638
45.0806 12.8492
45.2739 12.6867
45.4673 12.5722
45.6609 12.3306
45.8546 12.1601
46.0484 11.9899
46.2424 11.7837
46.4365 11.6126
46.631 11.4754
46.8254 11.2832
47.0199 11.1219
47.2146 10.9977
47.4095 10.8113
47.6044 10.6294
47.7996 10.49
47.9948 10.3459
48.1902 10.2011
48.3858 10.0589
48.5815 9.91125
48.7774 9.78423
48.9734 9.62315
49.1696 9.4521
49.3661 9.31936
49.5626 9.20186
49.7592 9.03421
49.956 8.90194
50.153 8.79296
50.3501 8.64025
50.5474 8.47963
50.7448 8.36781
50.9424 8.19404
51.1402 8.09733
51.3381 7.99224
51.5362 7.8494
51.7344 7.70036
51.9328 7.58035
52.1316 7.44067
52.3304 7.32827
52.5293 7.22668
52.7284 7.08971
52.9276 6.95569
53.1271 6.84972
53.3267 6.73789
53.5265 6.65996
53.7264 6.53111
53.9266 6.40853
54.1269 6.29618
54.3274 6.16878
54.528 6.03051
54.7289 5.84008
54.9301 5.6748
55.1314 5.56676
55.3328 5.33001
55.5344 5.18354
55.7361 5.03361

File: Ni3Fe_FD0285.xy
TT I
1.27165 7.51039
1.45013 6.2635
1.62863 5.26311
1.80712 5.35887
1.98562 5.29393
2.16411 5.05692
2.34263 4.01553
2.52115 5.58867
2.69965 6.70205
2.87818 8.26972
3.05672 10.8842
3.23527 15.0422
3.4138 19.1504
3.59237 24.9074
3.77094 26.9419
3.9495 30.7173
4.12809 36.0678
4.30669 255.113
4.4853 70.8732
4.6639 57.3979
4.84253 69.9044
5.02118 92.0037
5.19981 513.875
5.37848 260.605
5.55716 108.433
5.73586 97.5869
5.91455 101.231
6.09328 3694.22
6.27201 89.8098
6.45075 70.6336
6.62952 65.6424
6.8083 61.5903
6.98711 57.9833
7.16591 58.3239
7.34475 101.604
7.5236 56.6828
7.70247 58.7435
7.88135 60.079
8.06026 64.7162
8.23919 72.6879
8.41812 90.3549
8.59709 1039.06
8.77609 109.398
8.9551 96.6856
9.13412 85.5053
9.31318 86.3628
9.49226 88.0637
9.67134 104.393
9.85047 104.685
10.0296 399.758
10.2088 600.984
10.388 110.847
10.5672 456.621
10.7465 91.5698
10.9257 82.1994
11.105 74.715
11.2844 73.8624
11.4637 67.8625
11.6431 66.5302
11.8225 65.3752
12.002 66.2321
12.1814 139.988
12.3609 76.8066
12.5405 67.63
12.72 73.5462
12.8996 73.8884
13.0792 82.3324
13.2589 218.299
13.4386 150.342
13.6183 220.811
13.7981 112.401
13.9779 79.0653
14.1577 75.5893
14.3376 74.911
14.5175 71.5051
14.6974 73.4539
14.8774 111.837
15.0574 174.481
15.2374 74.8696
15.4175 69.0703
15.5976 68.5444
15.7778 97.3455
15.958 175.624
16.1382 66.064
16.3185 61.2055
16.4988 58.091
16.6792 56.7833
16.8596 57.7339
17.04 58.0662
17.2205 67.6393
17.401 77.4864
17.5815 61.5857
17.7622 63.8169
17.9428 78.2187
18.1237 137.376
18.3044 89.6434
18.4852 85.375
18.666 62.9201
18.8469 60.5775
19.0278 59.2688
19.2088 62.2123
19.3898 78.0542
19.5709 56.7813
19.752 55.3585
19.9332 58.5786
20.1144 71.5764
20.2957 64.4645
20.477 57.2334
20.6586 51.728
20.84 50.7375
21.0215 50.5904
21.203 52.2996
21.3846 51.4471
21.5662 50.8348
21.7479 54.5007
21.9297 66.3734
22.1115 57.6479
22.2933 52.2529
22.4753 51.1609
22.6572 50.9801
22.8393 53.337
23.0214 59.8782
23.2037 50.8148
23.3859 51.8758
23.5682 57.7849
23.7505 51.2645
23.9329 47.0985
24.1154 46.0417
24.2979 45.2123
24.4805 44.6693
24.6631 44.464
24.8458 43.9283
25.0286 44.524
25.2114 46.2567
25.3943 46.4712
25.5773 42.7726
25.7605 42.2672
25.9436 42.4546
26.1268 43.2793
26.31 41.7991
26.4933 42.1588
26.6767 43.5887
26.8601 42.1088
27.0437 40.4815
27.2272 40.1273
27.4109 39.7219
27.5946 39.904
27.7784 39.3149
27.9623 39.815
28.1462 40.3497
28.3304 38.8503
28.5145 37.3767
28.6987 37.0316
28.8829 36.7699
29.0673 36.1672
29.2517 35.6701
29.4361 35.4889
29.6207 34.6565
29.8053 34.2376
29.99 33.8736
30.1748 33.7697
30.3597 33.4907
30.5447 33.5183
30.7297 33.4352
30.915 32.8992
31.1002 32.4422
31.2855 31.9777
31.4708 31.9469
31.6563 31.6801
31.8418 31.2758
32.0275 31.2168
32.2132 30.5825
32.399 30.156
32.5848 29.6985
32.7708 29.2339
32.9569 29.1541
33.143 28.882
33.3293 28.5537
33.5158 28.1598
33.7022 27.645
33.8887 27.377
34.0753 27.0717
34.262 26.6784
34.4488 26.301
34.6357 26.0342
34.8227 25.7536
35.0098 25.4302
35.1969 25.1011
35.3842 24.9445
35.5716 24.7451
35.759 24.382
35.9468 24.0602
36.1345 23.795
36.3222 23.5898
36.5101 23.3523
36.6981 22.9892
36.8861 22.6538
37.0743 22.3485
37.2626 22.0809
37.451 21.8876
37.6395 21.6616
37.8281 21.3502
38.0168 21.0404
38.2056 20.7349
38.3945 20.5484
38.5837 20.2718
38.7728 20.0155
38.9621 19.7035
39.1514 19.4915
39.3409 19.213
39.5304 18.9958
39.7201 18.7559
39.9099 18.575
40.0999 18.3004
40.2899 18.085
40.48 17.8075
40.6703 17.6227
40.8607 17.4051
41.0512 17.1764
41.242 16.9207
41.4327 16.7005
41.6236 16.4114
41.8146 16.2709
42.0057 16.0485
42.1969 15.838
42.3882 15.6259
42.5797 15.4236
42.7713 15.214
42.963 15.0167
43.1549 14.7556
43.3468 14.5959
43.5389 14.418
43.7312 14.1763
43.9237 13.9635
44.1162 13.8418
44.3088 13.6372
44.5016 13.4314
44.6945 13.2387
44.8875 13.0636
45.0806 12.8766
45.2739 12.7021
45.4673 12.4742
45.6609 12.3472
45.8546 12.1736
46.0484 11.9936
46.2424 11.8188
46.4365 11.6593
46.631 11.4623
46.8254 11.2995
47.0199 11.1159
47.2146 10.9862
47.4095 10.7915
47.6044 10.6886
47.7996 10.4561
47.9948 10.339
48.1902 10.1915
48.3858 10.0557
48.5815 9.92173
48.7774 9.76833
48.9734 9.64681
49.1696 9.45941
49.3661 9.33996
49.5626 9.16786
49.7592 9.09
49.956 8.94321
50.153 8.79072
50.3501 8.6517
50.5474 8.54675
50.7448 8.39267
50.9424 8.2246
51.1402 8.11197
51.3381 7.97063
51.5362 7.81476
51.7344 7.71661
51.9328 7.56607
52.1316 7.45915
52.3304 7.33927
52.5293 7.25214
52.7284 7.1423
52.9276 6.94286
53.1271 6.88894
53.3267 6.74717
53.5265 6.64669
53.7264 6.53175
53.9266 6.40591
54.1269 6.3246
54.3274 6.16428
54.528 5.99926
54.7289 5.86797
54.9301 5.65281
55.1314 5.55569
55.3328 5.35429
55.5344 5.13783
55.7361 4.98777

File: Ni3Fe_FD0287.xy
TT I
1.27165 7.65818
1.45013 6.13093
1.62863 5.97988
1.80712 4.95599
1.98562 5.07669
2.16411 4.78014
2.34263 5.53309
2.52115 6.23128
2.69965 7.11298
2.87818 7.88069
3.05672 11.4827
3.23527 15.3234
3.4138 19.2067
3.59237 24.9952
3.77094 26.8884
3.9495 30.4872
4.12809 36.172
4.30669 264.188
4.4853 71.3197
4.6639 56.89
4.84253 69.3125
5.02118 91.2456
5.19981 505.727
5.37848 261.1
5.55716 108.114
5.73586 96.83
5.91455 101.811
6.09328 3687.45
6.27201 90.2653
6.45075 70.7316
6.62952 65.6798
6.8083 61.2652
6.98711 58.0677
7.16591 58.1618
7.34475 104.093
7.5236 56.3545
7.70247 58.3597
7.88135 59.9719
8.06026 64.6753
8.23919 72.2047
8.41812 89.393
8.59709 1032.14
8.77609 108.464
8.9551 96.7226
9.13412 84.9804
9.31318 86.0479
9.49226 87.7185
9.67134 104.33
9.85047 104.053
10.0296 395.651
10.2088 608.36
10.388 110.849
10.5672 453.21
10.7465 90.992
10.9257 81.989
11.105 74.6033
11.2844 74.0609
11.4637 67.59
11.6431 66.1964
11.8225 65.1498
12.002 66.4708
12.1814 139.424
12.3609 76.3417
12.5405 67.3648
12.72 73.8641
12.8996 73.6434
13.0792 81.787
13.2589 216.192
13.4386 150.647
13.6183 219.179
13.7981 113.344
13.9779 78.9243
14.1577 75.5993
14.3376 75.1052
14.5175 71.4229
14.6974 73.4138
14.8774 111.102
15.0574 175.571
15.2374 74.7806
15.4175 69.0215
15.5976 68.5321
15.7778 96.643
15.958 177.299
16.1382 66.1744
16.3185 61.2974
16.4988 57.821
16.6792 56.5541
16.8596 57.4182
17.04 58.1641
17.2205 67.4734
17.401 78.1993
17.5815 61.5066
17.7622 63.811
17.9428 77.9861
18.1237 137.255
18.3044 89.6966
18.4852 85.8939
18.666 62.7856
18.8469 60.2615
19.0278 59.1905
19.2088 62.3036
19.3898 78.0497
19.5709 56.7486
19.752 55.33
19.9332 58.4884
20.1144 71.5147
20.2957 64.274
20.477 57.0689
20.6586 51.6507
20.84 50.7374
21.0215 50.5585
21.203 52.3716
21.3846 51.2845
21.5662 50.619
21.7479 54.3756
21.9297 66.3387
22.1115 57.6768
22.2933 52.4319
22.4753 50.9007
22.6572 50.7784
22.8393 53.1729
23.0214 60.0799
23.2037 50.7859
23.3859 51.7094
23.5682 57.4947
23.7505 51.232
23.9329 47.0068
24.1154 45.8093
24.2979 45.2444
24.4805 44.534
24.6631 44.5298
24.8458 44.0339
25.0286 44.3997
25.2114 46.1213
25.3943 46.5892
25.5773 42.7476
25.7605 42.0768
25.9436 42.3353
26.1268 43.3137
26.31 41.756
26.4933 42.1379
26.6767 43.6264
26.8601 42.0531
27.0437 40.3982
27.2272 40.0111
27.4109 39.865
27.5946 39.8739
27.7784 39.3922
27.9623 39.6626
28.1462 40.3427
28.3304 38.7016
28.5145 37.3045
28.6987 37.0798
28.8829 36.7821
29.0673 36.0143
29.2517 35.5408
29.4361 35.5564
29.6207 34.4929
29.8053 34.2535
29.99 33.9188
30.1748 33.6347
30.3597 33.5567
30.5447 33.2691
30.7297 33.3425
30.915 32.8597
31.1002 32.2923
31.2855 32.0059
31.4708 32.0239
31.6563 31.5792
31.8418 31.2598
32.0275 31.1848
32.2132 30.595
32.399 30.0422
32.5848 29.6066
32.7708 29.2533
32.9569 29.112
33.143 28.7866
33.3293 28.4574
33.5158 28.1317
33.7022 27.6905
33.8887 27.3415
34.0753 26.9825
34.262 26.6651
34.4488 26.3052
34.6357 26.0417
34.8227 25.6745
35.0098 25.4832
35.1969 25.1082
35.3842 24.9957
35.5716 24.6811
35.759 24.3498
35.9468 23.9566
36.1345 23.7019
36.3222 23.5464
36.5101 23.292
36.6981 22.9569
36.8861 22.7618
37.0743 22.3657
37.2626 22.105
37.451 21.8596
37.6395 21.694
37.8281 21.3183
38.0168 20.9878
38.2056 20.772
38.3945 20.4687
38.5837 20.1917
38.7728 20.0257
38.9621 19.8005
39.1514 19.4271
39.3409 19.1617
39.5304 18.9667
39.7201 18.7166
39.9099 18.4977
40.0999 18.2173
40.2899 17.9705
40.48 17.7835
40.6703 17.5759
40.8607 17.4459
41.0512 17.1826
41.242 16.9137
41.4327 16.6918
41.6236 16.3956
41.8146 16.2769
42.0057 15.9788
42.1969 15.7733
42.3882 15.6133
42.5797 15.3987
42.7713 15.1837
42.963 14.984
43.1549 14.7484
43.3468 14.5186
43.5389 14.4256
43.7312 14.1677
43.9237 13.9679
44.1162 13.7975
44.3088 13.5367
44.5016 13.3987
44.6945 13.2331
44.8875 13.0733
45.0806 12.8376
45.2739 12.6757
45.4673 12.4974
45.6609 12.3129
45.8546 12.1613
46.0484 11.9744
46.2424 11.8002
46.4365 11.6613
46.631 11.4199
46.8254 11.2828
47.0199 11.0698
47.2146 10.9443
47.4095 10.7871
47.6044 10.6562
47.7996 10.459
47.9948 10.3006
48.1902 10.1436
48.3858 10.0106
48.5815 9.92875
48.7774 9.73214
48.9734 9.62916
49.1696 9.4812
49.3661 9.28825
49.5626 9.1807
49.7592 9.03113
49.956 8.91241
50.153 8.76634
50.3501 8.6071
50.5474 8.49909
50.7448 8.40339
50.9424 8.25673
51.1402 8.12192
51.3381 7.95037
51.5362 7.85761
51.7344 7.69362
51.9328 7.58956
52.1316 7.43414
52.3304 7.34673
52.5293 7.23935
52.7284 7.1018
52.9276 6.95121
53.1271 6.87758
53.3267 6.75635
53.5265 6.63372
53.7264 6.52185
53.9266 6.42379
54.1269 6.31117
54.3274 6.17338
54.528 6.01712
54.7289 5.81171
54.9301 5.706
55.1314 5.56541
55.3328 5.31936
55.5344 5.11836
55.7361 5.03211

File: Ni3Fe_FD0289.xy
TT I
1.27165 8.09874
1.45013 6.84174
1.62863 6.20409
1.80712 5.20248
1.98562 4.97433
2.16411 5.09831
2.34263 5.44226
2.52115 5.84593
2.69965 7.18034
2.87818 8.81286
3.05672 10.8187
3.23527 15.1553
3.4138 19.7755
3.59237 24.8468
3.77094 27.0281
3.9495 30.8225
4.12809 35.9665
4.30669 267.285
4.4853 71.9098
4.6639 56.9423
4.84253 69.7328
5.02118 91.62
5.19981 509.56
5.37848 258.99
5.55716 108.403
5.73586 97.2802
5.91455 101.67
6.09328 3703.2
6.27201 90.342
6.45075 70.7055
6.62952 65.8905
6.8083 61.6149
6.98711 58.511
7.16591 58.0202
7.34475 103.728
7.5236 57.0065
7.70247 58.5369
7.88135 60.4394
8.06026 65.1011
8.23919 72.6853
8.41812 90.0303
8.59709 1025.62
8.77609 108.865
8.9551 97.5881
9.13412 85.3958
9.31318 85.9198
9.49226 87.7649
9.67134 105.11
9.85047 104.557
10.0296 393.643
10.2088 596.951
10.388 111.21
10.5672 457.27
10.7465 91.8393
10.9257 82.2495
11.105 75.0739
11.2844 74.0396
11.4637 67.6421
11.6431 66.2304
11.8225 65.2604
12.002 66.5956
12.1814 138.598
12.3609 76.5971
12.5405 67.4395
12.72 73.9097
12.8996 74.0341
13.0792 82.4063
13.2589 216.246
13.4386 148.231
13.6183 218.684
13.7981 112.741
13.9779 79.2284
14.1577 75.5664
14.3376 75.2713
14.5175 71.5275
14.6974 73.3798
14.8774 111.208
15.0574 173.022
15.2374 74.9866
15.4175 69.2514
15.5976 68.4706
15.7778 96.78
15.958 176.552
16.1382 66.2651
16.3185 61.5955
16.4988 58.0846
16.6792 56.7854
16.8596 57.7997
17.04 58.2259
17.2205 67.5784
17.401 77.4314
17.5815 61.6147
17.7622 63.7261
17.9428 77.9436
18.1237 137.256
18.3044 89.4756
18.4852 85.2386
18.666 63.0332
18.8469 60.577
19.0278 59.404
19.2088 62.2327
19.3898 78.211
19.5709 56.9268
19.752 55.3872
19.9332 58.6486
20.1144 71.5674
20.2957 64.247
20.477 57.2263
20.6586 51.8249
20.84 50.8624
21.0215 50.8473
21.203 52.5287
21.3846 51.2007
21.5662 50.764
21.7479 54.2784
21.9297 66.6601
22.1115 57.6729
22.2933 52.2788
22.4753 50.9755
22.6572 50.9583
22.8393 53.1716
23.0214 59.9199
23.2037 50.8844
23.3859 51.6663
23.5682 57.6932
23.7505 51.2587
23.9329 47.1135
24.1154 45.9535
24.2979 45.1378
24.4805 44.5059
24.6631 44.6184
24.8458 43.8617
25.0286 44.5013
25.2114 46.1493
25.3943 46.5032
25.5773 42.5657
25.7605 42.1299
25.9436 42.4176
26.1268 43.247
26.31 41.7521
26.4933 42.1853
26.6767 43.6485
26.8601 42.1078
27.0437 40.4729
27.2272 39.9774
27.4109 39.7998
27.5946 39.8688
27.7784 39.4215
27.9623 39.7607
28.1462 40.3291
28.3304 38.7812
28.5145 37.4612
28.6987 37.0831
28.8829 36.759
29.0673 36.1892
29.2517 35.7001
29.4361 35.4732
29.6207 34.5263
29.8053 34.1545
29.99 34.0195
30.1748 33.6611
30.3597 33.533
30.5447 33.401
30.7297 33.4232
30.915 32.8276
31.1002 32.3466
31.2855 32.1114
31.4708 32.0221
31.6563 31.6369
31.8418 31.2975
32.0275 31.0439
32.2132 30.5658
32.399 30.1123
32.5848 29.6255
32.7708 29.2457
32.9569 29.1657
33.143 28.789
33.3293 28.4553
33.5158 28.1509
33.7022 27.7238
33.8887 27.3851
34.0753 27.064
34.262 26.6403
34.4488 26.3063
34.6357 26.0228
34.8227 25.5972
35.0098 25.4918
35.1969 25.2059
35.3842 24.9225
35.5716 24.7336
35.759 24.4295
35.9468 24.0317
36.1345 23.7473
36.3222 23.645
36.5101 23.2639
36.6981 23.0394
36.8861 22.7281
37.0743 22.36
37.2626 22.105
37.451 21.8139
37.6395 21.7013
37.8281 21.2997
38.0168 20.9465
38.2056 20.775
38.3945 20.461
38.5837 20.2492
38.7728 19.9574
38.9621 19.7245
39.1514 19.4444
39.3409 19.1359
39.5304 18.9411
39.7201 18.7661
39.9099 18.4937
40.0999 18.2964
40.2899 18.0395
40.48 17.7655
40.6703 17.6049
40.8607 17.3797
41.0512 17.1544
41.242 16.9261
41.4327 16.7029
41.6236 16.4793
41.8146 16.2752
42.0057 16.0601
42.1969 15.8511
42.3882 15.5844
42.5797 15.392
42.7713 15.1697
42.963 14.9454
43.1549 14.7935
43.3468 14.587
43.5389 14.3558
43.7312 14.1383
43.9237 14.0196
44.1162 13.7983
44.3088 13.6173
44.5016 13.4041
44.6945 13.2796
44.8875 13.0148
45.0806 12.8072
45.2739 12.6957
45.4673 12.5333
45.6609 12.3371
45.8546 12.154
46.0484 11.9751
46.2424 11.8138
46.4365 11.6772
46.631 11.4433
46.8254 11.3084
47.0199 11.1481
47.2146 10.9833
47.4095 10.8076
47.6044 10.6344
47.7996 10.5099
47.9948 10.3374
48.1902 10.1393
48.3858 10.0377
48.5815 9.91148
48.7774 9.77892
48.9734 9.59157
49.1696 9.48961
49.3661 9.27462
49.5626 9.17522
49.7592 9.0294
49.956 8.8966
50.153 8.76061
50.3501 8.62188
50.5474 8.51575
50.7448 8.37097
50.9424 8.23916
51.1402 8.12678
51.3381 7.97365
51.5362 7.86155
51.7344 7.70971
51.9328 7.60969
52.1316 7.44377
52.3304 7.36952
52.5293 7.22496
52.7284 7.11029
52.9276 7.00922
53.1271 6.89052
53.3267 6.75557
53.5265 6.62388
53.7264 6.52898
53.9266 6.38938
54.1269 6.26137
54.3274 6.13168
54.528 6.0017
54.7289 5.87766
54.9301 5.66748
55.1314 5.5604
55.3328 5.31138
55.5344 5.17682
55.7361 5.02447

File: Ni3Fe_FD0290.xy
TT I
1.27165 7.66911
1.45013 6.2354
1.62863 5.35025
1.80712 4.70193
1.98562 4.89635
2.16411 4.76335
2.34263 4.83157
2.52115 5.75799
2.69965 6.84383
2.87818 8.41653
3.05672 11.3626
3.23527 15.003
3.4138 19.4861
3.59237 25.2235
3.77094 27.0764
3.9495 30.6356
4.12809 35.7086
4.30669 273.587
4.4853 72.1052
4.6639 57.3893
4.84253 69.3556
5.02118 91.5524
5.19981 506.254
5.37848 257.711
5.55716 107.85
5.73586 96.7918
5.91455 101.242
6.09328 3684.25
6.27201 90.124
6.45075 70.71
6.62952 65.7551
6.8083 61.5222
6.98711 58.0802
7.16591 57.9671
7.34475 105.409
7.5236 56.6816
7.70247 58.4821
7.88135 59.9629
8.06026 64.8732
8.23919 72.3054
8.41812 89.7611
8.59709 1013.7
8.77609 108.567
8.9551 97.4154
9.13412 84.8484
9.31318 86.3654
9.49226 87.6523
9.67134 104.794
9.85047 104.462
10.0296 391.16
10.2088 607.116
10.388 110.679
10.5672 455.864
10.7465 91.4397
10.9257 82.3164
11.105 74.8731
11.2844 74.1737
11.4637 67.1971
11.6431 66.2101
11.8225 65.0687
12.002 66.3469
12.1814 137.756
12.3609 76.7431
12.5405 67.3995
12.72 74.076
12.8996 73.7853
13.0792 82.1094
13.2589 215.412
13.4386 149.405
13.6183 217.455
13.7981 113.127
13.9779 78.9145
14.1577 75.7104
14.3376 75.0744
14.5175 71.3242
14.6974 73.38
14.8774 110.575
15.0574 174.929
15.2374 74.6072
15.4175 68.863
15.5976 68.4295
15.7778 96.6904
15.958 177.163
16.1382 66.0912
16.3185 61.358
16.4988 57.6489
16.6792 56.8067
16.8596 57.2766
17.04 58.2265
17.2205 67.5628
17.401 77.3493
17.5815 61.5416
17.7622 63.5237
17.9428 77.8044
18.1237 137.491
18.3044 89.1047
18.4852 85.4456
18.666 63.0362
18.8469 60.5642
19.0278 59.2185
19.2088 62.346
19.3898 78.1853
19.5709 56.7056
19.752 55.3727
19.9332 58.4229
20.1144 71.6182
20.2957 64.3669
20.477 57.1078
20.6586 51.771
20.84 50.8665
21.0215 50.5894
21.203 52.1783
21.3846 51.1624
21.5662 50.5164
21.7479 54.4246
21.9297 66.7126
22.1115 57.5384
22.2933 52.3879
22.4753 50.9126
22.6572 50.8673
22.8393 53.2101
23.0214 60.0259
23.2037 50.8912
23.3859 51.5705
23.5682 57.5688
23.7505 51.0332
23.9329 47.2027
24.1154 46.0367
24.2979 45.1741
24.4805 44.5406
24.6631 44.5913
24.8458 43.8962
25.0286 44.2682
25.2114 46.1169
25.3943 46.4443
25.5773 42.6829
25.7605 42.1618
25.9436 42.1462
26.1268 43.4076
26.31 41.7649
26.4933 42.1599
26.6767 43.643
26.8601 42.1568
27.0437 40.4373
27.2272 39.9686
27.4109 39.8854
27.5946 39.9129
27.7784 39.3102
27.9623 39.5838
28.1462 40.3477
28.3304 38.7931
28.5145 37.3503
28.6987 37.0583
28.8829 36.8194
29.0673 36.0813
29.2517 35.6392
29.4361 35.5195
29.6207 34.3562
29.8053 34.2621
29.99 33.8042
30.1748 33.644
30.3597 33.5773
30.5447 33.3671
30.7297 33.4295
30.915 32.9536
31.1002 32.3193
31.2855 32.0511
31.4708 31.9495
31.6563 31.6367
31.8418 31.1925
32.0275 31.1054
32.2132 30.466
32.399 30.0738
32.5848 29.6235
32.7708 29.2879
32.9569 29.1351
33.143 28.8473
33.3293 28.4148
33.5158 28.1927
33.7022 27.6611
33.8887 27.3175
34.0753 27.0306
34.262 26.5977
34.4488 26.2836
34.6357 25.9518
34.8227 25.5836
35.0098 25.4518
35.1969 25.1249
35.3842 24.9333
35.5716 24.6866
35.759 24.3289
35.9468 23.9713
36.1345 23.7915
36.3222 23.5001
36.5101 23.2894
36.6981 23.0021
36.8861 22.5948
37.0743 22.2782
37.2626 22.0234
37.451 21.8358
37.6395 21.7179
37.8281 21.2897
38.0168 20.9871
38.2056 20.8063
38.3945 20.4842
38.5837 20.2087
38.7728 19.9334
38.9621 19.7057
39.1514 19.4065
39.3409 19.2411
39.5304 18.9704
39.7201 18.8481
39.9099 18.5388
40.0999 18.2668
40.2899 18.0723
40.48 17.8032
40.6703 17.5772
40.8607 17.4379
41.0512 17.1519
41.242 16.8676
41.4327 16.6546
41.6236 16.3953
41.8146 16.2574
42.0057 16.0204
42.1969 15.8514
42.3882 15.5714
42.5797 15.3986
42.7713 15.1624
42.963 14.9838
43.1549 14.7728
43.3468 14.5869
43.5389 14.3719
43.7312 14.1526
43.9237 13.9375
44.1162 13.8271
44.3088 13.622
44.5016 13.4094
44.6945 13.2216
44.8875 13.0227
45.0806 12.8461
45.2739 12.683
45.4673 12.5184
45.6609 12.3256
45.8546 12.1515
46.0484 11.9688
46.2424 11.8232
46.4365 11.653
46.631 11.4295
46.8254 11.2586
47.0199 11.158
47.2146 10.9369
47.4095 10.813
47.6044 10.6211
47.7996 10.4629
47.9948 10.336
48.1902 10.1705
48.3858 10.0312
48.5815 9.8906
48.7774 9.76635
48.9734 9.58522
49.1696 9.46614
49.3661 9.31284
49.5626 9.16162
49.7592 8.99008
49.956 8.8986
50.153 8.76415
50.3501 8.61156
50.5474 8.51954
50.7448 8.36736
50.9424 8.25828
51.1402 8.09458
51.3381 7.9827
51.5362 7.85347
51.7344 7.72772
51.9328 7.6002
52.1316 7.47032
52.3304 7.34275
52.5293 7.21364
52.7284 7.09706
52.9276 6.98227
53.1271 6.84094
53.3267 6.76808
53.5265 6.63123
53.7264 6.51182
53.9266 6.39152
54.1269 6.29577
54.3274 6.19787
54.528 6.01144
54.7289 5.85874
54.9301 5.62537
55.1314 5.54959
55.3328 5.28762
55.5344 5.14138
55.7361 4.98722