Folder: NiFe_MOF_catalyst_paper/XRD (part 108)

File: Ni3Fe_FD0585.xy
TT I
1.27165 6.90888
1.45013 6.07035
1.62863 5.30859
1.80712 5.15257
1.98562 4.27399
2.16411 4.52819
2.34263 5.42367
2.52115 6.9739
2.69965 8.10225
2.87818 8.8987
3.05672 11.4452
3.23527 14.6733
3.4138 18.958
3.59237 23.0177
3.77094 25.9048
3.9495 29.7141
4.12809 34.0933
4.30669 117.41
4.4853 55.411
4.6639 56.0938
4.84253 69.0603
5.02118 88.1882
5.19981 476.516
5.37848 200.651
5.55716 103.814
5.73586 94.0252
5.91455 96.994
6.09328 4415.01
6.27201 82.0254
6.45075 68.9485
6.62952 62.9612
6.8083 59.2031
6.98711 55.6437
7.16591 55.9697
7.34475 71.232
7.5236 54.4873
7.70247 56.675
7.88135 58.1549
8.06026 63.1952
8.23919 69.7092
8.41812 85.7256
8.59709 1259.36
8.77609 99.6936
8.9551 90.0312
9.13412 83.2238
9.31318 84.9231
9.49226 85.8315
9.67134 95.9491
9.85047 101.618
10.0296 381.437
10.2088 370.917
10.388 106.966
10.5672 519.602
10.7465 87.103
10.9257 78.1206
11.105 71.6708
11.2844 69.1479
11.4637 65.2203
11.6431 63.8089
11.8225 62.9816
12.002 65.1666
12.1814 156.309
12.3609 67.9583
12.5405 65.2797
12.72 68.8154
12.8996 71.7492
13.0792 81.0785
13.2589 253.034
13.4386 121.473
13.6183 254.201
13.7981 96.466
13.9779 76.2302
14.1577 72.3219
14.3376 71.0413
14.5175 69.4173
14.6974 71.3731
14.8774 116.559
15.0574 143.058
15.2374 70.1281
15.4175 66.8896
15.5976 66.7553
15.7778 99.209
15.958 149.619
16.1382 61.9199
16.3185 58.5121
16.4988 55.6586
16.6792 54.9638
16.8596 55.3529
17.04 56.5984
17.2205 67.9988
17.401 70.6507
17.5815 59.8299
17.7622 61.7764
17.9428 75.6303
18.1237 142.049
18.3044 91.8722
18.4852 76.736
18.666 60.808
18.8469 58.4086
19.0278 57.2705
19.2088 60.0563
19.3898 76.1887
19.5709 54.4683
19.752 53.8523
19.9332 57.0773
20.1144 70.1123
20.2957 64.1899
20.477 53.6185
20.6586 50.0424
20.84 48.9367
21.0215 48.8053
21.203 51.3239
21.3846 49.1683
21.5662 49.4768
21.7479 53.6315
21.9297 65.0236
22.1115 56.388
22.2933 50.0856
22.4753 49.0547
22.6572 49.25
22.8393 52.5765
23.0214 57.4541
23.2037 49.0763
23.3859 50.3644
23.5682 57.1953
23.7505 48.2818
23.9329 45.3556
24.1154 44.2986
24.2979 43.8494
24.4805 43.2048
24.6631 43.187
24.8458 42.4936
25.0286 43.1723
25.2114 45.0477
25.3943 44.8962
25.5773 41.0816
25.7605 40.6641
25.9436 41.0273
26.1268 41.9965
26.31 40.2195
26.4933 41.176
26.6767 42.3615
26.8601 40.6055
27.0437 39.1189
27.2272 38.6653
27.4109 38.8192
27.5946 38.6488
27.7784 38.2086
27.9623 38.6852
28.1462 38.9423
28.3304 37.3984
28.5145 36.1754
28.6987 35.7592
28.8829 35.629
29.0673 34.7932
29.2517 34.5022
29.4361 34.2407
29.6207 33.3244
29.8053 33.0769
29.99 32.7665
30.1748 32.7158
30.3597 32.3596
30.5447 32.477
30.7297 32.3848
30.915 31.8888
31.1002 31.322
31.2855 31.0138
31.4708 31.0457
31.6563 30.5343
31.8418 30.4777
32.0275 30.1048
32.2132 29.6019
32.399 29.1397
32.5848 28.6623
32.7708 28.2742
32.9569 28.2274
33.143 27.9124
33.3293 27.5498
33.5158 27.1604
33.7022 26.8012
33.8887 26.467
34.0753 26.2049
34.262 25.8151
34.4488 25.4128
34.6357 25.1181
34.8227 24.8434
35.0098 24.5606
35.1969 24.3284
35.3842 24.0917
35.5716 23.8875
35.759 23.5406
35.9468 23.2118
36.1345 23.066
36.3222 22.8111
36.5101 22.543
36.6981 22.2383
36.8861 21.9306
37.0743 21.6128
37.2626 21.4093
37.451 21.0694
37.6395 20.8969
37.8281 20.5628
38.0168 20.3329
38.2056 20.0492
38.3945 19.7417
38.5837 19.5682
38.7728 19.3014
38.9621 19.0183
39.1514 18.8496
39.3409 18.5404
39.5304 18.3537
39.7201 18.1119
39.9099 17.9452
40.0999 17.7118
40.2899 17.4292
40.48 17.212
40.6703 16.9962
40.8607 16.792
41.0512 16.6359
41.242 16.3693
41.4327 16.1162
41.6236 15.9225
41.8146 15.747
42.0057 15.5102
42.1969 15.2864
42.3882 15.0867
42.5797 14.8685
42.7713 14.723
42.963 14.5434
43.1549 14.3036
43.3468 14.1217
43.5389 13.906
43.7312 13.691
43.9237 13.5485
44.1162 13.3324
44.3088 13.1662
44.5016 12.993
44.6945 12.8204
44.8875 12.5851
45.0806 12.4117
45.2739 12.261
45.4673 12.1032
45.6609 11.902
45.8546 11.7472
46.0484 11.6118
46.2424 11.4216
46.4365 11.2849
46.631 11.0975
46.8254 10.8881
47.0199 10.7516
47.2146 10.6203
47.4095 10.4242
47.6044 10.326
47.7996 10.138
47.9948 9.99396
48.1902 9.82464
48.3858 9.70546
48.5815 9.55364
48.7774 9.4279
48.9734 9.30006
49.1696 9.14613
49.3661 9.00988
49.5626 8.83195
49.7592 8.69332
49.956 8.60213
50.153 8.48773
50.3501 8.3233
50.5474 8.2225
50.7448 8.09895
50.9424 7.93282
51.1402 7.84525
51.3381 7.67225
51.5362 7.61402
51.7344 7.45015
51.9328 7.34011
52.1316 7.19181
52.3304 7.14034
52.5293 6.98318
52.7284 6.87974
52.9276 6.75861
53.1271 6.67728
53.3267 6.5294
53.5265 6.45795
53.7264 6.31033
53.9266 6.19191
54.1269 6.08158
54.3274 5.96782
54.528 5.85652
54.7289 5.6639
54.9301 5.52785
55.1314 5.37114
55.3328 5.18938
55.5344 4.98426
55.7361 4.80827

File: Ni3Fe_FD0586.xy
TT I
1.27165 7.46706
1.45013 6.2283
1.62863 5.23392
1.80712 5.09418
1.98562 4.69684
2.16411 4.80608
2.34263 5.391
2.52115 6.89583
2.69965 8.11415
2.87818 8.92011
3.05672 11.025
3.23527 15.0417
3.4138 18.683
3.59237 23.1466
3.77094 25.8238
3.9495 29.4062
4.12809 34.4809
4.30669 116.811
4.4853 55.7971
4.6639 55.7568
4.84253 68.8888
5.02118 88.8088
5.19981 477.493
5.37848 200.75
5.55716 103.763
5.73586 93.5916
5.91455 97.1629
6.09328 4415.22
6.27201 82.4429
6.45075 68.947
6.62952 63.0263
6.8083 59.3255
6.98711 56.0474
7.16591 55.7832
7.34475 70.8403
7.5236 54.75
7.70247 56.9764
7.88135 58.4101
8.06026 62.9516
8.23919 69.9835
8.41812 85.1954
8.59709 1249.81
8.77609 100.004
8.9551 89.8329
9.13412 83.2493
9.31318 84.6318
9.49226 85.9694
9.67134 95.8051
9.85047 102.136
10.0296 382.861
10.2088 367.129
10.388 107.068
10.5672 518.226
10.7465 87.3983
10.9257 78.1424
11.105 71.6514
11.2844 69.0732
11.4637 65.6662
11.6431 63.5003
11.8225 63.1744
12.002 64.9492
12.1814 156.04
12.3609 67.8301
12.5405 65.1977
12.72 68.6504
12.8996 72.1471
13.0792 81.4999
13.2589 254.146
13.4386 121.233
13.6183 255.917
13.7981 96.6387
13.9779 76.3281
14.1577 72.6381
14.3376 70.904
14.5175 69.5139
14.6974 71.3273
14.8774 116.63
15.0574 144.209
15.2374 70.1264
15.4175 66.9556
15.5976 66.4087
15.7778 99.419
15.958 150.024
16.1382 61.9934
16.3185 58.2449
16.4988 55.8789
16.6792 54.8209
16.8596 55.3261
17.04 56.7616
17.2205 68.0777
17.401 70.8738
17.5815 59.75
17.7622 61.9524
17.9428 75.4519
18.1237 141.963
18.3044 92.2525
18.4852 76.494
18.666 60.8564
18.8469 58.6061
19.0278 57.0478
19.2088 60.1951
19.3898 76.0515
19.5709 54.4705
19.752 53.8259
19.9332 56.9298
20.1144 70.2275
20.2957 64.1804
20.477 53.5739
20.6586 49.8758
20.84 49.0006
21.0215 49.0973
21.203 51.1117
21.3846 49.2708
21.5662 49.4789
21.7479 53.335
21.9297 65.0716
22.1115 56.5156
22.2933 49.979
22.4753 49.0444
22.6572 49.3836
22.8393 52.6804
23.0214 57.611
23.2037 49.2248
23.3859 50.3687
23.5682 57.2725
23.7505 48.2534
23.9329 45.5273
24.1154 44.3172
24.2979 43.6521
24.4805 43.2331
24.6631 42.9782
24.8458 42.5324
25.0286 43.1829
25.2114 44.9954
25.3943 44.8317
25.5773 41.1671
25.7605 40.6268
25.9436 41.2208
26.1268 42.0398
26.31 40.4818
26.4933 41.0507
26.6767 42.4306
26.8601 40.6021
27.0437 39.1529
27.2272 38.7956
27.4109 38.7117
27.5946 38.7071
27.7784 38.1079
27.9623 38.6572
28.1462 38.9662
28.3304 37.3734
28.5145 36.2538
28.6987 35.7477
28.8829 35.6136
29.0673 34.7251
29.2517 34.5457
29.4361 34.3583
29.6207 33.267
29.8053 33.1333
29.99 32.7483
30.1748 32.7046
30.3597 32.4774
30.5447 32.4122
30.7297 32.3041
30.915 31.7713
31.1002 31.3699
31.2855 31.0409
31.4708 31.0062
31.6563 30.5355
31.8418 30.3047
32.0275 30.1193
32.2132 29.5671
32.399 29.1493
32.5848 28.6738
32.7708 28.3075
32.9569 28.2168
33.143 27.9671
33.3293 27.6054
33.5158 27.1726
33.7022 26.8498
33.8887 26.5228
34.0753 26.1587
34.262 25.7807
34.4488 25.4303
34.6357 25.1352
34.8227 24.8594
35.0098 24.6803
35.1969 24.3355
35.3842 24.1308
35.5716 23.9278
35.759 23.6657
35.9468 23.2284
36.1345 23.1243
36.3222 22.819
36.5101 22.642
36.6981 22.2708
36.8861 21.9077
37.0743 21.5608
37.2626 21.3774
37.451 21.0977
37.6395 21.0278
37.8281 20.6044
38.0168 20.2851
38.2056 20.1072
38.3945 19.8222
38.5837 19.5462
38.7728 19.3332
38.9621 19.0639
39.1514 18.7659
39.3409 18.5867
39.5304 18.3811
39.7201 18.1453
39.9099 17.9182
40.0999 17.6688
40.2899 17.4874
40.48 17.2095
40.6703 16.9983
40.8607 16.8149
41.0512 16.6403
41.242 16.3707
41.4327 16.148
41.6236 15.9479
41.8146 15.7634
42.0057 15.4967
42.1969 15.2789
42.3882 15.1176
42.5797 14.8839
42.7713 14.7012
42.963 14.4761
43.1549 14.3239
43.3468 14.0729
43.5389 13.9165
43.7312 13.6963
43.9237 13.5202
44.1162 13.3375
44.3088 13.1591
44.5016 12.9459
44.6945 12.8011
44.8875 12.6401
45.0806 12.411
45.2739 12.2364
45.4673 12.1115
45.6609 11.909
45.8546 11.7303
46.0484 11.6343
46.2424 11.4478
46.4365 11.2398
46.631 11.0751
46.8254 10.9235
47.0199 10.7291
47.2146 10.5543
47.4095 10.4361
47.6044 10.2622
47.7996 10.1255
47.9948 9.98139
48.1902 9.83722
48.3858 9.71306
48.5815 9.56765
48.7774 9.43468
48.9734 9.30229
49.1696 9.16265
49.3661 8.98161
49.5626 8.86969
49.7592 8.74153
49.956 8.60039
50.153 8.47421
50.3501 8.33927
50.5474 8.20595
50.7448 8.09204
50.9424 7.98523
51.1402 7.8507
51.3381 7.72532
51.5362 7.60716
51.7344 7.49048
51.9328 7.32237
52.1316 7.20888
52.3304 7.14233
52.5293 6.99266
52.7284 6.89269
52.9276 6.75644
53.1271 6.65077
53.3267 6.51991
53.5265 6.37321
53.7264 6.29261
53.9266 6.20026
54.1269 6.07047
54.3274 5.98164
54.528 5.80795
54.7289 5.68008
54.9301 5.5554
55.1314 5.40939
55.3328 5.18597
55.5344 5.00049
55.7361 4.8716

File: Ni3Fe_FD0587.xy
TT I
1.27165 7.01862
1.45013 5.63152
1.62863 5.01837
1.80712 4.71778
1.98562 4.59535
2.16411 4.49867
2.34263 5.52033
2.52115 7.11378
2.69965 8.0752
2.87818 8.5963
3.05672 11.2685
3.23527 15.1132
3.4138 19.0623
3.59237 23.2158
3.77094 25.6299
3.9495 29.9069
4.12809 34.4067
4.30669 115.367
4.4853 55.4806
4.6639 56.3449
4.84253 68.8708
5.02118 89.1205
5.19981 478.83
5.37848 201.217
5.55716 103.363
5.73586 93.5918
5.91455 97.662
6.09328 4392.59
6.27201 82.3042
6.45075 68.6706
6.62952 62.9848
6.8083 59.1258
6.98711 56.0912
7.16591 56.142
7.34475 70.4418
7.5236 54.5866
7.70247 56.4884
7.88135 58.1537
8.06026 62.6975
8.23919 70.1254
8.41812 85.1563
8.59709 1244.03
8.77609 99.5539
8.9551 89.7588
9.13412 83.2324
9.31318 84.7956
9.49226 85.8503
9.67134 95.8639
9.85047 101.751
10.0296 382.503
10.2088 367.182
10.388 107.031
10.5672 518.399
10.7465 86.8952
10.9257 78.5294
11.105 71.845
11.2844 69.0042
11.4637 65.2966
11.6431 63.7918
11.8225 62.8241
12.002 65.1714
12.1814 156.163
12.3609 67.8122
12.5405 65.3164
12.72 68.6173
12.8996 71.9298
13.0792 81.3433
13.2589 253.892
13.4386 121.611
13.6183 256.216
13.7981 96.7345
13.9779 76.6327
14.1577 72.4847
14.3376 71.0396
14.5175 69.5601
14.6974 71.3553
14.8774 116.427
15.0574 144.934
15.2374 70.42
15.4175 66.9926
15.5976 66.6569
15.7778 99.4346
15.958 150.286
16.1382 61.9332
16.3185 58.3774
16.4988 55.6582
16.6792 54.8524
16.8596 55.3756
17.04 56.6441
17.2205 68.0202
17.401 70.7472
17.5815 59.6683
17.7622 61.9802
17.9428 75.668
18.1237 141.895
18.3044 92.2144
18.4852 76.5539
18.666 60.7054
18.8469 58.2984
19.0278 57.375
19.2088 59.9984
19.3898 76.1287
19.5709 54.5041
19.752 53.8319
19.9332 56.9129
20.1144 70.2642
20.2957 64.0786
20.477 53.4778
20.6586 49.876
20.84 49.2341
21.0215 48.8557
21.203 51.2458
21.3846 49.2025
21.5662 49.4968
21.7479 53.438
21.9297 65.0501
22.1115 56.4002
22.2933 50.0464
22.4753 49.0785
22.6572 49.3619
22.8393 52.8651
23.0214 57.4533
23.2037 49.1498
23.3859 50.4669
23.5682 57.3015
23.7505 48.2663
23.9329 45.586
24.1154 44.3679
24.2979 43.6358
24.4805 43.2833
24.6631 43.0292
24.8458 42.5942
25.0286 43.3387
25.2114 45.0365
25.3943 44.7724
25.5773 41.1047
25.7605 40.541
25.9436 41.1405
26.1268 41.9708
26.31 40.3719
26.4933 41.114
26.6767 42.5367
26.8601 40.7299
27.0437 39.0754
27.2272 38.8546
27.4109 38.6809
27.5946 38.8533
27.7784 38.2049
27.9623 38.826
28.1462 39.0845
28.3304 37.2676
28.5145 36.1418
28.6987 35.8699
28.8829 35.6414
29.0673 34.9594
29.2517 34.5794
29.4361 34.2862
29.6207 33.3717
29.8053 33.1535
29.99 32.7828
30.1748 32.6425
30.3597 32.5129
30.5447 32.3925
30.7297 32.4765
30.915 31.8072
31.1002 31.2492
31.2855 31.1056
31.4708 31.0571
31.6563 30.4663
31.8418 30.4495
32.0275 30.1666
32.2132 29.5543
32.399 29.1324
32.5848 28.6833
32.7708 28.3803
32.9569 28.2293
33.143 27.9923
33.3293 27.5627
33.5158 27.2303
33.7022 26.7612
33.8887 26.4677
34.0753 26.1817
34.262 25.8216
34.4488 25.5422
34.6357 25.1284
34.8227 24.8955
35.0098 24.7815
35.1969 24.3874
35.3842 24.1565
35.5716 23.9479
35.759 23.5715
35.9468 23.3425
36.1345 23.0835
36.3222 22.7995
36.5101 22.6389
36.6981 22.3001
36.8861 22.0269
37.0743 21.6819
37.2626 21.4065
37.451 21.1269
37.6395 21.0657
37.8281 20.6546
38.0168 20.3091
38.2056 20.1144
38.3945 19.8406
38.5837 19.5588
38.7728 19.3508
38.9621 19.0951
39.1514 18.8728
39.3409 18.5801
39.5304 18.3801
39.7201 18.1688
39.9099 17.9481
40.0999 17.6572
40.2899 17.4762
40.48 17.2213
40.6703 17.0865
40.8607 16.8416
41.0512 16.6152
41.242 16.3278
41.4327 16.1636
41.6236 15.9427
41.8146 15.7557
42.0057 15.5193
42.1969 15.2821
42.3882 15.1226
42.5797 14.9254
42.7713 14.7085
42.963 14.5192
43.1549 14.3496
43.3468 14.0393
43.5389 13.8938
43.7312 13.7273
43.9237 13.551
44.1162 13.3433
44.3088 13.1928
44.5016 12.9902
44.6945 12.8306
44.8875 12.6136
45.0806 12.4519
45.2739 12.2604
45.4673 12.1293
45.6609 11.9241
45.8546 11.7995
46.0484 11.5958
46.2424 11.4207
46.4365 11.2691
46.631 11.1054
46.8254 10.9112
47.0199 10.7753
47.2146 10.6191
47.4095 10.4295
47.6044 10.3016
47.7996 10.142
47.9948 9.98318
48.1902 9.81699
48.3858 9.71349
48.5815 9.58169
48.7774 9.47711
48.9734 9.33389
49.1696 9.16905
49.3661 9.02617
49.5626 8.89332
49.7592 8.70072
49.956 8.61544
50.153 8.48003
50.3501 8.36826
50.5474 8.26825
50.7448 8.08533
50.9424 7.9729
51.1402 7.88046
51.3381 7.69124
51.5362 7.61132
51.7344 7.49413
51.9328 7.32511
52.1316 7.20615
52.3304 7.12329
52.5293 6.99695
52.7284 6.85888
52.9276 6.77889
53.1271 6.68374
53.3267 6.56125
53.5265 6.41305
53.7264 6.33793
53.9266 6.19574
54.1269 6.06454
54.3274 6.04383
54.528 5.85496
54.7289 5.71845
54.9301 5.50998
55.1314 5.36775
55.3328 5.18061
55.5344 4.99842
55.7361 4.87924

File: Ni3Fe_FD0588.xy
TT I
1.27165 7.5979
1.45013 6.37947
1.62863 5.63444
1.80712 5.26346
1.98562 4.81821
2.16411 4.87886
2.34263 5.40993
2.52115 6.57565
2.69965 7.81616
2.87818 8.5742
3.05672 11.0405
3.23527 15.2384
3.4138 18.9168
3.59237 23.1059
3.77094 25.8747
3.9495 29.589
4.12809 34.4128
4.30669 114.109
4.4853 55.9153
4.6639 56.0274
4.84253 68.9649
5.02118 88.4609
5.19981 479.966
5.37848 202.133
5.55716 103.823
5.73586 94.1508
5.91455 97.7379
6.09328 4411.66
6.27201 82.0263
6.45075 69.0566
6.62952 63.2528
6.8083 59.2512
6.98711 56.2531
7.16591 55.9457
7.34475 70.4524
7.5236 54.6509
7.70247 57.0322
7.88135 57.8834
8.06026 62.9427
8.23919 69.7632
8.41812 85.5653
8.59709 1255.47
8.77609 100.034
8.9551 89.3558
9.13412 83.3556
9.31318 84.5313
9.49226 85.7259
9.67134 95.7187
9.85047 102.034
10.0296 382.692
10.2088 370.537
10.388 106.953
10.5672 516.509
10.7465 87.0699
10.9257 78.5493
11.105 72.1531
11.2844 69.2404
11.4637 64.9587
11.6431 63.8413
11.8225 62.8746
12.002 64.9143
12.1814 156.053
12.3609 67.6974
12.5405 65.0908
12.72 68.6737
12.8996 71.8805
13.0792 81.5224
13.2589 254.073
13.4386 121.44
13.6183 255.218
13.7981 96.883
13.9779 76.3492
14.1577 72.5238
14.3376 71.0886
14.5175 69.34
14.6974 71.455
14.8774 116.464
15.0574 143.672
15.2374 70.3866
15.4175 66.9673
15.5976 66.5794
15.7778 99.3182
15.958 149.857
16.1382 62.0972
16.3185 58.3562
16.4988 55.7717
16.6792 54.8408
16.8596 55.6439
17.04 56.746
17.2205 67.9197
17.401 70.9382
17.5815 59.7943
17.7622 61.9865
17.9428 75.7663
18.1237 141.812
18.3044 92.2701
18.4852 76.5141
18.666 60.7817
18.8469 58.3835
19.0278 57.3722
19.2088 60.1202
19.3898 75.8964
19.5709 54.7112
19.752 53.7495
19.9332 57.0596
20.1144 70.1402
20.2957 64.3306
20.477 53.5517
20.6586 49.9426
20.84 49.1447
21.0215 49.0148
21.203 51.2659
21.3846 49.4432
21.5662 49.518
21.7479 53.409
21.9297 64.9982
22.1115 56.3034
22.2933 49.9372
22.4753 49.0201
22.6572 49.4182
22.8393 52.6782
23.0214 57.4526
23.2037 49.1881
23.3859 50.4995
23.5682 57.2325
23.7505 48.3107
23.9329 45.3831
24.1154 44.3602
24.2979 43.6793
24.4805 43.183
24.6631 43.017
24.8458 42.4097
25.0286 43.2271
25.2114 44.9045
25.3943 44.9286
25.5773 41.2241
25.7605 40.8815
25.9436 41.1859
26.1268 41.8883
26.31 40.4177
26.4933 41.1504
26.6767 42.4663
26.8601 40.7562
27.0437 39.0511
27.2272 38.8159
27.4109 38.6583
27.5946 38.7235
27.7784 38.0643
27.9623 38.7003
28.1462 38.9829
28.3304 37.3435
28.5145 36.0908
28.6987 35.7669
28.8829 35.6332
29.0673 34.7805
29.2517 34.5353
29.4361 34.3943
29.6207 33.3506
29.8053 33.0974
29.99 32.7791
30.1748 32.6129
30.3597 32.4258
30.5447 32.3965
30.7297 32.3876
30.915 31.8148
31.1002 31.2674
31.2855 31.1022
31.4708 31.0213
31.6563 30.5123
31.8418 30.3029
32.0275 30.0055
32.2132 29.5032
32.399 29.0906
32.5848 28.6806
32.7708 28.3889
32.9569 28.2604
33.143 27.9801
33.3293 27.5679
33.5158 27.2017
33.7022 26.847
33.8887 26.4596
34.0753 26.2398
34.262 25.8358
34.4488 25.4648
34.6357 25.1121
34.8227 24.8064
35.0098 24.6223
35.1969 24.3991
35.3842 24.0883
35.5716 23.8831
35.759 23.5992
35.9468 23.2995
36.1345 23.0357
36.3222 22.8122
36.5101 22.5287
36.6981 22.2342
36.8861 21.9552
37.0743 21.6315
37.2626 21.4144
37.451 21.0947
37.6395 21.0102
37.8281 20.6138
38.0168 20.3396
38.2056 20.0987
38.3945 19.7786
38.5837 19.575
38.7728 19.3376
38.9621 19.1179
39.1514 18.8438
39.3409 18.5736
39.5304 18.3177
39.7201 18.151
39.9099 17.9092
40.0999 17.6727
40.2899 17.4866
40.48 17.2129
40.6703 17.0342
40.8607 16.8711
41.0512 16.6203
41.242 16.3725
41.4327 16.1558
41.6236 15.9203
41.8146 15.8037
42.0057 15.487
42.1969 15.3123
42.3882 15.1198
42.5797 14.8931
42.7713 14.683
42.963 14.4691
43.1549 14.2899
43.3468 14.0706
43.5389 13.8826
43.7312 13.6587
43.9237 13.5124
44.1162 13.2947
44.3088 13.1268
44.5016 12.9824
44.6945 12.8079
44.8875 12.6499
45.0806 12.4561
45.2739 12.2009
45.4673 12.1059
45.6609 11.9006
45.8546 11.7385
46.0484 11.6159
46.2424 11.4138
46.4365 11.2853
46.631 11.125
46.8254 10.9225
47.0199 10.7584
47.2146 10.591
47.4095 10.4408
47.6044 10.2974
47.7996 10.1761
47.9948 10.0133
48.1902 9.83095
48.3858 9.71616
48.5815 9.6014
48.7774 9.42959
48.9734 9.33667
49.1696 9.11204
49.3661 9.00453
49.5626 8.86231
49.7592 8.74979
49.956 8.62964
50.153 8.49478
50.3501 8.39083
50.5474 8.19722
50.7448 8.07752
50.9424 7.97267
51.1402 7.86257
51.3381 7.70536
51.5362 7.59515
51.7344 7.45797
51.9328 7.32921
52.1316 7.20865
52.3304 7.09547
52.5293 7.02488
52.7284 6.89197
52.9276 6.76077
53.1271 6.65934
53.3267 6.52206
53.5265 6.41341
53.7264 6.32127
53.9266 6.18812
54.1269 6.08004
54.3274 5.95826
54.528 5.83385
54.7289 5.68285
54.9301 5.53366
55.1314 5.36514
55.3328 5.15571
55.5344 5.0226
55.7361 4.84453

File: Ni3Fe_FD0589.xy
TT I
1.27165 7.87568
1.45013 6.75729
1.62863 5.88362
1.80712 4.99223
1.98562 4.52235
2.16411 4.73075
2.34263 4.56083
2.52115 7.14607
2.69965 7.88484
2.87818 8.35668
3.05672 10.9829
3.23527 14.6558
3.4138 18.5208
3.59237 22.9803
3.77094 25.985
3.9495 29.927
4.12809 34.8482
4.30669 112.482
4.4853 55.6998
4.6639 55.8419
4.84253 68.8883
5.02118 88.4933
5.19981 481.497
5.37848 202.677
5.55716 103.413
5.73586 94.1484
5.91455 97.8563
6.09328 4389.95
6.27201 82.2335
6.45075 69.5163
6.62952 62.8613
6.8083 59.5608
6.98711 55.7979
7.16591 56.3729
7.34475 70.2638
7.5236 54.8522
7.70247 56.8064
7.88135 57.9307
8.06026 62.8711
8.23919 70.1676
8.41812 85.1293
8.59709 1261.83
8.77609 99.9249
8.9551 89.9586
9.13412 83.4806
9.31318 84.9438
9.49226 85.7328
9.67134 95.7206
9.85047 102.004
10.0296 382.983
10.2088 369.22
10.388 107.218
10.5672 517.215
10.7465 86.6437
10.9257 78.451
11.105 72.0977
11.2844 69.1049
11.4637 64.9964
11.6431 63.8882
11.8225 63.1891
12.002 65.3912
12.1814 156.666
12.3609 67.5486
12.5405 65.1174
12.72 68.5444
12.8996 71.9789
13.0792 81.6859
13.2589 253.805
13.4386 121.569
13.6183 255.459
13.7981 96.6105
13.9779 76.5112
14.1577 72.58
14.3376 70.8458
14.5175 69.5148
14.6974 71.5597
14.8774 116.601
15.0574 143.299
15.2374 70.0381
15.4175 67.0049
15.5976 66.8912
15.7778 99.2863
15.958 149.298
16.1382 61.8645
16.3185 58.2329
16.4988 55.8094
16.6792 54.8875
16.8596 55.221
17.04 56.7077
17.2205 67.9692
17.401 70.9188
17.5815 59.7231
17.7622 62.1489
17.9428 75.8782
18.1237 141.681
18.3044 92.4253
18.4852 76.667
18.666 60.8777
18.8469 58.5736
19.0278 57.3871
19.2088 60.0956
19.3898 75.9521
19.5709 54.6279
19.752 53.763
19.9332 57.0098
20.1144 70.2263
20.2957 64.3329
20.477 53.4168
20.6586 49.9971
20.84 49.1234
21.0215 48.9327
21.203 51.1904
21.3846 49.1264
21.5662 49.3774
21.7479 53.4422
21.9297 65.088
22.1115 56.3826
22.2933 50.1082
22.4753 49.0721
22.6572 49.3285
22.8393 52.6234
23.0214 57.3413
23.2037 49.0959
23.3859 50.2077
23.5682 57.2818
23.7505 48.3079
23.9329 45.5706
24.1154 44.4534
24.2979 43.7825
24.4805 43.0376
24.6631 43.1881
24.8458 42.5691
25.0286 43.1795
25.2114 45.1561
25.3943 44.6893
25.5773 41.1364
25.7605 40.7447
25.9436 41.2137
26.1268 41.9377
26.31 40.4979
26.4933 41.1089
26.6767 42.4759
26.8601 40.6228
27.0437 39.1053
27.2272 38.8311
27.4109 38.6318
27.5946 38.6019
27.7784 38.1365
27.9623 38.7657
28.1462 38.95
28.3304 37.2866
28.5145 36.2239
28.6987 35.8965
28.8829 35.6267
29.0673 34.8399
29.2517 34.5648
29.4361 34.3567
29.6207 33.3538
29.8053 33.1206
29.99 32.8322
30.1748 32.6694
30.3597 32.3957
30.5447 32.3491
30.7297 32.3888
30.915 31.8023
31.1002 31.3229
31.2855 30.9921
31.4708 31.0178
31.6563 30.5067
31.8418 30.3713
32.0275 30.1063
32.2132 29.5859
32.399 29.1143
32.5848 28.6976
32.7708 28.2862
32.9569 28.1569
33.143 27.988
33.3293 27.6404
33.5158 27.2085
33.7022 26.6987
33.8887 26.4208
34.0753 26.1357
34.262 25.8015
34.4488 25.4206
34.6357 25.1025
34.8227 24.8528
35.0098 24.616
35.1969 24.3186
35.3842 24.1447
35.5716 23.8574
35.759 23.6341
35.9468 23.3144
36.1345 22.9795
36.3222 22.8019
36.5101 22.5585
36.6981 22.2269
36.8861 21.963
37.0743 21.5858
37.2626 21.3705
37.451 21.0985
37.6395 20.9874
37.8281 20.5951
38.0168 20.3564
38.2056 20.0663
38.3945 19.7552
38.5837 19.5842
38.7728 19.3628
38.9621 19.0371
39.1514 18.8176
39.3409 18.5673
39.5304 18.3352
39.7201 18.1703
39.9099 17.9329
40.0999 17.684
40.2899 17.4642
40.48 17.2014
40.6703 16.9943
40.8607 16.8941
41.0512 16.5742
41.242 16.3728
41.4327 16.1645
41.6236 15.9146
41.8146 15.7403
42.0057 15.4991
42.1969 15.3107
42.3882 15.1776
42.5797 14.8691
42.7713 14.6958
42.963 14.485
43.1549 14.3085
43.3468 14.0515
43.5389 13.9221
43.7312 13.7292
43.9237 13.54
44.1162 13.2976
44.3088 13.1676
44.5016 12.9758
44.6945 12.822
44.8875 12.5913
45.0806 12.4573
45.2739 12.2528
45.4673 12.1224
45.6609 11.9039
45.8546 11.7418
46.0484 11.5967
46.2424 11.4328
46.4365 11.2843
46.631 11.0638
46.8254 10.9129
47.0199 10.754
47.2146 10.611
47.4095 10.4529
47.6044 10.2743
47.7996 10.1547
47.9948 9.9747
48.1902 9.87806
48.3858 9.7155
48.5815 9.58072
48.7774 9.44863
48.9734 9.33931
49.1696 9.13226
49.3661 9.00908
49.5626 8.87398
49.7592 8.75543
49.956 8.58826
50.153 8.49877
50.3501 8.33358
50.5474 8.21363
50.7448 8.09052
50.9424 7.94735
51.1402 7.86896
51.3381 7.6831
51.5362 7.57723
51.7344 7.46839
51.9328 7.33484
52.1316 7.21199
52.3304 7.11059
52.5293 6.94527
52.7284 6.86877
52.9276 6.78118
53.1271 6.69146
53.3267 6.56961
53.5265 6.42442
53.7264 6.30907
53.9266 6.21761
54.1269 6.10501
54.3274 5.99041
54.528 5.86128
54.7289 5.67251
54.9301 5.54245
55.1314 5.38917
55.3328 5.15617
55.5344 4.94895
55.7361 4.84805