Folder: NiFe_MOF_catalyst_paper/XRD (part 138)

File: Ni3Fe_FD0747.xy
TT I
1.27165 7.33241
1.45013 5.90624
1.62863 5.4079
1.80712 4.58056
1.98562 5.247
2.16411 5.44864
2.34263 6.00712
2.52115 7.38975
2.69965 8.32287
2.87818 9.0756
3.05672 11.3514
3.23527 15.4396
3.4138 18.4583
3.59237 24.2874
3.77094 26.082
3.9495 29.8563
4.12809 35.0649
4.30669 236.492
4.4853 67.221
4.6639 55.096
4.84253 66.6759
5.02118 85.3308
5.19981 314.007
5.37848 185.909
5.55716 101.244
5.73586 91.2513
5.91455 92.4457
6.09328 4431.67
6.27201 82.646
6.45075 66.941
6.62952 62.3483
6.8083 58.3592
6.98711 55.3837
7.16591 55.3071
7.34475 94.7893
7.5236 54.4745
7.70247 55.9286
7.88135 57.4581
8.06026 61.878
8.23919 69.2999
8.41812 84.5509
8.59709 1139.86
8.77609 98.6113
8.9551 91.6292
9.13412 81.381
9.31318 81.7103
9.49226 83.9163
9.67134 98.3594
9.85047 98.6729
10.0296 315.184
10.2088 408.286
10.388 103.663
10.5672 507.6
10.7465 86.0513
10.9257 77.7865
11.105 71.3909
11.2844 70.3016
11.4637 64.3279
11.6431 63.3559
11.8225 62.0245
12.002 63.1844
12.1814 150.822
12.3609 70.885
12.5405 63.9442
12.72 70.0633
12.8996 70.3565
13.0792 78.0391
13.2589 231.037
13.4386 126.452
13.6183 244.445
13.7981 98.2353
13.9779 75.348
14.1577 72.0986
14.3376 71.1835
14.5175 68.5135
14.6974 69.8011
14.8774 107.381
15.0574 153.053
15.2374 70.7266
15.4175 66.1569
15.5976 65.3049
15.7778 92.2737
15.958 158.347
16.1382 62.6345
16.3185 58.2894
16.4988 55.2041
16.6792 54.0179
16.8596 54.9239
17.04 55.4849
17.2205 65.9907
17.401 71.1272
17.5815 58.984
17.7622 60.8566
17.9428 72.1487
18.1237 139.345
18.3044 89.4471
18.4852 77.65
18.666 59.8823
18.8469 57.7423
19.0278 56.5586
19.2088 59.1109
19.3898 76.3234
19.5709 53.7944
19.752 52.8044
19.9332 55.6624
20.1144 69.5529
20.2957 63.599
20.477 53.555
20.6586 49.3622
20.84 48.6048
21.0215 48.4079
21.203 50.4125
21.3846 48.858
21.5662 48.2336
21.7479 52.1821
21.9297 64.1009
22.1115 55.8787
22.2933 49.6564
22.4753 48.8103
22.6572 48.4734
22.8393 51.4898
23.0214 57.158
23.2037 48.5531
23.3859 49.3479
23.5682 56.7296
23.7505 48.2008
23.9329 44.9623
24.1154 43.9219
24.2979 43.0946
24.4805 42.7122
24.6631 42.579
24.8458 41.8677
25.0286 42.5371
25.2114 44.4185
25.3943 44.4274
25.5773 40.6678
25.7605 40.2678
25.9436 40.5968
26.1268 41.4444
26.31 39.8694
26.4933 40.4645
26.6767 41.9499
26.8601 40.2353
27.0437 38.665
27.2272 38.3737
27.4109 38.0497
27.5946 38.1314
27.7784 37.6534
27.9623 38.1405
28.1462 38.6743
28.3304 37.0112
28.5145 35.6351
28.6987 35.5302
28.8829 35.2383
29.0673 34.5179
29.2517 34.1996
29.4361 34.0354
29.6207 32.9205
29.8053 32.685
29.99 32.4599
30.1748 32.2843
30.3597 32.002
30.5447 31.971
30.7297 32.0912
30.915 31.4368
31.1002 31.0693
31.2855 30.7293
31.4708 30.5438
31.6563 30.1554
31.8418 30.0445
32.0275 29.7848
32.2132 29.3113
32.399 28.8022
32.5848 28.4366
32.7708 27.9651
32.9569 27.8319
33.143 27.7575
33.3293 27.1852
33.5158 26.9516
33.7022 26.4341
33.8887 26.1371
34.0753 25.8495
34.262 25.4879
34.4488 25.1588
34.6357 24.892
34.8227 24.6022
35.0098 24.3344
35.1969 24.0701
35.3842 23.8619
35.5716 23.7276
35.759 23.4013
35.9468 23.0364
36.1345 22.7922
36.3222 22.5766
36.5101 22.2859
36.6981 21.9628
36.8861 21.7268
37.0743 21.3928
37.2626 21.1436
37.451 20.9147
37.6395 20.7919
37.8281 20.3225
38.0168 20.1777
38.2056 19.9614
38.3945 19.6109
38.5837 19.3819
38.7728 19.0477
38.9621 18.8565
39.1514 18.6093
39.3409 18.3842
39.5304 18.1392
39.7201 17.9418
39.9099 17.7902
40.0999 17.4733
40.2899 17.3181
40.48 17.0657
40.6703 16.9068
40.8607 16.6767
41.0512 16.3964
41.242 16.2011
41.4327 15.9965
41.6236 15.7851
41.8146 15.5845
42.0057 15.2922
42.1969 15.0816
42.3882 14.9646
42.5797 14.7594
42.7713 14.5547
42.963 14.4022
43.1549 14.1766
43.3468 13.9643
43.5389 13.8366
43.7312 13.557
43.9237 13.4103
44.1162 13.221
44.3088 13.0702
44.5016 12.8511
44.6945 12.6877
44.8875 12.4811
45.0806 12.3269
45.2739 12.1466
45.4673 11.9785
45.6609 11.8134
45.8546 11.643
46.0484 11.4584
46.2424 11.3192
46.4365 11.1502
46.631 10.9907
46.8254 10.8265
47.0199 10.6523
47.2146 10.529
47.4095 10.3931
47.6044 10.1561
47.7996 10.0763
47.9948 9.89469
48.1902 9.79696
48.3858 9.62933
48.5815 9.48998
48.7774 9.35903
48.9734 9.23487
49.1696 9.07348
49.3661 8.949
49.5626 8.77188
49.7592 8.66489
49.956 8.52018
50.153 8.37576
50.3501 8.2451
50.5474 8.16263
50.7448 8.01159
50.9424 7.90434
51.1402 7.77107
51.3381 7.64931
51.5362 7.53126
51.7344 7.38272
51.9328 7.26684
52.1316 7.14825
52.3304 7.03268
52.5293 6.95331
52.7284 6.77635
52.9276 6.67525
53.1271 6.59158
53.3267 6.46105
53.5265 6.36005
53.7264 6.22285
53.9266 6.14831
54.1269 6.02957
54.3274 5.92056
54.528 5.76621
54.7289 5.63932
54.9301 5.42991
55.1314 5.35141
55.3328 5.15165
55.5344 4.95443
55.7361 4.74339

File: Ni3Fe_FD0748.xy
TT I
1.27165 7.63492
1.45013 5.54329
1.62863 5.04584
1.80712 4.96131
1.98562 4.66402
2.16411 4.93659
2.34263 5.24641
2.52115 7.56887
2.69965 8.04594
2.87818 8.59723
3.05672 11.2528
3.23527 15.2566
3.4138 19.1713
3.59237 24.8051
3.77094 26.1844
3.9495 29.5261
4.12809 34.867
4.30669 234.466
4.4853 66.9778
4.6639 54.798
4.84253 66.6156
5.02118 85.792
5.19981 315.23
5.37848 186.035
5.55716 101.127
5.73586 91.415
5.91455 92.3526
6.09328 4349.8
6.27201 82.9898
6.45075 67.2277
6.62952 62.7825
6.8083 58.6811
6.98711 56.1952
7.16591 55.6146
7.34475 94.678
7.5236 55.0475
7.70247 56.0605
7.88135 57.8814
8.06026 61.7961
8.23919 69.527
8.41812 84.6418
8.59709 1146.08
8.77609 98.8129
8.9551 91.8086
9.13412 81.888
9.31318 81.9275
9.49226 83.4318
9.67134 99.1277
9.85047 99.2953
10.0296 316.09
10.2088 401.885
10.388 103.739
10.5672 507.873
10.7465 86.0875
10.9257 78.2545
11.105 71.6408
11.2844 70.3854
11.4637 64.6436
11.6431 63.3609
11.8225 62.1759
12.002 62.9595
12.1814 150.077
12.3609 70.9613
12.5405 64.2077
12.72 69.9869
12.8996 70.5574
13.0792 78.1209
13.2589 231.156
13.4386 125.14
13.6183 244.438
13.7981 97.4598
13.9779 75.1179
14.1577 71.9782
14.3376 71.4768
14.5175 68.2765
14.6974 69.9173
14.8774 107.251
15.0574 151.146
15.2374 70.7581
15.4175 65.8131
15.5976 65.0125
15.7778 92.3044
15.958 155.882
16.1382 62.5889
16.3185 58.4454
16.4988 55.2402
16.6792 54.2311
16.8596 54.8087
17.04 55.4634
17.2205 65.8002
17.401 70.961
17.5815 58.8302
17.7622 60.7978
17.9428 72.179
18.1237 138.534
18.3044 90.1046
18.4852 77.4534
18.666 59.9925
18.8469 57.5513
19.0278 56.5372
19.2088 58.9679
19.3898 76.1849
19.5709 53.9099
19.752 52.7856
19.9332 55.6985
20.1144 69.1824
20.2957 63.5996
20.477 53.6851
20.6586 49.2556
20.84 48.6609
21.0215 48.1034
21.203 50.4357
21.3846 48.7455
21.5662 48.4155
21.7479 52.0741
21.9297 64.2452
22.1115 55.7013
22.2933 49.5832
22.4753 48.4639
22.6572 48.4217
22.8393 51.5548
23.0214 56.8019
23.2037 48.3636
23.3859 49.2277
23.5682 56.7815
23.7505 47.9942
23.9329 44.8917
24.1154 43.8683
24.2979 43.1622
24.4805 42.7005
24.6631 42.5062
24.8458 42.0876
25.0286 42.5357
25.2114 44.3714
25.3943 44.424
25.5773 40.6618
25.7605 40.103
25.9436 40.4314
26.1268 41.4317
26.31 39.8003
26.4933 40.4759
26.6767 41.8829
26.8601 40.2919
27.0437 38.673
27.2272 38.3007
27.4109 38.0886
27.5946 38.1435
27.7784 37.5338
27.9623 38.1331
28.1462 38.4675
28.3304 36.8648
28.5145 35.7986
28.6987 35.5284
28.8829 35.1732
29.0673 34.4575
29.2517 34.21
29.4361 33.9805
29.6207 33.0085
29.8053 32.6267
29.99 32.3294
30.1748 32.2857
30.3597 32.0448
30.5447 31.9489
30.7297 31.9138
30.915 31.5927
31.1002 30.9807
31.2855 30.6144
31.4708 30.7277
31.6563 30.2272
31.8418 29.9615
32.0275 29.6851
32.2132 29.1968
32.399 28.7882
32.5848 28.3877
32.7708 27.8926
32.9569 27.8476
33.143 27.5554
33.3293 27.2455
33.5158 26.9224
33.7022 26.3065
33.8887 26.1623
34.0753 25.8462
34.262 25.5295
34.4488 25.1898
34.6357 24.8357
34.8227 24.5554
35.0098 24.3857
35.1969 24.0238
35.3842 23.8599
35.5716 23.644
35.759 23.2472
35.9468 23.0459
36.1345 22.7403
36.3222 22.5943
36.5101 22.3381
36.6981 21.9628
36.8861 21.6379
37.0743 21.3442
37.2626 21.2242
37.451 20.8735
37.6395 20.7552
37.8281 20.3678
38.0168 20.067
38.2056 19.8784
38.3945 19.5856
38.5837 19.2849
38.7728 19.1463
38.9621 18.8664
39.1514 18.6072
39.3409 18.3667
39.5304 18.1104
39.7201 17.9852
39.9099 17.7527
40.0999 17.5094
40.2899 17.2846
40.48 17.1086
40.6703 16.8398
40.8607 16.6281
41.0512 16.3696
41.242 16.1903
41.4327 15.9623
41.6236 15.7664
41.8146 15.5733
42.0057 15.3078
42.1969 15.1628
42.3882 14.9963
42.5797 14.7224
42.7713 14.5662
42.963 14.3284
43.1549 14.1592
43.3468 13.9743
43.5389 13.7158
43.7312 13.5534
43.9237 13.3946
44.1162 13.211
44.3088 13.0053
44.5016 12.8476
44.6945 12.6374
44.8875 12.5047
45.0806 12.3136
45.2739 12.1548
45.4673 11.9945
45.6609 11.7719
45.8546 11.6312
46.0484 11.4755
46.2424 11.3057
46.4365 11.1659
46.631 10.9845
46.8254 10.8146
47.0199 10.6438
47.2146 10.4889
47.4095 10.3523
47.6044 10.2092
47.7996 10.0238
47.9948 9.86804
48.1902 9.74889
48.3858 9.60308
48.5815 9.47873
48.7774 9.32734
48.9734 9.20572
49.1696 9.06207
49.3661 8.8954
49.5626 8.75622
49.7592 8.62558
49.956 8.54682
50.153 8.44976
50.3501 8.23886
50.5474 8.12718
50.7448 8.00303
50.9424 7.8693
51.1402 7.75271
51.3381 7.62149
51.5362 7.53718
51.7344 7.39091
51.9328 7.27284
52.1316 7.14186
52.3304 7.05756
52.5293 6.9185
52.7284 6.79033
52.9276 6.69622
53.1271 6.59278
53.3267 6.49152
53.5265 6.34014
53.7264 6.27218
53.9266 6.15759
54.1269 6.03505
54.3274 5.9178
54.528 5.78667
54.7289 5.62708
54.9301 5.48843
55.1314 5.39153
55.3328 5.11136
55.5344 4.91402
55.7361 4.79089

File: Ni3Fe_FD0749.xy
TT I
1.27165 7.43858
1.45013 5.3084
1.62863 5.11672
1.80712 5.04976
1.98562 4.64182
2.16411 4.91035
2.34263 5.77107
2.52115 7.25892
2.69965 8.50395
2.87818 8.82208
3.05672 10.9267
3.23527 15.2952
3.4138 19.6782
3.59237 24.2818
3.77094 26.2558
3.9495 30.1231
4.12809 34.7868
4.30669 238.941
4.4853 67.2917
4.6639 54.936
4.84253 66.3069
5.02118 85.4628
5.19981 312.28
5.37848 186.927
5.55716 101.176
5.73586 91.5174
5.91455 92.3503
6.09328 4310.86
6.27201 82.7514
6.45075 66.8588
6.62952 62.6865
6.8083 58.6575
6.98711 55.7659
7.16591 55.1796
7.34475 96.3994
7.5236 54.3916
7.70247 55.8829
7.88135 57.6583
8.06026 61.9308
8.23919 69.1053
8.41812 84.5907
8.59709 1136.81
8.77609 98.9235
8.9551 91.6107
9.13412 81.2661
9.31318 81.3575
9.49226 83.7622
9.67134 98.9107
9.85047 98.081
10.0296 314.143
10.2088 408.38
10.388 103.461
10.5672 511.796
10.7465 86.3234
10.9257 77.8736
11.105 71.3543
11.2844 70.3077
11.4637 64.1963
11.6431 63.5281
11.8225 61.9949
12.002 62.7716
12.1814 149.831
12.3609 70.9188
12.5405 64.1937
12.72 70.1924
12.8996 70.4606
13.0792 77.9037
13.2589 231.168
13.4386 126.561
13.6183 241.515
13.7981 97.6335
13.9779 75.3276
14.1577 72.0566
14.3376 71.2802
14.5175 68.4784
14.6974 69.8401
14.8774 106.791
15.0574 152.787
15.2374 70.8846
15.4175 65.8939
15.5976 65.4012
15.7778 91.8827
15.958 156.964
16.1382 62.706
16.3185 58.609
16.4988 55.1859
16.6792 54.1495
16.8596 54.8853
17.04 55.2757
17.2205 65.75
17.401 70.9677
17.5815 59.0695
17.7622 60.8014
17.9428 71.7912
18.1237 138.495
18.3044 89.4554
18.4852 77.7764
18.666 60.05
18.8469 57.7153
19.0278 56.4453
19.2088 58.889
19.3898 76.3168
19.5709 54.0187
19.752 52.9928
19.9332 55.6091
20.1144 69.4526
20.2957 63.5062
20.477 53.6079
20.6586 49.4154
20.84 48.5754
21.0215 48.3037
21.203 50.6177
21.3846 48.5378
21.5662 48.3823
21.7479 52.2079
21.9297 64.1837
22.1115 55.6298
22.2933 49.6205
22.4753 48.4989
22.6572 48.4506
22.8393 51.5793
23.0214 57.0875
23.2037 48.4694
23.3859 49.2552
23.5682 56.6615
23.7505 48.1254
23.9329 45.0328
24.1154 43.7632
24.2979 43.1852
24.4805 42.8415
24.6631 42.5989
24.8458 42.0705
25.0286 42.5413
25.2114 44.2843
25.3943 44.3358
25.5773 40.6569
25.7605 40.2026
25.9436 40.481
26.1268 41.4969
26.31 39.8485
26.4933 40.4865
26.6767 41.971
26.8601 40.308
27.0437 38.7138
27.2272 38.2876
27.4109 38.1328
27.5946 38.2146
27.7784 37.6495
27.9623 38.163
28.1462 38.6001
28.3304 37.0708
28.5145 35.7691
28.6987 35.4332
28.8829 35.1904
29.0673 34.4977
29.2517 34.0713
29.4361 34.048
29.6207 33.0055
29.8053 32.6876
29.99 32.3888
30.1748 32.2092
30.3597 32.0009
30.5447 31.9975
30.7297 32.1127
30.915 31.4059
31.1002 30.8891
31.2855 30.7317
31.4708 30.6717
31.6563 30.2742
31.8418 29.9768
32.0275 29.7347
32.2132 29.3331
32.399 28.7804
32.5848 28.2962
32.7708 28.0295
32.9569 27.8959
33.143 27.6779
33.3293 27.2374
33.5158 26.9148
33.7022 26.5002
33.8887 26.1772
34.0753 25.9138
34.262 25.5609
34.4488 25.2089
34.6357 24.8492
34.8227 24.5312
35.0098 24.3818
35.1969 24.0939
35.3842 23.8737
35.5716 23.6738
35.759 23.3036
35.9468 22.9956
36.1345 22.6868
36.3222 22.563
36.5101 22.335
36.6981 21.9125
36.8861 21.685
37.0743 21.389
37.2626 21.2002
37.451 20.9089
37.6395 20.7824
37.8281 20.4289
38.0168 20.1876
38.2056 19.8806
38.3945 19.5857
38.5837 19.3363
38.7728 19.1235
38.9621 18.9135
39.1514 18.6024
39.3409 18.3402
39.5304 18.1883
39.7201 17.9011
39.9099 17.7511
40.0999 17.5878
40.2899 17.2725
40.48 16.9717
40.6703 16.8282
40.8607 16.6106
41.0512 16.4574
41.242 16.1693
41.4327 15.9438
41.6236 15.7516
41.8146 15.5211
42.0057 15.4021
42.1969 15.1679
42.3882 14.9364
42.5797 14.7571
42.7713 14.6019
42.963 14.3445
43.1549 14.1125
43.3468 13.9695
43.5389 13.7711
43.7312 13.5602
43.9237 13.3953
44.1162 13.2389
44.3088 13.0149
44.5016 12.8684
44.6945 12.6614
44.8875 12.4656
45.0806 12.3235
45.2739 12.1297
45.4673 11.99
45.6609 11.8094
45.8546 11.6152
46.0484 11.5194
46.2424 11.3204
46.4365 11.1562
46.631 10.9524
46.8254 10.7926
47.0199 10.7052
47.2146 10.5351
47.4095 10.3507
47.6044 10.1881
47.7996 10.0395
47.9948 9.90657
48.1902 9.77781
48.3858 9.61395
48.5815 9.50103
48.7774 9.35587
48.9734 9.22693
49.1696 9.06861
49.3661 8.93558
49.5626 8.74235
49.7592 8.6851
49.956 8.52502
50.153 8.40569
50.3501 8.27546
50.5474 8.13864
50.7448 8.03789
50.9424 7.89182
51.1402 7.79207
51.3381 7.61226
51.5362 7.56035
51.7344 7.40133
51.9328 7.2927
52.1316 7.12742
52.3304 7.04114
52.5293 6.96281
52.7284 6.82506
52.9276 6.68473
53.1271 6.58593
53.3267 6.46059
53.5265 6.3784
53.7264 6.25047
53.9266 6.16161
54.1269 6.03742
54.3274 5.93265
54.528 5.75869
54.7289 5.60359
54.9301 5.4546
55.1314 5.33933
55.3328 5.13845
55.5344 4.95361
55.7361 4.83059

File: Ni3Fe_FD0750.xy
TT I
1.27165 7.38708
1.45013 6.31256
1.62863 4.88928
1.80712 4.72967
1.98562 4.1619
2.16411 5.15834
2.34263 5.05521
2.52115 7.06316
2.69965 8.03795
2.87818 9.00221
3.05672 11.48
3.23527 15.3937
3.4138 18.7072
3.59237 24.5083
3.77094 26.1956
3.9495 29.7723
4.12809 34.9988
4.30669 239.545
4.4853 67.9735
4.6639 55.0484
4.84253 66.64
5.02118 85.2968
5.19981 312.115
5.37848 186.544
5.55716 101.594
5.73586 91.4827
5.91455 91.7628
6.09328 4317.02
6.27201 82.7631
6.45075 67.0757
6.62952 62.4698
6.8083 58.7756
6.98711 56.0125
7.16591 55.7275
7.34475 96.1734
7.5236 54.7708
7.70247 55.9746
7.88135 57.5651
8.06026 61.9431
8.23919 68.9946
8.41812 84.4596
8.59709 1137.72
8.77609 98.5459
8.9551 91.8087
9.13412 81.2241
9.31318 81.7447
9.49226 84.0255
9.67134 99.0139
9.85047 99.1042
10.0296 314.243
10.2088 404.102
10.388 103.763
10.5672 512.44
10.7465 85.8809
10.9257 77.851
11.105 71.3763
11.2844 70.2181
11.4637 64.4677
11.6431 63.3088
11.8225 62.074
12.002 63.0895
12.1814 150.183
12.3609 71.2564
12.5405 63.9752
12.72 69.879
12.8996 70.635
13.0792 77.7231
13.2589 230.597
13.4386 125.919
13.6183 241.128
13.7981 97.6082
13.9779 75.1405
14.1577 71.9988
14.3376 71.5403
14.5175 68.2337
14.6974 69.8216
14.8774 106.966
15.0574 152.162
15.2374 70.8775
15.4175 65.9215
15.5976 65.2399
15.7778 91.9338
15.958 156.716
16.1382 62.7099
16.3185 58.4957
16.4988 55.1849
16.6792 54.2749
16.8596 55.1109
17.04 55.4742
17.2205 65.7065
17.401 71.0819
17.5815 58.7458
17.7622 60.6743
17.9428 71.9911
18.1237 138.696
18.3044 89.742
18.4852 77.6144
18.666 60.2343
18.8469 57.6343
19.0278 56.5409
19.2088 59.0513
19.3898 76.4523
19.5709 53.8286
19.752 52.9706
19.9332 55.5014
20.1144 69.4088
20.2957 63.5199
20.477 53.4361
20.6586 49.3483
20.84 48.6356
21.0215 48.3269
21.203 50.5349
21.3846 48.6263
21.5662 48.5176
21.7479 51.9993
21.9297 64.2082
22.1115 55.7642
22.2933 49.7525
22.4753 48.7612
22.6572 48.3697
22.8393 51.4019
23.0214 57.0901
23.2037 48.5294
23.3859 49.2029
23.5682 56.9963
23.7505 48.0876
23.9329 44.9424
24.1154 43.9225
24.2979 43.0565
24.4805 42.7316
24.6631 42.6784
24.8458 41.9517
25.0286 42.4981
25.2114 44.3577
25.3943 44.3761
25.5773 40.685
25.7605 40.0933
25.9436 40.5908
26.1268 41.5149
26.31 39.7873
26.4933 40.4739
26.6767 41.9071
26.8601 40.1445
27.0437 38.6139
27.2272 38.2276
27.4109 38.2366
27.5946 38.0774
27.7784 37.7193
27.9623 38.1073
28.1462 38.534
28.3304 36.864
28.5145 35.7251
28.6987 35.4802
28.8829 35.274
29.0673 34.4472
29.2517 34.1817
29.4361 33.8723
29.6207 33.0135
29.8053 32.775
29.99 32.4088
30.1748 32.2088
30.3597 32.0807
30.5447 32.1395
30.7297 31.9303
30.915 31.404
31.1002 30.8722
31.2855 30.6265
31.4708 30.5182
31.6563 30.2348
31.8418 30.0191
32.0275 29.8103
32.2132 29.2607
32.399 28.7434
32.5848 28.3116
32.7708 28.0238
32.9569 27.8243
33.143 27.6757
33.3293 27.2981
33.5158 26.9418
33.7022 26.4402
33.8887 26.2573
34.0753 25.8683
34.262 25.5136
34.4488 25.1036
34.6357 24.8175
34.8227 24.6047
35.0098 24.2662
35.1969 24.0687
35.3842 23.8195
35.5716 23.6409
35.759 23.3007
35.9468 22.9483
36.1345 22.7632
36.3222 22.5398
36.5101 22.2936
36.6981 22.0232
36.8861 21.6544
37.0743 21.4186
37.2626 21.1705
37.451 20.8702
37.6395 20.7314
37.8281 20.4193
38.0168 20.0832
38.2056 19.8359
38.3945 19.6061
38.5837 19.398
38.7728 19.1341
38.9621 18.8918
39.1514 18.5794
39.3409 18.3975
39.5304 18.0947
39.7201 17.9559
39.9099 17.8036
40.0999 17.5695
40.2899 17.2947
40.48 17.0027
40.6703 16.7868
40.8607 16.6474
41.0512 16.4131
41.242 16.1757
41.4327 15.9941
41.6236 15.7496
41.8146 15.5397
42.0057 15.3184
42.1969 15.1843
42.3882 15.0046
42.5797 14.7096
42.7713 14.5803
42.963 14.3989
43.1549 14.2172
43.3468 13.9272
43.5389 13.7999
43.7312 13.5299
43.9237 13.3338
44.1162 13.1955
44.3088 13.044
44.5016 12.8184
44.6945 12.651
44.8875 12.541
45.0806 12.2889
45.2739 12.1887
45.4673 11.9924
45.6609 11.7479
45.8546 11.669
46.0484 11.4892
46.2424 11.2731
46.4365 11.1472
46.631 10.9808
46.8254 10.7945
47.0199 10.6904
47.2146 10.4917
47.4095 10.3715
47.6044 10.1963
47.7996 10.0427
47.9948 9.87494
48.1902 9.79245
48.3858 9.61648
48.5815 9.49076
48.7774 9.3761
48.9734 9.1712
49.1696 9.08608
49.3661 8.89607
49.5626 8.78596
49.7592 8.63782
49.956 8.56417
50.153 8.37615
50.3501 8.25061
50.5474 8.15746
50.7448 8.03168
50.9424 7.91264
51.1402 7.73623
51.3381 7.62386
51.5362 7.55065
51.7344 7.36754
51.9328 7.26912
52.1316 7.15224
52.3304 7.08219
52.5293 6.93154
52.7284 6.80177
52.9276 6.69797
53.1271 6.61082
53.3267 6.47096
53.5265 6.37022
53.7264 6.2789
53.9266 6.13072
54.1269 6.03479
54.3274 5.91198
54.528 5.81069
54.7289 5.64186
54.9301 5.46646
55.1314 5.33978
55.3328 5.09694
55.5344 4.95125
55.7361 4.84946

File: Ni3Fe_FD0751.xy
TT I
1.27165 7.11898
1.45013 5.72617
1.62863 4.89371
1.80712 5.21672
1.98562 4.78735
2.16411 4.91102
2.34263 5.70167
2.52115 7.35249
2.69965 8.58181
2.87818 9.14
3.05672 11.2581
3.23527 15.0383
3.4138 19.0824
3.59237 24.5532
3.77094 26.1571
3.9495 29.5384
4.12809 35.1537
4.30669 242.896
4.4853 67.5745
4.6639 55.4122
4.84253 66.8818
5.02118 86.01
5.19981 313.159
5.37848 186.603
5.55716 101.061
5.73586 91.1857
5.91455 92.7494
6.09328 4326.57
6.27201 83.0028
6.45075 66.6583
6.62952 62.5062
6.8083 58.4719
6.98711 56.0832
7.16591 55.2147
7.34475 96.4663
7.5236 54.8391
7.70247 55.7905
7.88135 57.9164
8.06026 61.9467
8.23919 68.8082
8.41812 84.4281
8.59709 1135.78
8.77609 99.0212
8.9551 91.7384
9.13412 81.1901
9.31318 81.6266
9.49226 83.8123
9.67134 99.0127
9.85047 99.0146
10.0296 313.913
10.2088 403.439
10.388 103.8
10.5672 511.493
10.7465 86.186
10.9257 78.1874
11.105 71.44
11.2844 70.4006
11.4637 64.876
11.6431 63.2021
11.8225 61.9529
12.002 63.0974
12.1814 150.075
12.3609 71.0381
12.5405 64.2716
12.72 70.121
12.8996 70.3838
13.0792 78.0095
13.2589 230.474
13.4386 126.335
13.6183 241.203
13.7981 97.5602
13.9779 75.1174
14.1577 72.1602
14.3376 71.544
14.5175 68.1105
14.6974 69.7818
14.8774 107.253
15.0574 152.497
15.2374 71.0391
15.4175 66.1637
15.5976 65.057
15.7778 91.9156
15.958 157.107
16.1382 62.5127
16.3185 58.5349
16.4988 55.2889
16.6792 53.9325
16.8596 55.1013
17.04 55.2881
17.2205 65.7988
17.401 71.0218
17.5815 58.7008
17.7622 60.7914
17.9428 71.9548
18.1237 138.719
18.3044 89.7491
18.4852 77.656
18.666 59.9445
18.8469 57.6897
19.0278 56.6156
19.2088 59.0228
19.3898 76.3015
19.5709 53.8961
19.752 52.9928
19.9332 55.7439
20.1144 69.2898
20.2957 63.4759
20.477 53.5693
20.6586 49.449
20.84 48.5373
21.0215 48.2207
21.203 50.49
21.3846 48.6543
21.5662 48.3211
21.7479 52.097
21.9297 64.0596
22.1115 55.7068
22.2933 49.5719
22.4753 48.6186
22.6572 48.4786
22.8393 51.5694
23.0214 57.1376
23.2037 48.6048
23.3859 49.2218
23.5682 56.8239
23.7505 48.0563
23.9329 44.911
24.1154 43.9993
24.2979 43.2927
24.4805 42.7666
24.6631 42.5105
24.8458 41.8184
25.0286 42.5033
25.2114 44.4213
25.3943 44.4098
25.5773 40.5975
25.7605 40.2037
25.9436 40.5234
26.1268 41.4742
26.31 39.8854
26.4933 40.5024
26.6767 41.8381
26.8601 40.2131
27.0437 38.6306
27.2272 38.3593
27.4109 38.135
27.5946 38.1514
27.7784 37.6744
27.9623 38.1005
28.1462 38.6585
28.3304 36.8657
28.5145 35.8248
28.6987 35.3599
28.8829 35.2683
29.0673 34.4753
29.2517 34.1382
29.4361 33.8897
29.6207 32.9529
29.8053 32.7139
29.99 32.362
30.1748 32.1815
30.3597 32.0777
30.5447 31.877
30.7297 32.0525
30.915 31.4379
31.1002 30.9675
31.2855 30.7735
31.4708 30.715
31.6563 30.2074
31.8418 29.965
32.0275 29.7283
32.2132 29.2461
32.399 28.7185
32.5848 28.2942
32.7708 28.0315
32.9569 27.7338
33.143 27.6818
33.3293 27.2721
33.5158 26.9754
33.7022 26.4835
33.8887 26.2072
34.0753 25.8355
34.262 25.5254
34.4488 25.1578
34.6357 24.8269
34.8227 24.5881
35.0098 24.3789
35.1969 24.0305
35.3842 23.8892
35.5716 23.6091
35.759 23.3511
35.9468 22.9434
36.1345 22.7618
36.3222 22.601
36.5101 22.3475
36.6981 21.9509
36.8861 21.7602
37.0743 21.4493
37.2626 21.094
37.451 20.9144
37.6395 20.712
37.8281 20.3293
38.0168 20.0871
38.2056 19.8925
38.3945 19.6026
38.5837 19.3489
38.7728 19.1408
38.9621 18.8343
39.1514 18.5795
39.3409 18.3948
39.5304 18.1525
39.7201 17.9795
39.9099 17.7379
40.0999 17.5101
40.2899 17.3209
40.48 16.9963
40.6703 16.7948
40.8607 16.6584
41.0512 16.4531
41.242 16.1578
41.4327 16.0506
41.6236 15.7788
41.8146 15.5918
42.0057 15.3522
42.1969 15.1442
42.3882 14.9209
42.5797 14.7212
42.7713 14.5647
42.963 14.3685
43.1549 14.1622
43.3468 13.9506
43.5389 13.8295
43.7312 13.5364
43.9237 13.461
44.1162 13.2021
44.3088 12.9853
44.5016 12.8562
44.6945 12.6631
44.8875 12.5071
45.0806 12.2996
45.2739 12.1276
45.4673 11.9616
45.6609 11.813
45.8546 11.6196
46.0484 11.4674
46.2424 11.2956
46.4365 11.1613
46.631 10.9595
46.8254 10.7906
47.0199 10.6647
47.2146 10.5078
47.4095 10.3497
47.6044 10.1787
47.7996 10.0202
47.9948 9.88445
48.1902 9.76449
48.3858 9.6109
48.5815 9.49571
48.7774 9.33549
48.9734 9.16102
49.1696 9.08816
49.3661 8.93158
49.5626 8.7947
49.7592 8.64277
49.956 8.51274
50.153 8.37795
50.3501 8.3027
50.5474 8.15066
50.7448 8.04675
50.9424 7.92691
51.1402 7.75567
51.3381 7.63881
51.5362 7.55631
51.7344 7.37359
51.9328 7.2491
52.1316 7.13492
52.3304 7.03293
52.5293 6.90314
52.7284 6.81582
52.9276 6.69611
53.1271 6.60012
53.3267 6.49747
53.5265 6.34194
53.7264 6.2621
53.9266 6.17429
54.1269 6.04095
54.3274 5.9048
54.528 5.77503
54.7289 5.61102
54.9301 5.41753
55.1314 5.29943
55.3328 5.12464
55.5344 4.92676
55.7361 4.77831