Folder: NiFe_MOF_catalyst_paper/XRD (part 133)

File: Ni3Fe_FD0717.xy
TT I
1.27165 7.48587
1.45013 6.39695
1.62863 5.49941
1.80712 4.9026
1.98562 4.81398
2.16411 5.08818
2.34263 5.5515
2.52115 7.42858
2.69965 8.32893
2.87818 8.51205
3.05672 11.1241
3.23527 15.3037
3.4138 19.0093
3.59237 23.4466
3.77094 25.8577
3.9495 30.0521
4.12809 35.1849
4.30669 116.781
4.4853 55.1844
4.6639 55.7575
4.84253 68.4359
5.02118 88.6588
5.19981 388.087
5.37848 198.194
5.55716 102.754
5.73586 93.2142
5.91455 95.4005
6.09328 4461.68
6.27201 81.8997
6.45075 69.0974
6.62952 62.9548
6.8083 59.0386
6.98711 55.5918
7.16591 56.8371
7.34475 69.5949
7.5236 54.5781
7.70247 56.6831
7.88135 57.9789
8.06026 62.412
8.23919 69.5569
8.41812 84.7574
8.59709 1224.01
8.77609 99.5661
8.9551 89.7094
9.13412 82.9738
9.31318 84.2792
9.49226 85.1306
9.67134 95.6029
9.85047 101.623
10.0296 364.584
10.2088 393.616
10.388 105.192
10.5672 499.757
10.7465 86.2275
10.9257 78.3318
11.105 71.4769
11.2844 68.9418
11.4637 65.0444
11.6431 63.344
11.8225 62.9503
12.002 64.461
12.1814 153.916
12.3609 68.0918
12.5405 64.9146
12.72 68.0958
12.8996 71.5161
13.0792 79.7893
13.2589 249.32
13.4386 125.158
13.6183 254.578
13.7981 97.7261
13.9779 75.9715
14.1577 72.3172
14.3376 70.5446
14.5175 68.8779
14.6974 70.6023
14.8774 114.678
15.0574 145.957
15.2374 70.0083
15.4175 66.6404
15.5976 65.7778
15.7778 97.7702
15.958 152.2
16.1382 61.7006
16.3185 57.9984
16.4988 55.3364
16.6792 54.4457
16.8596 55.0264
17.04 56.0748
17.2205 67.5608
17.401 70.6257
17.5815 59.2878
17.7622 61.4012
17.9428 74.4394
18.1237 137.713
18.3044 91.5765
18.4852 76.5689
18.666 60.2921
18.8469 58.1018
19.0278 56.894
19.2088 59.3787
19.3898 74.9402
19.5709 54.2607
19.752 53.3253
19.9332 56.4429
20.1144 69.051
20.2957 63.8839
20.477 53.357
20.6586 49.5549
20.84 48.8962
21.0215 48.6142
21.203 50.7862
21.3846 48.89
21.5662 48.8962
21.7479 53.0232
21.9297 64.1072
22.1115 55.7926
22.2933 50.0134
22.4753 48.7449
22.6572 48.8274
22.8393 52.2108
23.0214 57.0275
23.2037 48.6928
23.3859 49.7882
23.5682 56.7601
23.7505 48.2213
23.9329 45.2137
24.1154 44.0218
24.2979 43.4578
24.4805 42.9285
24.6631 42.5975
24.8458 42.1737
25.0286 43.1045
25.2114 44.5718
25.3943 44.3885
25.5773 40.8417
25.7605 40.4369
25.9436 40.8268
26.1268 41.5699
26.31 40.1599
26.4933 40.5989
26.6767 42.0881
26.8601 40.4174
27.0437 38.9306
27.2272 38.5468
27.4109 38.403
27.5946 38.3267
27.7784 37.7094
27.9623 38.3406
28.1462 38.8171
28.3304 37.0714
28.5145 35.863
28.6987 35.7168
28.8829 35.4193
29.0673 34.6503
29.2517 34.4
29.4361 34.0433
29.6207 33.1795
29.8053 32.907
29.99 32.6688
30.1748 32.3949
30.3597 32.1474
30.5447 32.2734
30.7297 32.139
30.915 31.5523
31.1002 30.9752
31.2855 30.8214
31.4708 30.8406
31.6563 30.3709
31.8418 30.0768
32.0275 29.8571
32.2132 29.3856
32.399 28.8634
32.5848 28.4937
32.7708 28.1421
32.9569 28.0169
33.143 27.747
33.3293 27.4004
33.5158 27.0401
33.7022 26.5965
33.8887 26.2627
34.0753 25.9744
34.262 25.6453
34.4488 25.3043
34.6357 24.8849
34.8227 24.6186
35.0098 24.4655
35.1969 24.1509
35.3842 23.8845
35.5716 23.7562
35.759 23.3909
35.9468 23.0863
36.1345 22.9016
36.3222 22.5452
36.5101 22.3884
36.6981 22.0922
36.8861 21.8588
37.0743 21.4816
37.2626 21.2772
37.451 21.0222
37.6395 20.7561
37.8281 20.4392
38.0168 20.1633
38.2056 20.0259
38.3945 19.6758
38.5837 19.4003
38.7728 19.1682
38.9621 18.9633
39.1514 18.6827
39.3409 18.4474
39.5304 18.1748
39.7201 18.0397
39.9099 17.7361
40.0999 17.6286
40.2899 17.3395
40.48 17.1248
40.6703 16.8775
40.8607 16.7146
41.0512 16.4635
41.242 16.2404
41.4327 16.0293
41.6236 15.827
41.8146 15.6603
42.0057 15.4002
42.1969 15.1874
42.3882 14.9726
42.5797 14.8012
42.7713 14.5823
42.963 14.442
43.1549 14.1961
43.3468 13.9749
43.5389 13.8098
43.7312 13.6339
43.9237 13.396
44.1162 13.2481
44.3088 13.1015
44.5016 12.8453
44.6945 12.7066
44.8875 12.5367
45.0806 12.3705
45.2739 12.1353
45.4673 12.0262
45.6609 11.8127
45.8546 11.7142
46.0484 11.519
46.2424 11.3103
46.4365 11.1514
46.631 10.9442
46.8254 10.8515
47.0199 10.6828
47.2146 10.5431
47.4095 10.3838
47.6044 10.2162
47.7996 10.0453
47.9948 9.90215
48.1902 9.77516
48.3858 9.61126
48.5815 9.49822
48.7774 9.37393
48.9734 9.20419
49.1696 9.11322
49.3661 8.95365
49.5626 8.75723
49.7592 8.65588
49.956 8.53219
50.153 8.40233
50.3501 8.24175
50.5474 8.1469
50.7448 8.01929
50.9424 7.90951
51.1402 7.79473
51.3381 7.65126
51.5362 7.5228
51.7344 7.4121
51.9328 7.32992
52.1316 7.16096
52.3304 7.02247
52.5293 6.95426
52.7284 6.84404
52.9276 6.70212
53.1271 6.60121
53.3267 6.48288
53.5265 6.36603
53.7264 6.30903
53.9266 6.17663
54.1269 6.06256
54.3274 5.95567
54.528 5.77641
54.7289 5.67299
54.9301 5.48645
55.1314 5.34268
55.3328 5.16077
55.5344 4.96327
55.7361 4.80015

File: Ni3Fe_FD0718.xy
TT I
1.27165 7.28257
1.45013 6.28543
1.62863 5.10276
1.80712 4.92396
1.98562 3.98974
2.16411 4.5692
2.34263 5.41512
2.52115 6.55816
2.69965 7.98529
2.87818 8.85462
3.05672 10.8333
3.23527 14.4757
3.4138 18.5895
3.59237 23.3837
3.77094 26.1495
3.9495 29.3794
4.12809 34.0843
4.30669 130.832
4.4853 56.4011
4.6639 55.5857
4.84253 67.9614
5.02118 87.6791
5.19981 375.177
5.37848 195.451
5.55716 102.72
5.73586 92.6467
5.91455 95.1013
6.09328 4443.16
6.27201 81.3777
6.45075 68.3673
6.62952 62.7991
6.8083 58.6781
6.98711 55.7003
7.16591 55.8002
7.34475 72.3079
7.5236 54.0499
7.70247 56.3439
7.88135 57.7975
8.06026 62.2412
8.23919 69.3595
8.41812 84.3857
8.59709 1214.31
8.77609 99.2951
8.9551 89.4102
9.13412 82.472
9.31318 83.5905
9.49226 84.9098
9.67134 95.5329
9.85047 100.84
10.0296 359.484
10.2088 404.12
10.388 104.313
10.5672 495.728
10.7465 86.6374
10.9257 77.8529
11.105 71.2415
11.2844 68.8867
11.4637 64.7151
11.6431 63.4095
11.8225 62.4385
12.002 63.8959
12.1814 153.276
12.3609 68.2535
12.5405 64.583
12.72 68.0834
12.8996 71.4001
13.0792 79.3657
13.2589 250.185
13.4386 126.118
13.6183 254.391
13.7981 97.4823
13.9779 75.6932
14.1577 72.1517
14.3376 70.4542
14.5175 68.9236
14.6974 70.5535
14.8774 113.538
15.0574 147.729
15.2374 69.8071
15.4175 66.4948
15.5976 65.6729
15.7778 97.102
15.958 153.614
16.1382 61.5424
16.3185 57.9796
16.4988 55.3722
16.6792 54.3763
16.8596 54.9716
17.04 55.7964
17.2205 67.3268
17.401 70.7163
17.5815 59.2218
17.7622 61.1368
17.9428 74.1332
18.1237 138.05
18.3044 91.4622
18.4852 76.7509
18.666 60.4156
18.8469 58.0516
19.0278 56.5261
19.2088 59.3697
19.3898 75.158
19.5709 54.0649
19.752 53.2265
19.9332 56.3342
20.1144 69.1319
20.2957 63.6427
20.477 53.5345
20.6586 49.5748
20.84 48.6197
21.0215 48.4161
21.203 50.8482
21.3846 48.8948
21.5662 48.7411
21.7479 52.7631
21.9297 63.9768
22.1115 55.7361
22.2933 49.7916
22.4753 48.663
22.6572 48.7875
22.8393 52.2584
23.0214 57.1264
23.2037 48.8176
23.3859 49.7473
23.5682 56.7359
23.7505 48.3344
23.9329 45.1904
24.1154 44.0996
24.2979 43.357
24.4805 42.8085
24.6631 42.7395
24.8458 42.0483
25.0286 42.7665
25.2114 44.6366
25.3943 44.4934
25.5773 40.7852
25.7605 40.4489
25.9436 40.6353
26.1268 41.5371
26.31 40.044
26.4933 40.7659
26.6767 41.9752
26.8601 40.4059
27.0437 38.83
27.2272 38.4572
27.4109 38.3243
27.5946 38.2028
27.7784 37.831
27.9623 38.4003
28.1462 38.7548
28.3304 37.1504
28.5145 35.8625
28.6987 35.5641
28.8829 35.374
29.0673 34.591
29.2517 34.2797
29.4361 34.1861
29.6207 33.0355
29.8053 32.8331
29.99 32.4702
30.1748 32.3538
30.3597 32.2086
30.5447 32.0505
30.7297 32.2092
30.915 31.5202
31.1002 31.083
31.2855 30.7966
31.4708 30.8012
31.6563 30.2905
31.8418 30.0775
32.0275 29.925
32.2132 29.3483
32.399 28.922
32.5848 28.4134
32.7708 28.1522
32.9569 28.0072
33.143 27.7447
33.3293 27.3133
33.5158 27.0448
33.7022 26.5481
33.8887 26.3073
34.0753 25.9234
34.262 25.6508
34.4488 25.2878
34.6357 24.9943
34.8227 24.7674
35.0098 24.5413
35.1969 24.1547
35.3842 23.9617
35.5716 23.772
35.759 23.4372
35.9468 22.9985
36.1345 22.8333
36.3222 22.652
36.5101 22.2706
36.6981 22.0533
36.8861 21.7637
37.0743 21.4854
37.2626 21.1299
37.451 20.9855
37.6395 20.8113
37.8281 20.4845
38.0168 20.1101
38.2056 19.9686
38.3945 19.6583
38.5837 19.3635
38.7728 19.1628
38.9621 18.9462
39.1514 18.6741
39.3409 18.4162
39.5304 18.2298
39.7201 17.9913
39.9099 17.7855
40.0999 17.5816
40.2899 17.3102
40.48 17.051
40.6703 16.8391
40.8607 16.7207
41.0512 16.4736
41.242 16.2561
41.4327 16.0188
41.6236 15.8041
41.8146 15.6289
42.0057 15.3923
42.1969 15.2371
42.3882 15.0056
42.5797 14.8059
42.7713 14.6554
42.963 14.4341
43.1549 14.1915
43.3468 13.9865
43.5389 13.7725
43.7312 13.5999
43.9237 13.431
44.1162 13.2405
44.3088 13.0498
44.5016 12.8506
44.6945 12.6945
44.8875 12.5152
45.0806 12.3317
45.2739 12.1872
45.4673 11.9968
45.6609 11.8067
45.8546 11.6511
46.0484 11.4767
46.2424 11.3361
46.4365 11.1673
46.631 10.9767
46.8254 10.8264
47.0199 10.6779
47.2146 10.5669
47.4095 10.3291
47.6044 10.1979
47.7996 10.0918
47.9948 9.91928
48.1902 9.7664
48.3858 9.67213
48.5815 9.51554
48.7774 9.3722
48.9734 9.26883
49.1696 9.1071
49.3661 8.94791
49.5626 8.76048
49.7592 8.65034
49.956 8.57988
50.153 8.39975
50.3501 8.25167
50.5474 8.16494
50.7448 8.05494
50.9424 7.90924
51.1402 7.80784
51.3381 7.63021
51.5362 7.53735
51.7344 7.3939
51.9328 7.27069
52.1316 7.15363
52.3304 7.04339
52.5293 6.92081
52.7284 6.81572
52.9276 6.65361
53.1271 6.62283
53.3267 6.49985
53.5265 6.37244
53.7264 6.25125
53.9266 6.15319
54.1269 6.0552
54.3274 5.90445
54.528 5.78328
54.7289 5.63486
54.9301 5.46885
55.1314 5.3879
55.3328 5.14403
55.5344 4.94358
55.7361 4.80106

File: Ni3Fe_FD0719.xy
TT I
1.27165 7.4914
1.45013 6.95352
1.62863 4.89185
1.80712 4.86995
1.98562 4.62455
2.16411 4.89948
2.34263 5.92221
2.52115 6.81776
2.69965 8.42809
2.87818 8.84566
3.05672 11.231
3.23527 15.138
3.4138 19.0234
3.59237 23.7591
3.77094 25.8072
3.9495 29.9901
4.12809 34.6901
4.30669 141.631
4.4853 57.9977
4.6639 55.9288
4.84253 68.1255
5.02118 87.2781
5.19981 365.998
5.37848 193.171
5.55716 102.537
5.73586 92.642
5.91455 94.6347
6.09328 4446.73
6.27201 81.2367
6.45075 68.0911
6.62952 62.532
6.8083 58.6926
6.98711 55.7703
7.16591 55.7952
7.34475 75.1293
7.5236 54.5583
7.70247 56.1968
7.88135 57.7442
8.06026 62.6795
8.23919 69.2398
8.41812 84.4317
8.59709 1225.32
8.77609 99.2202
8.9551 89.8732
9.13412 82.3485
9.31318 83.517
9.49226 84.7207
9.67134 95.9525
9.85047 100.446
10.0296 355.607
10.2088 409.653
10.388 104.301
10.5672 498.022
10.7465 86.6708
10.9257 78.1549
11.105 71.6805
11.2844 69.0381
11.4637 64.9817
11.6431 63.6749
11.8225 62.5504
12.002 63.732
12.1814 154.298
12.3609 68.8019
12.5405 64.68
12.72 68.5394
12.8996 71.2409
13.0792 79.3468
13.2589 247.495
13.4386 126.451
13.6183 254.599
13.7981 97.5407
13.9779 75.7927
14.1577 71.8628
14.3376 70.7505
14.5175 68.6167
14.6974 70.6319
14.8774 113.027
15.0574 147.517
15.2374 70.2969
15.4175 66.177
15.5976 65.7224
15.7778 96.6248
15.958 153.864
16.1382 61.855
16.3185 58.2073
16.4988 55.3095
16.6792 54.3536
16.8596 54.8863
17.04 55.8872
17.2205 67.1188
17.401 70.7678
17.5815 59.1116
17.7622 61.2261
17.9428 74.148
18.1237 138.066
18.3044 91.4458
18.4852 77.191
18.666 60.3224
18.8469 57.6781
19.0278 56.7255
19.2088 59.621
19.3898 75.4392
19.5709 54.0384
19.752 53.2694
19.9332 56.1086
20.1144 69.2486
20.2957 63.8502
20.477 53.7127
20.6586 49.6654
20.84 48.8639
21.0215 48.6236
21.203 50.8596
21.3846 48.7583
21.5662 48.7925
21.7479 52.7282
21.9297 64.2109
22.1115 55.802
22.2933 49.8032
22.4753 48.7427
22.6572 48.9438
22.8393 52.0859
23.0214 57.1928
23.2037 48.7966
23.3859 49.818
23.5682 56.7697
23.7505 48.3961
23.9329 45.122
24.1154 44.0202
24.2979 43.4101
24.4805 42.8027
24.6631 42.6734
24.8458 42.0953
25.0286 42.7655
25.2114 44.6905
25.3943 44.3561
25.5773 40.9616
25.7605 40.4686
25.9436 40.937
26.1268 41.55
26.31 39.9564
26.4933 40.755
26.6767 42.1071
26.8601 40.3348
27.0437 38.8304
27.2272 38.4983
27.4109 38.4603
27.5946 38.3343
27.7784 37.8704
27.9623 38.449
28.1462 38.6386
28.3304 37.2466
28.5145 35.9086
28.6987 35.5918
28.8829 35.369
29.0673 34.6336
29.2517 34.3264
29.4361 34.0359
29.6207 33.0676
29.8053 32.8841
29.99 32.5507
30.1748 32.4979
30.3597 32.3228
30.5447 32.0781
30.7297 32.2052
30.915 31.539
31.1002 31.1287
31.2855 30.8068
31.4708 30.7412
31.6563 30.2912
31.8418 30.0395
32.0275 29.8713
32.2132 29.3043
32.399 28.9478
32.5848 28.3614
32.7708 28.0617
32.9569 27.9916
33.143 27.7486
33.3293 27.296
33.5158 26.9994
33.7022 26.6138
33.8887 26.2139
34.0753 25.9832
34.262 25.5668
34.4488 25.2942
34.6357 24.9608
34.8227 24.6196
35.0098 24.4825
35.1969 24.1346
35.3842 23.9117
35.5716 23.7206
35.759 23.4861
35.9468 23.1531
36.1345 22.8609
36.3222 22.633
36.5101 22.3454
36.6981 22.0889
36.8861 21.7546
37.0743 21.4723
37.2626 21.1668
37.451 20.9477
37.6395 20.8308
37.8281 20.3971
38.0168 20.1414
38.2056 19.9126
38.3945 19.6755
38.5837 19.4384
38.7728 19.1732
38.9621 18.9326
39.1514 18.6875
39.3409 18.4235
39.5304 18.2346
39.7201 18.0383
39.9099 17.8214
40.0999 17.5742
40.2899 17.3493
40.48 17.1134
40.6703 16.868
40.8607 16.7353
41.0512 16.4918
41.242 16.2616
41.4327 16.0966
41.6236 15.8089
41.8146 15.6194
42.0057 15.3473
42.1969 15.194
42.3882 15.0141
42.5797 14.7755
42.7713 14.5736
42.963 14.4349
43.1549 14.1972
43.3468 14.0239
43.5389 13.7993
43.7312 13.59
43.9237 13.4267
44.1162 13.2254
44.3088 13.1131
44.5016 12.8944
44.6945 12.6894
44.8875 12.5305
45.0806 12.3622
45.2739 12.1858
45.4673 11.9735
45.6609 11.8098
45.8546 11.6735
46.0484 11.5006
46.2424 11.3307
46.4365 11.2119
46.631 11.0183
46.8254 10.8658
47.0199 10.7165
47.2146 10.5442
47.4095 10.3662
47.6044 10.2066
47.7996 10.0757
47.9948 9.92625
48.1902 9.75577
48.3858 9.62703
48.5815 9.54038
48.7774 9.35355
48.9734 9.22799
49.1696 9.09681
49.3661 8.9212
49.5626 8.77052
49.7592 8.66869
49.956 8.55512
50.153 8.41631
50.3501 8.27238
50.5474 8.20079
50.7448 8.00274
50.9424 7.91477
51.1402 7.79608
51.3381 7.68635
51.5362 7.52271
51.7344 7.39496
51.9328 7.30162
52.1316 7.1775
52.3304 7.06265
52.5293 6.94724
52.7284 6.82331
52.9276 6.70561
53.1271 6.62356
53.3267 6.52536
53.5265 6.38965
53.7264 6.29631
53.9266 6.17837
54.1269 6.02845
54.3274 5.96637
54.528 5.80948
54.7289 5.67966
54.9301 5.43931
55.1314 5.38814
55.3328 5.1729
55.5344 4.93906
55.7361 4.8573

File: Ni3Fe_FD0720.xy
TT I
1.27165 7.60657
1.45013 6.35215
1.62863 5.77266
1.80712 5.01496
1.98562 5.14983
2.16411 5.21166
2.34263 5.60084
2.52115 6.3119
2.69965 7.89292
2.87818 8.77344
3.05672 11.0323
3.23527 15.3758
3.4138 18.5188
3.59237 23.682
3.77094 26.1974
3.9495 29.588
4.12809 34.5557
4.30669 151.076
4.4853 58.2279
4.6639 55.4422
4.84253 68.0213
5.02118 87.7025
5.19981 362.202
5.37848 191.378
5.55716 102.657
5.73586 92.7701
5.91455 94.6968
6.09328 4428.0
6.27201 81.8104
6.45075 68.0761
6.62952 62.6365
6.8083 58.8835
6.98711 55.8945
7.16591 55.6162
7.34475 77.3162
7.5236 54.6303
7.70247 56.3723
7.88135 57.595
8.06026 62.0485
8.23919 69.155
8.41812 84.6652
8.59709 1217.28
8.77609 98.9733
8.9551 89.8167
9.13412 82.4783
9.31318 83.1148
9.49226 84.6633
9.67134 96.3107
9.85047 100.664
10.0296 353.434
10.2088 408.92
10.388 104.47
10.5672 504.805
10.7465 86.4573
10.9257 77.9212
11.105 71.2661
11.2844 69.4778
11.4637 64.6087
11.6431 63.3068
11.8225 62.1054
12.002 63.5977
12.1814 154.805
12.3609 68.6214
12.5405 64.5497
12.72 68.6664
12.8996 71.1446
13.0792 78.9729
13.2589 246.911
13.4386 126.216
13.6183 254.542
13.7981 97.7002
13.9779 75.8703
14.1577 72.0333
14.3376 70.8401
14.5175 68.7409
14.6974 70.3859
14.8774 113.208
15.0574 146.884
15.2374 70.2515
15.4175 66.259
15.5976 65.7423
15.7778 96.543
15.958 153.919
16.1382 61.9466
16.3185 58.182
16.4988 55.2584
16.6792 54.2191
16.8596 54.8587
17.04 55.661
17.2205 67.1805
17.401 71.0503
17.5815 59.145
17.7622 61.2726
17.9428 73.7866
18.1237 137.503
18.3044 91.3576
18.4852 77.2302
18.666 60.2057
18.8469 58.003
19.0278 56.7129
19.2088 59.3365
19.3898 75.3578
19.5709 54.2448
19.752 53.386
19.9332 56.1384
20.1144 69.1342
20.2957 63.633
20.477 53.5657
20.6586 49.7144
20.84 48.6702
21.0215 48.5201
21.203 50.708
21.3846 48.8582
21.5662 48.8382
21.7479 52.6705
21.9297 64.3311
22.1115 55.7874
22.2933 49.7195
22.4753 48.6558
22.6572 48.8996
22.8393 52.2312
23.0214 57.0246
23.2037 48.6121
23.3859 49.7538
23.5682 56.851
23.7505 48.1471
23.9329 45.2372
24.1154 43.9918
24.2979 43.4957
24.4805 42.7881
24.6631 42.7336
24.8458 42.1327
25.0286 42.845
25.2114 44.5996
25.3943 44.4076
25.5773 41.0153
25.7605 40.4142
25.9436 40.8336
26.1268 41.5988
26.31 40.1203
26.4933 40.7788
26.6767 42.0329
26.8601 40.5043
27.0437 38.7561
27.2272 38.4802
27.4109 38.4533
27.5946 38.3308
27.7784 37.8972
27.9623 38.4635
28.1462 38.8715
28.3304 37.0007
28.5145 35.8599
28.6987 35.5726
28.8829 35.4384
29.0673 34.6522
29.2517 34.2908
29.4361 34.0406
29.6207 33.1001
29.8053 32.8861
29.99 32.5264
30.1748 32.3898
30.3597 32.2278
30.5447 32.0612
30.7297 32.1069
30.915 31.6141
31.1002 31.1345
31.2855 30.8446
31.4708 30.6636
31.6563 30.3407
31.8418 30.1002
32.0275 29.8755
32.2132 29.3357
32.399 28.8629
32.5848 28.4261
32.7708 28.0599
32.9569 28.001
33.143 27.7402
33.3293 27.2206
33.5158 26.9683
33.7022 26.5532
33.8887 26.2255
34.0753 25.9833
34.262 25.5799
34.4488 25.2465
34.6357 24.9318
34.8227 24.6677
35.0098 24.4241
35.1969 24.2332
35.3842 23.9152
35.5716 23.7256
35.759 23.4658
35.9468 23.1182
36.1345 22.882
36.3222 22.5973
36.5101 22.3748
36.6981 22.0292
36.8861 21.8024
37.0743 21.4597
37.2626 21.2286
37.451 20.9737
37.6395 20.7453
37.8281 20.4744
38.0168 20.1213
38.2056 19.9409
38.3945 19.6317
38.5837 19.4171
38.7728 19.1573
38.9621 18.9664
39.1514 18.6671
39.3409 18.4199
39.5304 18.1779
39.7201 18.0006
39.9099 17.8506
40.0999 17.5311
40.2899 17.3176
40.48 17.0675
40.6703 16.864
40.8607 16.7117
41.0512 16.4888
41.242 16.2208
41.4327 16.0465
41.6236 15.8048
41.8146 15.6022
42.0057 15.347
42.1969 15.1507
42.3882 15.0276
42.5797 14.8044
42.7713 14.6767
42.963 14.3908
43.1549 14.1983
43.3468 14.0207
43.5389 13.7882
43.7312 13.5902
43.9237 13.4306
44.1162 13.2421
44.3088 13.0636
44.5016 12.8663
44.6945 12.6877
44.8875 12.5701
45.0806 12.3399
45.2739 12.1648
45.4673 12.0222
45.6609 11.8326
45.8546 11.6654
46.0484 11.4884
46.2424 11.3598
46.4365 11.2158
46.631 10.9872
46.8254 10.8411
47.0199 10.6646
47.2146 10.5343
47.4095 10.4289
47.6044 10.2135
47.7996 10.029
47.9948 9.9152
48.1902 9.76058
48.3858 9.61142
48.5815 9.50489
48.7774 9.35985
48.9734 9.23334
49.1696 9.0746
49.3661 8.92474
49.5626 8.77264
49.7592 8.65717
49.956 8.56261
50.153 8.41711
50.3501 8.27896
50.5474 8.16929
50.7448 8.02741
50.9424 7.91076
51.1402 7.77974
51.3381 7.6201
51.5362 7.51479
51.7344 7.40962
51.9328 7.28302
52.1316 7.13425
52.3304 7.05057
52.5293 6.96506
52.7284 6.85727
52.9276 6.73651
53.1271 6.58662
53.3267 6.49365
53.5265 6.35974
53.7264 6.23767
53.9266 6.15982
54.1269 6.04064
54.3274 5.92316
54.528 5.86485
54.7289 5.62114
54.9301 5.52991
55.1314 5.31759
55.3328 5.15844
55.5344 4.9379
55.7361 4.79858

File: Ni3Fe_FD0721.xy
TT I
1.27165 7.3852
1.45013 6.70958
1.62863 4.9854
1.80712 4.97204
1.98562 4.61878
2.16411 4.85724
2.34263 5.39766
2.52115 6.56626
2.69965 8.13429
2.87818 8.75361
3.05672 11.2496
3.23527 15.1549
3.4138 18.8322
3.59237 23.4161
3.77094 26.1079
3.9495 29.644
4.12809 34.5033
4.30669 159.009
4.4853 59.2258
4.6639 55.4391
4.84253 67.2454
5.02118 86.8451
5.19981 355.378
5.37848 190.038
5.55716 102.423
5.73586 92.406
5.91455 94.3676
6.09328 4434.59
6.27201 82.3596
6.45075 67.9157
6.62952 62.7416
6.8083 58.6996
6.98711 55.7423
7.16591 55.6969
7.34475 78.7933
7.5236 54.2861
7.70247 56.209
7.88135 57.7009
8.06026 62.2627
8.23919 69.3327
8.41812 84.8439
8.59709 1224.27
8.77609 98.7547
8.9551 90.3716
9.13412 82.174
9.31318 82.6071
9.49226 84.9716
9.67134 96.4496
9.85047 100.096
10.0296 349.159
10.2088 408.311
10.388 104.08
10.5672 500.384
10.7465 86.3571
10.9257 77.8744
11.105 71.5825
11.2844 69.3241
11.4637 64.6284
11.6431 63.3877
11.8225 62.1983
12.002 63.3674
12.1814 153.88
12.3609 68.8745
12.5405 64.3626
12.72 68.9777
12.8996 70.9782
13.0792 78.9923
13.2589 245.501
13.4386 126.196
13.6183 254.897
13.7981 97.5321
13.9779 75.4762
14.1577 72.1935
14.3376 70.9441
14.5175 68.4944
14.6974 70.4115
14.8774 112.848
15.0574 147.228
15.2374 70.3348
15.4175 66.0995
15.5976 65.7163
15.7778 96.0975
15.958 154.152
16.1382 61.9141
16.3185 58.2714
16.4988 55.4529
16.6792 54.4113
16.8596 55.0247
17.04 55.8023
17.2205 67.1796
17.401 70.6832
17.5815 58.989
17.7622 61.1743
17.9428 73.8433
18.1237 138.297
18.3044 91.0791
18.4852 77.2842
18.666 60.0941
18.8469 58.0394
19.0278 56.7041
19.2088 59.2377
19.3898 75.236
19.5709 54.1164
19.752 53.25
19.9332 56.2151
20.1144 69.0889
20.2957 63.8228
20.477 53.5233
20.6586 49.6183
20.84 48.6394
21.0215 48.4437
21.203 50.6305
21.3846 48.944
21.5662 48.8377
21.7479 52.682
21.9297 64.4129
22.1115 55.9345
22.2933 49.8078
22.4753 48.7282
22.6572 48.6715
22.8393 52.0187
23.0214 57.1769
23.2037 48.7511
23.3859 49.7159
23.5682 56.8189
23.7505 48.0791
23.9329 45.1171
24.1154 44.1482
24.2979 43.4057
24.4805 42.8561
24.6631 42.7967
24.8458 42.2016
25.0286 42.9079
25.2114 44.5722
25.3943 44.3299
25.5773 40.8677
25.7605 40.3137
25.9436 40.8213
26.1268 41.4909
26.31 39.9361
26.4933 40.6476
26.6767 42.0256
26.8601 40.3731
27.0437 38.781
27.2272 38.486
27.4109 38.2705
27.5946 38.3403
27.7784 37.76
27.9623 38.3473
28.1462 38.7218
28.3304 37.0081
28.5145 36.0321
28.6987 35.5138
28.8829 35.4343
29.0673 34.6531
29.2517 34.3335
29.4361 33.9408
29.6207 33.086
29.8053 32.822
29.99 32.5783
30.1748 32.4312
30.3597 32.2387
30.5447 32.0505
30.7297 32.1457
30.915 31.5464
31.1002 30.9488
31.2855 30.8893
31.4708 30.8589
31.6563 30.3323
31.8418 30.126
32.0275 29.8312
32.2132 29.2822
32.399 28.8864
32.5848 28.3793
32.7708 28.0738
32.9569 27.932
33.143 27.7211
33.3293 27.2997
33.5158 27.0112
33.7022 26.5827
33.8887 26.2911
34.0753 25.8765
34.262 25.631
34.4488 25.2698
34.6357 24.8706
34.8227 24.6618
35.0098 24.4436
35.1969 24.2035
35.3842 23.943
35.5716 23.6634
35.759 23.3862
35.9468 23.1752
36.1345 22.7882
36.3222 22.6193
36.5101 22.3581
36.6981 22.1009
36.8861 21.7658
37.0743 21.5236
37.2626 21.3179
37.451 20.94
37.6395 20.7744
37.8281 20.4181
38.0168 20.145
38.2056 19.916
38.3945 19.6207
38.5837 19.4339
38.7728 19.2153
38.9621 18.9521
39.1514 18.6457
39.3409 18.3782
39.5304 18.2379
39.7201 17.989
39.9099 17.8426
40.0999 17.5542
40.2899 17.3189
40.48 17.0786
40.6703 16.8632
40.8607 16.7404
41.0512 16.4448
41.242 16.1735
41.4327 16.0664
41.6236 15.8409
41.8146 15.6151
42.0057 15.3744
42.1969 15.2027
42.3882 14.9913
42.5797 14.7902
42.7713 14.5579
42.963 14.333
43.1549 14.2116
43.3468 13.9524
43.5389 13.7935
43.7312 13.6412
43.9237 13.4111
44.1162 13.286
44.3088 13.0635
44.5016 12.8554
44.6945 12.7271
44.8875 12.5534
45.0806 12.3894
45.2739 12.2033
45.4673 12.0268
45.6609 11.8601
45.8546 11.6832
46.0484 11.4954
46.2424 11.346
46.4365 11.1692
46.631 10.9667
46.8254 10.8613
47.0199 10.7088
47.2146 10.5562
47.4095 10.373
47.6044 10.196
47.7996 10.0466
47.9948 9.90272
48.1902 9.79225
48.3858 9.64652
48.5815 9.48533
48.7774 9.3817
48.9734 9.20432
49.1696 9.10237
49.3661 8.93376
49.5626 8.83437
49.7592 8.71996
49.956 8.55026
50.153 8.40379
50.3501 8.30245
50.5474 8.16159
50.7448 8.10305
50.9424 7.95142
51.1402 7.78843
51.3381 7.64224
51.5362 7.53507
51.7344 7.39529
51.9328 7.27089
52.1316 7.13089
52.3304 7.08011
52.5293 6.9505
52.7284 6.83007
52.9276 6.73226
53.1271 6.60102
53.3267 6.52977
53.5265 6.39695
53.7264 6.2459
53.9266 6.12983
54.1269 6.05217
54.3274 5.95865
54.528 5.84333
54.7289 5.64765
54.9301 5.48549
55.1314 5.38852
55.3328 5.15312
55.5344 4.98172
55.7361 4.86708