Folder: NiFe_MOF_catalyst_paper/XRD (part 114)

File: Ni3Fe_FD0618.xy
TT I
1.27165 7.29422
1.45013 6.01397
1.62863 5.60991
1.80712 4.53418
1.98562 4.98495
2.16411 5.23038
2.34263 5.45163
2.52115 6.92542
2.69965 7.87836
2.87818 8.44228
3.05672 11.2069
3.23527 15.1119
3.4138 18.7336
3.59237 23.8571
3.77094 26.2047
3.9495 30.0296
4.12809 34.5942
4.30669 207.013
4.4853 64.8306
4.6639 55.6202
4.84253 67.2387
5.02118 86.9187
5.19981 353.973
5.37848 195.898
5.55716 102.765
5.73586 92.6281
5.91455 94.583
6.09328 4341.49
6.27201 83.4682
6.45075 67.79
6.62952 62.8721
6.8083 58.8866
6.98711 55.6775
7.16591 55.589
7.34475 90.4887
7.5236 54.7487
7.70247 56.5534
7.88135 58.2152
8.06026 62.8157
8.23919 69.7271
8.41812 85.5789
8.59709 1190.35
8.77609 100.556
8.9551 91.4062
9.13412 82.3253
9.31318 83.0758
9.49226 84.8444
9.67134 98.3774
9.85047 100.358
10.0296 339.693
10.2088 424.532
10.388 105.178
10.5672 501.616
10.7465 87.2465
10.9257 78.8837
11.105 72.3107
11.2844 70.6735
11.4637 64.9248
11.6431 63.7584
11.8225 62.6836
12.002 63.7486
12.1814 153.851
12.3609 71.0084
12.5405 64.7316
12.72 70.3446
12.8996 71.1435
13.0792 78.6859
13.2589 238.025
13.4386 128.672
13.6183 249.707
13.7981 100.407
13.9779 76.1961
14.1577 72.7827
14.3376 72.0105
14.5175 69.195
14.6974 70.6442
14.8774 111.652
15.0574 153.387
15.2374 71.3104
15.4175 66.7233
15.5976 65.9988
15.7778 95.2213
15.958 156.146
16.1382 63.0461
16.3185 58.9866
16.4988 55.7349
16.6792 54.8782
16.8596 55.5595
17.04 56.0125
17.2205 66.9432
17.401 73.0358
17.5815 59.6355
17.7622 61.5503
17.9428 73.9067
18.1237 138.283
18.3044 91.2534
18.4852 79.0994
18.666 60.9909
18.8469 58.4476
19.0278 57.0684
19.2088 59.9705
19.3898 76.3492
19.5709 54.5929
19.752 53.3929
19.9332 56.6434
20.1144 69.6206
20.2957 64.1159
20.477 54.2393
20.6586 49.9489
20.84 49.1406
21.0215 48.7193
21.203 51.0211
21.3846 49.2113
21.5662 49.0972
21.7479 52.721
21.9297 64.4927
22.1115 56.2098
22.2933 50.284
22.4753 49.0287
22.6572 48.9615
22.8393 52.1003
23.0214 57.8107
23.2037 48.9831
23.3859 49.9402
23.5682 56.9466
23.7505 48.8555
23.9329 45.3659
24.1154 44.3155
24.2979 43.5175
24.4805 43.1862
24.6631 42.928
24.8458 42.5283
25.0286 43.0056
25.2114 44.7415
25.3943 44.8101
25.5773 41.0862
25.7605 40.6812
25.9436 40.9721
26.1268 41.9135
26.31 40.4128
26.4933 40.9686
26.6767 42.2549
26.8601 40.6783
27.0437 39.0842
27.2272 38.6315
27.4109 38.6915
27.5946 38.6396
27.7784 37.917
27.9623 38.6731
28.1462 38.9326
28.3304 37.4411
28.5145 36.1941
28.6987 35.7599
28.8829 35.6299
29.0673 34.8376
29.2517 34.4927
29.4361 34.2991
29.6207 33.361
29.8053 32.9834
29.99 32.686
30.1748 32.524
30.3597 32.3812
30.5447 32.3271
30.7297 32.4214
30.915 31.8221
31.1002 31.263
31.2855 31.027
31.4708 30.9652
31.6563 30.5154
31.8418 30.3947
32.0275 30.1097
32.2132 29.4786
32.399 29.0269
32.5848 28.6347
32.7708 28.2342
32.9569 28.1055
33.143 28.0086
33.3293 27.573
33.5158 27.1516
33.7022 26.7975
33.8887 26.5044
34.0753 26.1052
34.262 25.7928
34.4488 25.3921
34.6357 25.1946
34.8227 24.8932
35.0098 24.6515
35.1969 24.3738
35.3842 24.0892
35.5716 23.8912
35.759 23.5336
35.9468 23.179
36.1345 23.0369
36.3222 22.8044
36.5101 22.5279
36.6981 22.2321
36.8861 21.9089
37.0743 21.6349
37.2626 21.3941
37.451 21.1087
37.6395 20.9989
37.8281 20.592
38.0168 20.3387
38.2056 20.0665
38.3945 19.7771
38.5837 19.5396
38.7728 19.3394
38.9621 19.0826
39.1514 18.8135
39.3409 18.5694
39.5304 18.3857
39.7201 18.2484
39.9099 17.8824
40.0999 17.7266
40.2899 17.4579
40.48 17.2128
40.6703 17.0464
40.8607 16.8113
41.0512 16.6661
41.242 16.3791
41.4327 16.1146
41.6236 15.9528
41.8146 15.7278
42.0057 15.4891
42.1969 15.2757
42.3882 15.1024
42.5797 14.9404
42.7713 14.7103
42.963 14.4677
43.1549 14.3225
43.3468 14.0774
43.5389 13.9206
43.7312 13.6828
43.9237 13.5533
44.1162 13.314
44.3088 13.1566
44.5016 12.9456
44.6945 12.7972
44.8875 12.5985
45.0806 12.4296
45.2739 12.3057
45.4673 12.1265
45.6609 11.9438
45.8546 11.7616
46.0484 11.6154
46.2424 11.4202
46.4365 11.2563
46.631 11.0936
46.8254 10.8977
47.0199 10.7769
47.2146 10.6748
47.4095 10.4194
47.6044 10.2804
47.7996 10.1702
47.9948 10.011
48.1902 9.83301
48.3858 9.723
48.5815 9.61287
48.7774 9.45787
48.9734 9.27951
49.1696 9.17986
49.3661 9.00597
49.5626 8.85609
49.7592 8.74143
49.956 8.62986
50.153 8.47919
50.3501 8.35068
50.5474 8.22096
50.7448 8.11105
50.9424 7.94128
51.1402 7.88044
51.3381 7.69015
51.5362 7.61129
51.7344 7.45375
51.9328 7.35574
52.1316 7.24011
52.3304 7.10953
52.5293 6.94757
52.7284 6.91504
52.9276 6.75958
53.1271 6.6555
53.3267 6.51661
53.5265 6.38632
53.7264 6.29626
53.9266 6.17674
54.1269 6.07592
54.3274 5.99947
54.528 5.83374
54.7289 5.65346
54.9301 5.54076
55.1314 5.43163
55.3328 5.16441
55.5344 4.95221
55.7361 4.81272

File: Ni3Fe_FD0619.xy
TT I
1.27165 7.51509
1.45013 6.36506
1.62863 5.46845
1.80712 5.93241
1.98562 4.36682
2.16411 5.35896
2.34263 5.59417
2.52115 6.68051
2.69965 7.35428
2.87818 8.60557
3.05672 11.1601
3.23527 15.191
3.4138 18.8485
3.59237 24.5934
3.77094 25.9528
3.9495 30.3358
4.12809 34.8085
4.30669 209.63
4.4853 65.0542
4.6639 55.8407
4.84253 67.6112
5.02118 87.4433
5.19981 353.921
5.37848 194.857
5.55716 102.69
5.73586 92.8695
5.91455 94.6149
6.09328 4331.32
6.27201 83.9729
6.45075 68.0655
6.62952 63.1458
6.8083 58.781
6.98711 56.1368
7.16591 55.6144
7.34475 90.1461
7.5236 55.2026
7.70247 56.4114
7.88135 58.1762
8.06026 62.787
8.23919 70.0876
8.41812 85.4277
8.59709 1189.68
8.77609 100.4
8.9551 91.882
9.13412 82.8726
9.31318 83.0297
9.49226 84.9946
9.67134 98.9792
9.85047 100.419
10.0296 340.208
10.2088 419.356
10.388 105.605
10.5672 501.52
10.7465 87.0984
10.9257 78.8637
11.105 72.4738
11.2844 70.8712
11.4637 65.2944
11.6431 63.9712
11.8225 62.9519
12.002 63.859
12.1814 154.46
12.3609 71.0138
12.5405 65.1278
12.72 70.1476
12.8996 71.3347
13.0792 79.2346
13.2589 239.54
13.4386 127.95
13.6183 249.652
13.7981 99.9866
13.9779 76.3028
14.1577 72.9072
14.3376 72.1504
14.5175 69.111
14.6974 71.0685
14.8774 111.365
15.0574 151.092
15.2374 71.6538
15.4175 66.6517
15.5976 66.3167
15.7778 95.4433
15.958 155.572
16.1382 63.0836
16.3185 59.0343
16.4988 55.7399
16.6792 54.9364
16.8596 55.8131
17.04 56.2234
17.2205 67.3138
17.401 72.8353
17.5815 59.5344
17.7622 61.7131
17.9428 73.8935
18.1237 138.205
18.3044 91.0147
18.4852 78.6413
18.666 60.9316
18.8469 58.3992
19.0278 57.33
19.2088 59.9422
19.3898 76.364
19.5709 54.5689
19.752 53.6196
19.9332 56.4778
20.1144 69.8609
20.2957 64.3458
20.477 54.2268
20.6586 50.0688
20.84 49.1669
21.0215 48.8781
21.203 51.0872
21.3846 49.2943
21.5662 49.1456
21.7479 52.84
21.9297 64.7382
22.1115 56.4698
22.2933 50.2554
22.4753 49.2255
22.6572 49.0956
22.8393 52.3513
23.0214 57.6156
23.2037 49.0471
23.3859 49.933
23.5682 56.977
23.7505 48.6939
23.9329 45.5091
24.1154 44.3588
24.2979 43.7522
24.4805 43.1354
24.6631 43.1115
24.8458 42.531
25.0286 43.036
25.2114 44.8242
25.3943 44.7861
25.5773 41.0781
25.7605 40.5956
25.9436 41.0865
26.1268 41.8392
26.31 40.3499
26.4933 40.8422
26.6767 42.335
26.8601 40.6616
27.0437 39.1487
27.2272 38.7202
27.4109 38.7051
27.5946 38.6125
27.7784 38.2026
27.9623 38.5525
28.1462 39.0818
28.3304 37.2973
28.5145 36.2757
28.6987 35.8159
28.8829 35.5719
29.0673 34.848
29.2517 34.5324
29.4361 34.366
29.6207 33.2513
29.8053 33.0971
29.99 32.7435
30.1748 32.5896
30.3597 32.3756
30.5447 32.3301
30.7297 32.4448
30.915 31.7522
31.1002 31.2276
31.2855 30.9901
31.4708 30.9217
31.6563 30.5583
31.8418 30.3094
32.0275 30.1258
32.2132 29.5158
32.399 29.0522
32.5848 28.6549
32.7708 28.285
32.9569 28.1021
33.143 27.9828
33.3293 27.5826
33.5158 27.2127
33.7022 26.6985
33.8887 26.4607
34.0753 26.072
34.262 25.8517
34.4488 25.4157
34.6357 25.1334
34.8227 24.8536
35.0098 24.5996
35.1969 24.3993
35.3842 24.1459
35.5716 23.8574
35.759 23.6361
35.9468 23.2512
36.1345 22.9802
36.3222 22.8098
36.5101 22.5636
36.6981 22.2404
36.8861 21.9533
37.0743 21.5959
37.2626 21.3492
37.451 21.1004
37.6395 20.9259
37.8281 20.579
38.0168 20.3472
38.2056 20.0392
38.3945 19.7498
38.5837 19.53
38.7728 19.327
38.9621 19.1019
39.1514 18.8704
39.3409 18.5646
39.5304 18.3215
39.7201 18.1713
39.9099 17.9191
40.0999 17.6474
40.2899 17.4192
40.48 17.2076
40.6703 17.0015
40.8607 16.8347
41.0512 16.6061
41.242 16.3439
41.4327 16.1556
41.6236 15.9155
41.8146 15.752
42.0057 15.4977
42.1969 15.2947
42.3882 15.0552
42.5797 14.9158
42.7713 14.7473
42.963 14.574
43.1549 14.3216
43.3468 14.1151
43.5389 13.925
43.7312 13.7052
43.9237 13.4642
44.1162 13.3365
44.3088 13.1694
44.5016 12.9579
44.6945 12.8255
44.8875 12.6146
45.0806 12.4307
45.2739 12.2491
45.4673 12.0969
45.6609 11.9144
45.8546 11.8022
46.0484 11.6018
46.2424 11.436
46.4365 11.322
46.631 11.075
46.8254 10.9242
47.0199 10.7576
47.2146 10.6429
47.4095 10.467
47.6044 10.2946
47.7996 10.119
47.9948 9.98664
48.1902 9.84545
48.3858 9.72532
48.5815 9.58027
48.7774 9.43851
48.9734 9.29086
49.1696 9.17488
49.3661 9.03558
49.5626 8.82358
49.7592 8.73186
49.956 8.62528
50.153 8.46254
50.3501 8.33195
50.5474 8.213
50.7448 8.13778
50.9424 7.97554
51.1402 7.83627
51.3381 7.67259
51.5362 7.6107
51.7344 7.48468
51.9328 7.31789
52.1316 7.21868
52.3304 7.12013
52.5293 7.00722
52.7284 6.89532
52.9276 6.74933
53.1271 6.65137
53.3267 6.52098
53.5265 6.42983
53.7264 6.31197
53.9266 6.17191
54.1269 6.08517
54.3274 5.99425
54.528 5.83723
54.7289 5.71146
54.9301 5.50345
55.1314 5.38596
55.3328 5.15943
55.5344 4.98125
55.7361 4.83739

File: Ni3Fe_FD0620.xy
TT I
1.27165 7.33515
1.45013 6.34043
1.62863 5.27701
1.80712 4.56716
1.98562 4.59365
2.16411 4.58237
2.34263 5.31286
2.52115 7.47196
2.69965 7.91711
2.87818 8.26875
3.05672 10.7042
3.23527 15.6057
3.4138 19.1751
3.59237 23.9949
3.77094 26.3732
3.9495 30.028
4.12809 35.3031
4.30669 212.354
4.4853 65.3406
4.6639 55.8677
4.84253 66.8749
5.02118 87.4923
5.19981 351.341
5.37848 194.879
5.55716 102.705
5.73586 92.291
5.91455 94.1068
6.09328 4415.07
6.27201 83.6038
6.45075 67.7334
6.62952 62.9882
6.8083 59.1148
6.98711 56.0032
7.16591 55.7224
7.34475 91.5346
7.5236 55.1032
7.70247 56.5439
7.88135 58.1421
8.06026 62.4906
8.23919 70.0909
8.41812 85.4387
8.59709 1181.1
8.77609 100.52
8.9551 91.5331
9.13412 82.0764
9.31318 82.3554
9.49226 85.0588
9.67134 98.7117
9.85047 100.111
10.0296 340.187
10.2088 425.171
10.388 104.926
10.5672 501.363
10.7465 87.0973
10.9257 78.6547
11.105 71.8892
11.2844 70.8635
11.4637 65.1881
11.6431 63.8903
11.8225 62.3934
12.002 63.6789
12.1814 153.171
12.3609 70.7499
12.5405 64.915
12.72 70.3882
12.8996 71.4839
13.0792 78.8861
13.2589 237.564
13.4386 129.302
13.6183 248.075
13.7981 100.49
13.9779 76.1638
14.1577 72.9592
14.3376 72.0336
14.5175 69.3684
14.6974 70.7693
14.8774 110.832
15.0574 151.935
15.2374 71.3754
15.4175 66.7668
15.5976 65.9563
15.7778 94.975
15.958 156.708
16.1382 63.0123
16.3185 58.8435
16.4988 55.8599
16.6792 54.7264
16.8596 55.5974
17.04 56.0796
17.2205 66.933
17.401 73.2098
17.5815 59.4876
17.7622 61.5961
17.9428 74.0536
18.1237 138.851
18.3044 90.8694
18.4852 79.0903
18.666 60.7543
18.8469 58.2613
19.0278 57.3417
19.2088 59.9644
19.3898 76.446
19.5709 54.423
19.752 53.6339
19.9332 56.4322
20.1144 69.6477
20.2957 64.121
20.477 54.2257
20.6586 49.9063
20.84 48.8655
21.0215 48.7388
21.203 51.1009
21.3846 49.1618
21.5662 48.952
21.7479 52.7996
21.9297 64.4945
22.1115 56.3961
22.2933 50.1936
22.4753 49.1405
22.6572 49.1311
22.8393 52.0673
23.0214 57.7826
23.2037 49.1309
23.3859 49.884
23.5682 57.0475
23.7505 48.7378
23.9329 45.4867
24.1154 44.3733
24.2979 43.7331
24.4805 43.1517
24.6631 43.2144
24.8458 42.3986
25.0286 42.9573
25.2114 44.8811
25.3943 44.7775
25.5773 41.2592
25.7605 40.7132
25.9436 41.0527
26.1268 41.8568
26.31 40.2657
26.4933 40.9741
26.6767 42.3084
26.8601 40.6215
27.0437 39.1322
27.2272 38.8785
27.4109 38.7302
27.5946 38.615
27.7784 38.2007
27.9623 38.5857
28.1462 39.0373
28.3304 37.3734
28.5145 36.1985
28.6987 35.7683
28.8829 35.555
29.0673 34.7702
29.2517 34.4622
29.4361 34.3172
29.6207 33.4042
29.8053 33.1446
29.99 32.6633
30.1748 32.5286
30.3597 32.2987
30.5447 32.3112
30.7297 32.3564
30.915 31.7854
31.1002 31.3202
31.2855 31.0753
31.4708 31.009
31.6563 30.5701
31.8418 30.3161
32.0275 30.024
32.2132 29.5639
32.399 29.0448
32.5848 28.6818
32.7708 28.242
32.9569 28.2058
33.143 27.9354
33.3293 27.6132
33.5158 27.1574
33.7022 26.8034
33.8887 26.4386
34.0753 26.1352
34.262 25.8297
34.4488 25.4091
34.6357 25.0955
34.8227 24.8812
35.0098 24.6314
35.1969 24.2538
35.3842 24.1355
35.5716 23.9426
35.759 23.6315
35.9468 23.2486
36.1345 22.9354
36.3222 22.7822
36.5101 22.5514
36.6981 22.1862
36.8861 21.8965
37.0743 21.6934
37.2626 21.3495
37.451 21.1017
37.6395 20.9956
37.8281 20.6681
38.0168 20.258
38.2056 20.0858
38.3945 19.8104
38.5837 19.4819
38.7728 19.2979
38.9621 19.0962
39.1514 18.8132
39.3409 18.5897
39.5304 18.316
39.7201 18.2161
39.9099 17.9269
40.0999 17.6924
40.2899 17.4942
40.48 17.1979
40.6703 17.044
40.8607 16.8573
41.0512 16.608
41.242 16.3236
41.4327 16.1671
41.6236 15.9095
41.8146 15.7272
42.0057 15.5218
42.1969 15.307
42.3882 15.0984
42.5797 14.9012
42.7713 14.713
42.963 14.5294
43.1549 14.2643
43.3468 14.1425
43.5389 13.922
43.7312 13.7073
43.9237 13.5424
44.1162 13.3547
44.3088 13.1436
44.5016 12.9784
44.6945 12.801
44.8875 12.5895
45.0806 12.4284
45.2739 12.2752
45.4673 12.1398
45.6609 11.9479
45.8546 11.7805
46.0484 11.6099
46.2424 11.4539
46.4365 11.3222
46.631 11.0995
46.8254 10.9226
47.0199 10.8015
47.2146 10.6604
47.4095 10.4779
47.6044 10.3081
47.7996 10.1357
47.9948 9.99775
48.1902 9.84983
48.3858 9.72449
48.5815 9.57198
48.7774 9.42815
48.9734 9.30761
49.1696 9.16203
49.3661 8.98277
49.5626 8.88809
49.7592 8.74691
49.956 8.62009
50.153 8.49735
50.3501 8.36651
50.5474 8.20792
50.7448 8.10033
50.9424 7.98432
51.1402 7.84432
51.3381 7.75152
51.5362 7.58445
51.7344 7.4639
51.9328 7.29663
52.1316 7.23391
52.3304 7.11856
52.5293 6.99598
52.7284 6.89231
52.9276 6.77114
53.1271 6.64439
53.3267 6.55785
53.5265 6.39159
53.7264 6.31828
53.9266 6.22579
54.1269 6.06425
54.3274 5.94575
54.528 5.81798
54.7289 5.69704
54.9301 5.52112
55.1314 5.40329
55.3328 5.18197
55.5344 4.98967
55.7361 4.87552

File: Ni3Fe_FD0621.xy
TT I
1.27165 7.33171
1.45013 5.52188
1.62863 5.77268
1.80712 5.07949
1.98562 4.86076
2.16411 4.54333
2.34263 5.0732
2.52115 6.96475
2.69965 7.73659
2.87818 8.45805
3.05672 10.8136
3.23527 14.8617
3.4138 19.323
3.59237 23.8469
3.77094 25.8475
3.9495 29.4968
4.12809 34.9037
4.30669 214.304
4.4853 65.5885
4.6639 55.8308
4.84253 67.3402
5.02118 87.0817
5.19981 349.896
5.37848 194.414
5.55716 102.961
5.73586 92.6194
5.91455 94.3795
6.09328 4389.89
6.27201 83.9941
6.45075 67.4972
6.62952 63.1126
6.8083 59.121
6.98711 56.0373
7.16591 55.5716
7.34475 91.8122
7.5236 55.1185
7.70247 56.2417
7.88135 58.2713
8.06026 62.6792
8.23919 69.7595
8.41812 85.7836
8.59709 1177.21
8.77609 100.374
8.9551 91.5058
9.13412 82.0135
9.31318 82.8217
9.49226 84.785
9.67134 99.0332
9.85047 99.9878
10.0296 339.869
10.2088 424.427
10.388 104.947
10.5672 503.172
10.7465 87.4883
10.9257 78.8543
11.105 72.2124
11.2844 70.565
11.4637 65.2135
11.6431 64.126
11.8225 62.7598
12.002 63.8908
12.1814 152.996
12.3609 71.352
12.5405 64.6701
12.72 70.5201
12.8996 71.1178
13.0792 78.7545
13.2589 237.66
13.4386 128.883
13.6183 248.035
13.7981 100.229
13.9779 76.5305
14.1577 72.8755
14.3376 71.8059
14.5175 69.1823
14.6974 70.6568
14.8774 110.811
15.0574 152.13
15.2374 71.3649
15.4175 66.6811
15.5976 66.0388
15.7778 94.9362
15.958 156.452
16.1382 63.157
16.3185 59.1598
16.4988 56.0551
16.6792 54.8119
16.8596 55.4064
17.04 55.9401
17.2205 67.046
17.401 72.9294
17.5815 59.3714
17.7622 61.6383
17.9428 73.8266
18.1237 138.633
18.3044 90.72
18.4852 78.7746
18.666 60.8599
18.8469 58.3501
19.0278 57.2637
19.2088 59.8769
19.3898 76.5862
19.5709 54.4836
19.752 53.3539
19.9332 56.6261
20.1144 69.7774
20.2957 64.0911
20.477 54.1457
20.6586 50.0084
20.84 49.0439
21.0215 48.623
21.203 50.9409
21.3846 49.3239
21.5662 49.078
21.7479 52.7113
21.9297 64.6664
22.1115 56.2809
22.2933 50.1177
22.4753 49.1761
22.6572 48.8468
22.8393 52.0236
23.0214 57.428
23.2037 49.256
23.3859 49.9167
23.5682 56.9195
23.7505 48.6963
23.9329 45.5007
24.1154 44.3195
24.2979 43.7129
24.4805 43.1241
24.6631 43.0222
24.8458 42.4774
25.0286 43.0441
25.2114 44.7286
25.3943 44.8202
25.5773 41.0991
25.7605 40.54
25.9436 41.3063
26.1268 41.877
26.31 40.2764
26.4933 40.9829
26.6767 42.1923
26.8601 40.6245
27.0437 39.0899
27.2272 38.7044
27.4109 38.6403
27.5946 38.6915
27.7784 38.013
27.9623 38.5768
28.1462 39.1557
28.3304 37.5279
28.5145 36.2063
28.6987 35.7386
28.8829 35.5506
29.0673 34.8861
29.2517 34.5424
29.4361 34.2392
29.6207 33.2934
29.8053 33.1457
29.99 32.7117
30.1748 32.6027
30.3597 32.4739
30.5447 32.2884
30.7297 32.3257
30.915 31.8227
31.1002 31.3357
31.2855 31.0099
31.4708 31.0302
31.6563 30.5622
31.8418 30.349
32.0275 30.0418
32.2132 29.5997
32.399 29.0724
32.5848 28.6983
32.7708 28.2803
32.9569 28.1147
33.143 28.0597
33.3293 27.5425
33.5158 27.2189
33.7022 26.6996
33.8887 26.4948
34.0753 26.1218
34.262 25.8846
34.4488 25.4919
34.6357 25.0742
34.8227 24.8516
35.0098 24.6124
35.1969 24.2897
35.3842 24.1125
35.5716 23.8558
35.759 23.5477
35.9468 23.2014
36.1345 23.0513
36.3222 22.7566
36.5101 22.5574
36.6981 22.1824
36.8861 21.9449
37.0743 21.6255
37.2626 21.4229
37.451 21.076
37.6395 20.992
37.8281 20.65
38.0168 20.331
38.2056 20.0428
38.3945 19.7343
38.5837 19.575
38.7728 19.34
38.9621 19.0652
39.1514 18.7942
39.3409 18.5882
39.5304 18.3759
39.7201 18.163
39.9099 17.9642
40.0999 17.641
40.2899 17.4548
40.48 17.1942
40.6703 16.986
40.8607 16.8674
41.0512 16.5325
41.242 16.3737
41.4327 16.1325
41.6236 15.9411
41.8146 15.7595
42.0057 15.509
42.1969 15.2854
42.3882 15.1317
42.5797 14.9013
42.7713 14.7208
42.963 14.5175
43.1549 14.3024
43.3468 14.0496
43.5389 13.8917
43.7312 13.7172
43.9237 13.529
44.1162 13.3248
44.3088 13.1721
44.5016 12.9821
44.6945 12.7949
44.8875 12.5793
45.0806 12.4347
45.2739 12.2572
45.4673 12.0912
45.6609 11.8751
45.8546 11.783
46.0484 11.6199
46.2424 11.4133
46.4365 11.2933
46.631 11.1397
46.8254 10.9265
47.0199 10.7925
47.2146 10.5882
47.4095 10.4591
47.6044 10.2984
47.7996 10.1168
47.9948 9.96866
48.1902 9.8406
48.3858 9.76126
48.5815 9.6074
48.7774 9.42408
48.9734 9.31675
49.1696 9.13956
49.3661 9.01551
49.5626 8.87899
49.7592 8.74937
49.956 8.63458
50.153 8.48311
50.3501 8.31956
50.5474 8.21593
50.7448 8.09432
50.9424 7.96716
51.1402 7.84204
51.3381 7.72539
51.5362 7.59569
51.7344 7.4971
51.9328 7.33565
52.1316 7.2647
52.3304 7.10267
52.5293 6.9611
52.7284 6.91505
52.9276 6.77195
53.1271 6.61141
53.3267 6.52873
53.5265 6.40129
53.7264 6.2754
53.9266 6.22168
54.1269 6.10539
54.3274 6.00864
54.528 5.84205
54.7289 5.65617
54.9301 5.50937
55.1314 5.38356
55.3328 5.17736
55.5344 4.96705
55.7361 4.8742

File: Ni3Fe_FD0622.xy
TT I
1.27165 7.40796
1.45013 6.38455
1.62863 5.05036
1.80712 4.43067
1.98562 4.16399
2.16411 4.65367
2.34263 5.14689
2.52115 6.93031
2.69965 8.00412
2.87818 9.0777
3.05672 11.2464
3.23527 14.9407
3.4138 19.7565
3.59237 24.1351
3.77094 26.4096
3.9495 29.9942
4.12809 35.0134
4.30669 218.373
4.4853 65.4292
4.6639 55.7933
4.84253 67.2732
5.02118 87.0973
5.19981 348.405
5.37848 195.9
5.55716 102.689
5.73586 92.3121
5.91455 94.2316
6.09328 4378.5
6.27201 83.7606
6.45075 67.4669
6.62952 63.2564
6.8083 58.8675
6.98711 56.1209
7.16591 55.6884
7.34475 92.6096
7.5236 55.096
7.70247 56.3356
7.88135 58.1088
8.06026 62.187
8.23919 70.2454
8.41812 85.346
8.59709 1168.75
8.77609 100.51
8.9551 91.6904
9.13412 82.0662
9.31318 82.8588
9.49226 85.059
9.67134 99.1715
9.85047 100.299
10.0296 337.327
10.2088 426.305
10.388 105.036
10.5672 503.928
10.7465 87.111
10.9257 78.6579
11.105 72.0197
11.2844 70.7778
11.4637 65.1596
11.6431 63.6344
11.8225 62.6184
12.002 64.035
12.1814 152.117
12.3609 71.2588
12.5405 64.9298
12.72 70.2008
12.8996 71.1119
13.0792 78.9455
13.2589 236.827
13.4386 129.222
13.6183 246.966
13.7981 100.316
13.9779 76.1323
14.1577 72.8005
14.3376 71.8614
14.5175 68.8096
14.6974 70.7687
14.8774 110.592
15.0574 152.053
15.2374 71.5529
15.4175 66.7775
15.5976 66.2081
15.7778 94.7641
15.958 157.011
16.1382 63.112
16.3185 58.98
16.4988 55.8655
16.6792 54.8265
16.8596 55.4416
17.04 55.9698
17.2205 67.1159
17.401 73.1163
17.5815 59.5561
17.7622 61.6056
17.9428 73.8259
18.1237 138.72
18.3044 90.8539
18.4852 78.8648
18.666 60.7405
18.8469 58.2732
19.0278 57.3577
19.2088 59.9813
19.3898 76.6135
19.5709 54.697
19.752 53.5723
19.9332 56.3698
20.1144 69.8561
20.2957 64.1548
20.477 54.1894
20.6586 49.811
20.84 49.0154
21.0215 48.8771
21.203 51.0585
21.3846 49.2094
21.5662 49.0445
21.7479 52.8095
21.9297 64.6437
22.1115 56.4249
22.2933 50.2545
22.4753 49.2879
22.6572 49.2072
22.8393 52.1504
23.0214 57.6295
23.2037 49.0355
23.3859 49.9635
23.5682 56.9861
23.7505 48.7334
23.9329 45.3788
24.1154 44.2929
24.2979 43.5706
24.4805 43.1754
24.6631 43.0969
24.8458 42.5288
25.0286 42.9805
25.2114 44.8271
25.3943 44.8789
25.5773 41.1799
25.7605 40.696
25.9436 41.0322
26.1268 42.0697
26.31 40.2555
26.4933 40.9212
26.6767 42.378
26.8601 40.6609
27.0437 39.0268
27.2272 38.773
27.4109 38.5009
27.5946 38.6133
27.7784 38.0994
27.9623 38.5994
28.1462 39.0506
28.3304 37.5165
28.5145 36.1686
28.6987 35.683
28.8829 35.5867
29.0673 34.8142
29.2517 34.5618
29.4361 34.3248
29.6207 33.3459
29.8053 33.0608
29.99 32.7586
30.1748 32.5578
30.3597 32.4069
30.5447 32.3845
30.7297 32.3487
30.915 31.6923
31.1002 31.3123
31.2855 31.0722
31.4708 31.0358
31.6563 30.5822
31.8418 30.3147
32.0275 30.0732
32.2132 29.5136
32.399 29.0988
32.5848 28.647
32.7708 28.3072
32.9569 28.2144
33.143 27.8752
33.3293 27.5288
33.5158 27.1967
33.7022 26.6209
33.8887 26.4461
34.0753 26.1981
34.262 25.8076
34.4488 25.5114
34.6357 25.092
34.8227 24.8448
35.0098 24.6174
35.1969 24.3672
35.3842 24.1382
35.5716 23.9529
35.759 23.5754
35.9468 23.2304
36.1345 23.0272
36.3222 22.7714
36.5101 22.5996
36.6981 22.2055
36.8861 21.8746
37.0743 21.548
37.2626 21.4602
37.451 21.0853
37.6395 20.8793
37.8281 20.657
38.0168 20.325
38.2056 20.1257
38.3945 19.8064
38.5837 19.5227
38.7728 19.311
38.9621 19.0651
39.1514 18.8203
39.3409 18.5383
39.5304 18.3403
39.7201 18.1434
39.9099 17.9342
40.0999 17.675
40.2899 17.4748
40.48 17.1653
40.6703 16.9985
40.8607 16.8389
41.0512 16.6367
41.242 16.3762
41.4327 16.1555
41.6236 15.9393
41.8146 15.719
42.0057 15.525
42.1969 15.2993
42.3882 15.1357
42.5797 14.9168
42.7713 14.7504
42.963 14.5348
43.1549 14.3296
43.3468 14.0887
43.5389 13.9192
43.7312 13.6995
43.9237 13.5635
44.1162 13.38
44.3088 13.2025
44.5016 12.9815
44.6945 12.8261
44.8875 12.6714
45.0806 12.4422
45.2739 12.291
45.4673 12.1213
45.6609 11.9081
45.8546 11.7531
46.0484 11.6076
46.2424 11.4313
46.4365 11.2771
46.631 11.0684
46.8254 10.8952
47.0199 10.775
47.2146 10.61
47.4095 10.4591
47.6044 10.2766
47.7996 10.1257
47.9948 9.97155
48.1902 9.83181
48.3858 9.73378
48.5815 9.58463
48.7774 9.44441
48.9734 9.32408
49.1696 9.14539
49.3661 8.98842
49.5626 8.82279
49.7592 8.7527
49.956 8.63787
50.153 8.48406
50.3501 8.32402
50.5474 8.20987
50.7448 8.09093
50.9424 7.95743
51.1402 7.87625
51.3381 7.74512
51.5362 7.62057
51.7344 7.48683
51.9328 7.32961
52.1316 7.20993
52.3304 7.09867
52.5293 7.00663
52.7284 6.88761
52.9276 6.75687
53.1271 6.6776
53.3267 6.57636
53.5265 6.3946
53.7264 6.32265
53.9266 6.17727
54.1269 6.06811
54.3274 5.94314
54.528 5.89947
54.7289 5.71552
54.9301 5.54304
55.1314 5.39919
55.3328 5.15559
55.5344 4.97622
55.7361 4.88008