Folder: NiFe_MOF_catalyst_paper/XRD (part 91)

File: Ni3Fe_FD0491.xy
TT I
1.27165 7.14004
1.45013 6.63245
1.62863 5.81301
1.80712 5.24989
1.98562 4.61947
2.16411 4.98879
2.34263 5.3897
2.52115 6.33348
2.69965 7.62432
2.87818 8.45007
3.05672 11.0699
3.23527 15.3164
3.4138 18.7323
3.59237 23.2105
3.77094 26.456
3.9495 29.6315
4.12809 35.1091
4.30669 168.336
4.4853 61.5832
4.6639 56.0782
4.84253 68.81
5.02118 88.7989
5.19981 437.043
5.37848 205.226
5.55716 104.466
5.73586 94.5268
5.91455 97.2916
6.09328 4205.85
6.27201 85.199
6.45075 68.2448
6.62952 63.594
6.8083 59.2705
6.98711 56.397
7.16591 55.904
7.34475 83.3259
7.5236 55.1665
7.70247 57.0391
7.88135 58.3855
8.06026 63.6287
8.23919 70.5586
8.41812 86.4922
8.59709 1212.34
8.77609 102.522
8.9551 91.1592
9.13412 83.1222
9.31318 84.3072
9.49226 85.8091
9.67134 98.1267
9.85047 101.517
10.0296 381.68
10.2088 454.771
10.388 106.861
10.5672 497.408
10.7465 87.8518
10.9257 79.2723
11.105 72.772
11.2844 70.6901
11.4637 65.9553
11.6431 64.4558
11.8225 63.1795
12.002 64.5576
12.1814 155.61
12.3609 70.6817
12.5405 65.5412
12.72 70.2097
12.8996 71.8827
13.0792 80.6933
13.2589 246.238
13.4386 131.059
13.6183 250.381
13.7981 103.129
13.9779 77.088
14.1577 73.4242
14.3376 72.1179
14.5175 70.1875
14.6974 71.4762
14.8774 115.447
15.0574 156.444
15.2374 71.5253
15.4175 67.4774
15.5976 66.876
15.7778 98.8244
15.958 157.993
16.1382 63.185
16.3185 59.4515
16.4988 56.4783
16.6792 55.3793
16.8596 56.15
17.04 56.9172
17.2205 68.4016
17.401 72.9574
17.5815 59.9953
17.7622 62.2387
17.9428 75.9825
18.1237 136.304
18.3044 91.8317
18.4852 80.3927
18.666 61.1816
18.8469 58.9578
19.0278 57.6115
19.2088 60.6972
19.3898 75.7475
19.5709 55.0577
19.752 54.0996
19.9332 57.4651
20.1144 69.7351
20.2957 64.1768
20.477 54.778
20.6586 50.4629
20.84 49.5326
21.0215 49.5809
21.203 51.5212
21.3846 49.7017
21.5662 49.6497
21.7479 53.7201
21.9297 64.7077
22.1115 56.397
22.2933 50.6706
22.4753 49.5445
22.6572 49.6645
22.8393 52.9592
23.0214 57.723
23.2037 49.5505
23.3859 50.6428
23.5682 57.0126
23.7505 49.346
23.9329 45.9734
24.1154 44.702
24.2979 44.1206
24.4805 43.736
24.6631 43.497
24.8458 42.8913
25.0286 43.5363
25.2114 45.2314
25.3943 45.0672
25.5773 41.5058
25.7605 41.0131
25.9436 41.546
26.1268 42.2971
26.31 40.7123
26.4933 41.4739
26.6767 42.7376
26.8601 41.0216
27.0437 39.4544
27.2272 39.104
27.4109 39.0006
27.5946 39.0036
27.7784 38.4527
27.9623 38.9515
28.1462 39.3148
28.3304 37.6272
28.5145 36.5503
28.6987 36.1196
28.8829 35.928
29.0673 35.3813
29.2517 34.8963
29.4361 34.6278
29.6207 33.6417
29.8053 33.4883
29.99 33.0702
30.1748 32.9571
30.3597 32.8414
30.5447 32.5936
30.7297 32.6521
30.915 32.1502
31.1002 31.6075
31.2855 31.3758
31.4708 31.2654
31.6563 30.8389
31.8418 30.5579
32.0275 30.3002
32.2132 29.8223
32.399 29.3264
32.5848 28.9729
32.7708 28.6385
32.9569 28.4811
33.143 28.16
33.3293 27.8518
33.5158 27.4564
33.7022 27.0351
33.8887 26.6834
34.0753 26.4174
34.262 26.0435
34.4488 25.6908
34.6357 25.3428
34.8227 25.109
35.0098 24.8749
35.1969 24.5889
35.3842 24.2966
35.5716 24.1518
35.759 23.8095
35.9468 23.4398
36.1345 23.2472
36.3222 23.0046
36.5101 22.7642
36.6981 22.4157
36.8861 22.1676
37.0743 21.8469
37.2626 21.5622
37.451 21.3379
37.6395 21.1413
37.8281 20.8039
38.0168 20.5186
38.2056 20.1894
38.3945 20.0082
38.5837 19.7061
38.7728 19.4287
38.9621 19.2534
39.1514 18.9929
39.3409 18.7458
39.5304 18.4988
39.7201 18.391
39.9099 18.1243
40.0999 17.8846
40.2899 17.6245
40.48 17.3909
40.6703 17.1539
40.8607 16.9805
41.0512 16.8115
41.242 16.4921
41.4327 16.3619
41.6236 16.0715
41.8146 15.9034
42.0057 15.6174
42.1969 15.4278
42.3882 15.2508
42.5797 15.0102
42.7713 14.8407
42.963 14.6216
43.1549 14.4121
43.3468 14.2072
43.5389 14.0026
43.7312 13.7952
43.9237 13.6778
44.1162 13.467
44.3088 13.2696
44.5016 13.0956
44.6945 12.9255
44.8875 12.6923
45.0806 12.5671
45.2739 12.3536
45.4673 12.1859
45.6609 12.0158
45.8546 11.8379
46.0484 11.6846
46.2424 11.5444
46.4365 11.376
46.631 11.1531
46.8254 11.0261
47.0199 10.8792
47.2146 10.7392
47.4095 10.5353
47.6044 10.3694
47.7996 10.2543
47.9948 10.0782
48.1902 9.93564
48.3858 9.76592
48.5815 9.6941
48.7774 9.55585
48.9734 9.37245
49.1696 9.24167
49.3661 9.09007
49.5626 8.97146
49.7592 8.8304
49.956 8.69528
50.153 8.55485
50.3501 8.40851
50.5474 8.3006
50.7448 8.19403
50.9424 8.02935
51.1402 7.94275
51.3381 7.77786
51.5362 7.64661
51.7344 7.5635
51.9328 7.38887
52.1316 7.25175
52.3304 7.14129
52.5293 7.02738
52.7284 6.94589
52.9276 6.86033
53.1271 6.69427
53.3267 6.6195
53.5265 6.46869
53.7264 6.39785
53.9266 6.26047
54.1269 6.14513
54.3274 6.04337
54.528 5.84807
54.7289 5.74505
54.9301 5.57145
55.1314 5.42365
55.3328 5.21882
55.5344 5.04038
55.7361 4.89307

File: Ni3Fe_FD0492.xy
TT I
1.27165 7.66144
1.45013 6.30886
1.62863 5.64524
1.80712 5.31418
1.98562 4.40233
2.16411 4.94417
2.34263 5.01754
2.52115 6.7982
2.69965 7.60139
2.87818 8.76737
3.05672 11.0087
3.23527 15.0506
3.4138 19.1223
3.59237 23.568
3.77094 26.4004
3.9495 30.1127
4.12809 34.968
4.30669 173.731
4.4853 62.2668
4.6639 56.1284
4.84253 68.3392
5.02118 88.5408
5.19981 427.83
5.37848 206.175
5.55716 104.283
5.73586 94.1801
5.91455 97.1869
6.09328 4191.9
6.27201 84.5927
6.45075 68.4645
6.62952 63.4729
6.8083 59.5932
6.98711 56.4004
7.16591 55.8675
7.34475 83.8639
7.5236 55.5392
7.70247 56.6084
7.88135 58.5018
8.06026 63.3793
8.23919 70.5761
8.41812 86.3047
8.59709 1207.98
8.77609 102.71
8.9551 91.9018
9.13412 83.5264
9.31318 84.1053
9.49226 85.3835
9.67134 98.0819
9.85047 101.635
10.0296 378.497
10.2088 462.264
10.388 106.559
10.5672 500.443
10.7465 88.2103
10.9257 79.2187
11.105 72.6523
11.2844 70.7345
11.4637 65.8863
11.6431 64.5094
11.8225 63.3765
12.002 64.632
12.1814 156.371
12.3609 70.7924
12.5405 65.463
12.72 70.0393
12.8996 72.0837
13.0792 80.2442
13.2589 246.047
13.4386 132.166
13.6183 249.702
13.7981 103.36
13.9779 76.8808
14.1577 73.2604
14.3376 72.4589
14.5175 70.0563
14.6974 71.4646
14.8774 114.772
15.0574 156.448
15.2374 71.7142
15.4175 67.5603
15.5976 66.8077
15.7778 98.5451
15.958 158.224
16.1382 63.336
16.3185 59.341
16.4988 56.349
16.6792 55.4397
16.8596 56.0069
17.04 56.8923
17.2205 68.2837
17.401 72.94
17.5815 60.0529
17.7622 62.0661
17.9428 75.6757
18.1237 135.723
18.3044 91.7004
18.4852 80.8054
18.666 61.3573
18.8469 58.8172
19.0278 57.7026
19.2088 60.5583
19.3898 75.554
19.5709 54.9365
19.752 54.2632
19.9332 57.2242
20.1144 69.9062
20.2957 64.2694
20.477 54.8657
20.6586 50.4502
20.84 49.6303
21.0215 49.5158
21.203 51.5823
21.3846 49.8669
21.5662 49.6319
21.7479 53.4577
21.9297 64.85
22.1115 56.5394
22.2933 50.8855
22.4753 49.6412
22.6572 49.798
22.8393 53.0087
23.0214 57.8066
23.2037 49.5335
23.3859 50.6084
23.5682 57.0359
23.7505 49.43
23.9329 45.9002
24.1154 44.7991
24.2979 44.0912
24.4805 43.7161
24.6631 43.4615
24.8458 42.8539
25.0286 43.6359
25.2114 45.3821
25.3943 45.1601
25.5773 41.6242
25.7605 41.1774
25.9436 41.4755
26.1268 42.2601
26.31 40.6273
26.4933 41.337
26.6767 42.5215
26.8601 41.0413
27.0437 39.4818
27.2272 39.1439
27.4109 38.9631
27.5946 38.8994
27.7784 38.5652
27.9623 38.9692
28.1462 39.4116
28.3304 37.7982
28.5145 36.5405
28.6987 36.1031
28.8829 35.9682
29.0673 35.1758
29.2517 34.8319
29.4361 34.5925
29.6207 33.5961
29.8053 33.417
29.99 33.0959
30.1748 32.8826
30.3597 32.7957
30.5447 32.6768
30.7297 32.7748
30.915 32.1199
31.1002 31.5326
31.2855 31.2756
31.4708 31.2128
31.6563 30.7989
31.8418 30.5963
32.0275 30.374
32.2132 29.7678
32.399 29.3203
32.5848 28.9223
32.7708 28.6381
32.9569 28.4252
33.143 28.2232
33.3293 27.7593
33.5158 27.3848
33.7022 26.9734
33.8887 26.6275
34.0753 26.3682
34.262 26.0511
34.4488 25.7046
34.6357 25.36
34.8227 25.0457
35.0098 24.8035
35.1969 24.5094
35.3842 24.3451
35.5716 24.1085
35.759 23.8323
35.9468 23.532
36.1345 23.2757
36.3222 23.0318
36.5101 22.7274
36.6981 22.4373
36.8861 22.1332
37.0743 21.8396
37.2626 21.5771
37.451 21.2873
37.6395 21.0628
37.8281 20.8012
38.0168 20.4918
38.2056 20.1842
38.3945 20.0124
38.5837 19.8041
38.7728 19.4491
38.9621 19.261
39.1514 19.0306
39.3409 18.7241
39.5304 18.5398
39.7201 18.3469
39.9099 18.0569
40.0999 17.8177
40.2899 17.6111
40.48 17.3349
40.6703 17.165
40.8607 16.9527
41.0512 16.7373
41.242 16.4835
41.4327 16.3202
41.6236 16.0689
41.8146 15.8833
42.0057 15.6555
42.1969 15.4531
42.3882 15.2567
42.5797 14.9789
42.7713 14.8253
42.963 14.6165
43.1549 14.3692
43.3468 14.1847
43.5389 14.0283
43.7312 13.8054
43.9237 13.6651
44.1162 13.444
44.3088 13.3203
44.5016 13.0739
44.6945 12.9059
44.8875 12.7057
45.0806 12.56
45.2739 12.4415
45.4673 12.2174
45.6609 12.0159
45.8546 11.8864
46.0484 11.7428
46.2424 11.5344
46.4365 11.3536
46.631 11.1829
46.8254 11.0523
47.0199 10.8559
47.2146 10.7327
47.4095 10.5179
47.6044 10.3541
47.7996 10.1982
47.9948 10.0694
48.1902 9.91071
48.3858 9.81816
48.5815 9.64906
48.7774 9.50774
48.9734 9.38378
49.1696 9.2405
49.3661 9.07457
49.5626 8.95451
49.7592 8.81964
49.956 8.6825
50.153 8.53803
50.3501 8.40855
50.5474 8.2735
50.7448 8.1744
50.9424 8.0546
51.1402 7.92754
51.3381 7.79539
51.5362 7.67452
51.7344 7.50099
51.9328 7.37314
52.1316 7.28512
52.3304 7.17482
52.5293 7.0321
52.7284 6.94355
52.9276 6.85336
53.1271 6.70222
53.3267 6.55359
53.5265 6.48036
53.7264 6.38245
53.9266 6.2561
54.1269 6.17918
54.3274 6.03014
54.528 5.86185
54.7289 5.71894
54.9301 5.58442
55.1314 5.45141
55.3328 5.22521
55.5344 5.00599
55.7361 4.93146

File: Ni3Fe_FD0493.xy
TT I
1.27165 7.39594
1.45013 5.81073
1.62863 5.39798
1.80712 5.03076
1.98562 4.69283
2.16411 4.89618
2.34263 5.5992
2.52115 6.21266
2.69965 7.21917
2.87818 8.18171
3.05672 10.8608
3.23527 14.9128
3.4138 18.8238
3.59237 23.859
3.77094 26.422
3.9495 30.1242
4.12809 35.3453
4.30669 178.244
4.4853 62.5402
4.6639 56.1626
4.84253 68.1699
5.02118 89.1837
5.19981 423.216
5.37848 206.23
5.55716 104.565
5.73586 94.1662
5.91455 97.3858
6.09328 4208.93
6.27201 84.4611
6.45075 68.4373
6.62952 63.5962
6.8083 59.3453
6.98711 56.4999
7.16591 55.9157
7.34475 84.5872
7.5236 55.327
7.70247 56.8564
7.88135 58.5702
8.06026 63.1424
8.23919 70.3088
8.41812 86.4397
8.59709 1208.97
8.77609 102.314
8.9551 91.856
9.13412 83.0564
9.31318 83.7794
9.49226 85.9118
9.67134 98.3979
9.85047 101.516
10.0296 376.13
10.2088 461.443
10.388 106.229
10.5672 504.952
10.7465 88.0893
10.9257 79.5549
11.105 73.2406
11.2844 70.8559
11.4637 65.9222
11.6431 64.2495
11.8225 63.2381
12.002 64.7854
12.1814 155.657
12.3609 71.0394
12.5405 65.7388
12.72 70.2724
12.8996 72.1555
13.0792 80.1257
13.2589 244.935
13.4386 131.492
13.6183 250.125
13.7981 103.364
13.9779 76.8934
14.1577 73.4002
14.3376 72.2526
14.5175 69.8171
14.6974 71.6855
14.8774 114.333
15.0574 156.737
15.2374 71.9653
15.4175 67.5979
15.5976 66.8238
15.7778 98.5113
15.958 158.984
16.1382 63.1919
16.3185 59.3022
16.4988 56.088
16.6792 55.1513
16.8596 56.075
17.04 56.4837
17.2205 68.1248
17.401 72.799
17.5815 60.4347
17.7622 62.1994
17.9428 75.7996
18.1237 136.235
18.3044 91.8232
18.4852 80.7524
18.666 61.3278
18.8469 58.8125
19.0278 57.7279
19.2088 60.6327
19.3898 75.5714
19.5709 55.2173
19.752 53.9243
19.9332 57.2548
20.1144 69.9467
20.2957 64.4055
20.477 54.9237
20.6586 50.3097
20.84 49.5869
21.0215 49.3058
21.203 51.4418
21.3846 49.722
21.5662 49.529
21.7479 53.4849
21.9297 64.7912
22.1115 56.6398
22.2933 50.818
22.4753 49.5973
22.6572 49.6615
22.8393 52.8507
23.0214 57.7679
23.2037 49.5861
23.3859 50.5632
23.5682 56.9988
23.7505 49.448
23.9329 45.8501
24.1154 44.801
24.2979 44.1455
24.4805 43.6013
24.6631 43.4604
24.8458 42.9504
25.0286 43.53
25.2114 45.2986
25.3943 45.0957
25.5773 41.5411
25.7605 40.9903
25.9436 41.4468
26.1268 42.2172
26.31 40.7842
26.4933 41.4226
26.6767 42.7582
26.8601 40.9677
27.0437 39.5586
27.2272 39.1985
27.4109 38.9144
27.5946 38.9126
27.7784 38.4876
27.9623 39.0198
28.1462 39.423
28.3304 37.7376
28.5145 36.5742
28.6987 36.1795
28.8829 35.9327
29.0673 35.2327
29.2517 34.8407
29.4361 34.6722
29.6207 33.566
29.8053 33.3757
29.99 33.1876
30.1748 33.0056
30.3597 32.7802
30.5447 32.7451
30.7297 32.6403
30.915 32.1519
31.1002 31.5015
31.2855 31.4009
31.4708 31.2564
31.6563 30.9097
31.8418 30.6106
32.0275 30.3583
32.2132 29.8493
32.399 29.3867
32.5848 28.9117
32.7708 28.5442
32.9569 28.4218
33.143 28.2425
33.3293 27.8198
33.5158 27.3997
33.7022 27.0975
33.8887 26.5904
34.0753 26.3192
34.262 25.9709
34.4488 25.7081
34.6357 25.2749
34.8227 25.0347
35.0098 24.8605
35.1969 24.4789
35.3842 24.2405
35.5716 24.1578
35.759 23.8262
35.9468 23.5067
36.1345 23.2259
36.3222 23.0195
36.5101 22.7444
36.6981 22.4321
36.8861 22.1017
37.0743 21.8524
37.2626 21.583
37.451 21.2361
37.6395 21.089
37.8281 20.8441
38.0168 20.5239
38.2056 20.2989
38.3945 19.9203
38.5837 19.7495
38.7728 19.4959
38.9621 19.2118
39.1514 18.9872
39.3409 18.7417
39.5304 18.5267
39.7201 18.3013
39.9099 18.0561
40.0999 17.8831
40.2899 17.627
40.48 17.456
40.6703 17.1995
40.8607 17.0252
41.0512 16.7492
41.242 16.4646
41.4327 16.254
41.6236 16.0597
41.8146 15.9099
42.0057 15.6743
42.1969 15.4554
42.3882 15.2677
42.5797 15.0481
42.7713 14.8723
42.963 14.5787
43.1549 14.4516
43.3468 14.2486
43.5389 14.044
43.7312 13.8349
43.9237 13.6582
44.1162 13.4551
44.3088 13.2715
44.5016 13.0856
44.6945 12.8853
44.8875 12.7324
45.0806 12.5478
45.2739 12.3886
45.4673 12.2148
45.6609 11.9869
45.8546 11.8572
46.0484 11.7402
46.2424 11.5427
46.4365 11.3965
46.631 11.1616
46.8254 10.9537
47.0199 10.867
47.2146 10.7265
47.4095 10.533
47.6044 10.3892
47.7996 10.2294
47.9948 10.0572
48.1902 9.93422
48.3858 9.82422
48.5815 9.6669
48.7774 9.52246
48.9734 9.39429
49.1696 9.21798
49.3661 9.08252
49.5626 8.95562
49.7592 8.8225
49.956 8.70923
50.153 8.52656
50.3501 8.41692
50.5474 8.31147
50.7448 8.14355
50.9424 8.01342
51.1402 7.9144
51.3381 7.81198
51.5362 7.65535
51.7344 7.52474
51.9328 7.36348
52.1316 7.27916
52.3304 7.17314
52.5293 7.05397
52.7284 6.9724
52.9276 6.85734
53.1271 6.72358
53.3267 6.59178
53.5265 6.46719
53.7264 6.38821
53.9266 6.22471
54.1269 6.12886
54.3274 6.0653
54.528 5.90382
54.7289 5.69909
54.9301 5.52236
55.1314 5.47322
55.3328 5.21476
55.5344 5.02223
55.7361 4.86121

File: Ni3Fe_FD0494.xy
TT I
1.27165 7.75219
1.45013 6.28141
1.62863 5.94633
1.80712 5.36155
1.98562 5.19093
2.16411 4.92711
2.34263 5.42473
2.52115 6.21629
2.69965 8.04803
2.87818 8.76168
3.05672 11.3521
3.23527 15.0684
3.4138 18.7265
3.59237 24.3435
3.77094 26.493
3.9495 30.0914
4.12809 34.9372
4.30669 181.327
4.4853 62.5605
4.6639 56.0641
4.84253 68.6977
5.02118 88.9009
5.19981 419.475
5.37848 204.94
5.55716 104.208
5.73586 93.8069
5.91455 97.4648
6.09328 4196.08
6.27201 85.0434
6.45075 68.4429
6.62952 63.8199
6.8083 59.4272
6.98711 56.3394
7.16591 55.9141
7.34475 85.3411
7.5236 55.4918
7.70247 56.8488
7.88135 58.7676
8.06026 63.2456
8.23919 70.3049
8.41812 86.6002
8.59709 1207.97
8.77609 102.391
8.9551 91.8454
9.13412 83.2458
9.31318 84.2502
9.49226 86.1248
9.67134 98.6123
9.85047 101.629
10.0296 375.326
10.2088 460.019
10.388 106.561
10.5672 500.201
10.7465 87.9659
10.9257 79.263
11.105 72.8203
11.2844 70.7831
11.4637 65.8914
11.6431 64.5919
11.8225 63.5014
12.002 64.5555
12.1814 155.405
12.3609 71.0721
12.5405 65.7323
12.72 70.3104
12.8996 71.943
13.0792 80.4077
13.2589 244.192
13.4386 131.494
13.6183 249.44
13.7981 103.45
13.9779 76.9858
14.1577 73.2258
14.3376 72.2755
14.5175 70.2019
14.6974 71.481
14.8774 114.241
15.0574 156.509
15.2374 71.9308
15.4175 67.3975
15.5976 66.9813
15.7778 98.2954
15.958 158.66
16.1382 63.2506
16.3185 59.1302
16.4988 56.2796
16.6792 55.2353
16.8596 55.9931
17.04 56.5782
17.2205 68.0109
17.401 72.8001
17.5815 60.1995
17.7622 62.2235
17.9428 75.7684
18.1237 135.983
18.3044 91.7214
18.4852 80.4302
18.666 61.2962
18.8469 59.0118
19.0278 57.7369
19.2088 60.7347
19.3898 75.9558
19.5709 55.191
19.752 54.1275
19.9332 57.1805
20.1144 70.0983
20.2957 64.1897
20.477 54.7787
20.6586 50.5182
20.84 49.67
21.0215 49.4138
21.203 51.5317
21.3846 49.7479
21.5662 49.632
21.7479 53.5773
21.9297 64.6351
22.1115 56.4121
22.2933 50.7609
22.4753 49.5866
22.6572 49.5492
22.8393 52.7249
23.0214 57.8494
23.2037 49.5579
23.3859 50.4951
23.5682 57.0358
23.7505 49.4454
23.9329 45.8684
24.1154 44.9356
24.2979 44.0747
24.4805 43.5961
24.6631 43.403
24.8458 42.8189
25.0286 43.568
25.2114 45.2901
25.3943 45.0345
25.5773 41.5659
25.7605 41.1311
25.9436 41.4824
26.1268 42.3337
26.31 40.7977
26.4933 41.3477
26.6767 42.6964
26.8601 40.9935
27.0437 39.5019
27.2272 39.0625
27.4109 39.013
27.5946 39.0102
27.7784 38.3697
27.9623 38.9299
28.1462 39.4127
28.3304 37.7957
28.5145 36.4667
28.6987 36.2289
28.8829 35.8722
29.0673 35.1252
29.2517 34.8379
29.4361 34.6884
29.6207 33.7249
29.8053 33.4471
29.99 33.0756
30.1748 32.9145
30.3597 32.8457
30.5447 32.6345
30.7297 32.7486
30.915 32.1314
31.1002 31.537
31.2855 31.3759
31.4708 31.1898
31.6563 30.6796
31.8418 30.6029
32.0275 30.3209
32.2132 29.8625
32.399 29.2916
32.5848 28.929
32.7708 28.6125
32.9569 28.4201
33.143 28.1476
33.3293 27.7157
33.5158 27.3895
33.7022 27.003
33.8887 26.6701
34.0753 26.4622
34.262 25.9968
34.4488 25.6898
34.6357 25.3854
34.8227 25.0275
35.0098 24.7543
35.1969 24.6106
35.3842 24.3162
35.5716 24.1589
35.759 23.8726
35.9468 23.4459
36.1345 23.191
36.3222 22.9866
36.5101 22.7103
36.6981 22.4298
36.8861 22.2051
37.0743 21.864
37.2626 21.6647
37.451 21.3026
37.6395 21.1318
37.8281 20.8335
38.0168 20.5911
38.2056 20.2416
38.3945 19.994
38.5837 19.7278
38.7728 19.445
38.9621 19.2303
39.1514 18.987
39.3409 18.776
39.5304 18.5489
39.7201 18.3079
39.9099 18.1077
40.0999 17.8439
40.2899 17.5563
40.48 17.3552
40.6703 17.2002
40.8607 16.9872
41.0512 16.7436
41.242 16.5621
41.4327 16.264
41.6236 16.054
41.8146 15.8504
42.0057 15.6551
42.1969 15.388
42.3882 15.1559
42.5797 15.0168
42.7713 14.8466
42.963 14.6581
43.1549 14.4313
43.3468 14.1888
43.5389 14.1045
43.7312 13.8483
43.9237 13.676
44.1162 13.4848
44.3088 13.2749
44.5016 13.1202
44.6945 12.9148
44.8875 12.7035
45.0806 12.524
45.2739 12.3413
45.4673 12.179
45.6609 12.0163
45.8546 11.8849
46.0484 11.6905
46.2424 11.5731
46.4365 11.3585
46.631 11.2123
46.8254 11.0455
47.0199 10.8849
47.2146 10.7285
47.4095 10.5459
47.6044 10.371
47.7996 10.2174
47.9948 10.0735
48.1902 9.93717
48.3858 9.82151
48.5815 9.65669
48.7774 9.51897
48.9734 9.377
49.1696 9.20854
49.3661 9.09632
49.5626 8.94852
49.7592 8.86445
49.956 8.68755
50.153 8.56877
50.3501 8.39007
50.5474 8.2873
50.7448 8.16862
50.9424 8.03943
51.1402 7.88714
51.3381 7.78887
51.5362 7.67473
51.7344 7.5702
51.9328 7.4005
52.1316 7.27897
52.3304 7.14535
52.5293 7.06471
52.7284 6.94332
52.9276 6.80452
53.1271 6.71149
53.3267 6.57163
53.5265 6.49912
53.7264 6.31476
53.9266 6.21745
54.1269 6.14917
54.3274 6.03864
54.528 5.90706
54.7289 5.7372
54.9301 5.5745
55.1314 5.44129
55.3328 5.22393
55.5344 5.04361
55.7361 4.88528

File: Ni3Fe_FD0495.xy
TT I
1.27165 7.40568
1.45013 6.61744
1.62863 4.69002
1.80712 4.99414
1.98562 4.57599
2.16411 5.27284
2.34263 4.57343
2.52115 5.99848
2.69965 7.90754
2.87818 8.89692
3.05672 10.9428
3.23527 14.7518
3.4138 18.9747
3.59237 24.006
3.77094 26.1987
3.9495 30.2623
4.12809 35.4435
4.30669 184.437
4.4853 62.5029
4.6639 56.2402
4.84253 68.01
5.02118 88.7992
5.19981 413.796
5.37848 204.347
5.55716 104.128
5.73586 94.0549
5.91455 96.6544
6.09328 4152.82
6.27201 84.8172
6.45075 68.3503
6.62952 63.5213
6.8083 59.0622
6.98711 56.5859
7.16591 56.2022
7.34475 86.1328
7.5236 55.4138
7.70247 56.8441
7.88135 58.506
8.06026 62.9453
8.23919 70.2415
8.41812 86.6659
8.59709 1207.13
8.77609 102.322
8.9551 91.7687
9.13412 83.2757
9.31318 83.9475
9.49226 85.8679
9.67134 98.801
9.85047 101.214
10.0296 374.165
10.2088 463.663
10.388 106.626
10.5672 497.49
10.7465 88.3306
10.9257 79.4389
11.105 72.9084
11.2844 70.9048
11.4637 65.6918
11.6431 64.4278
11.8225 63.1114
12.002 64.4549
12.1814 155.681
12.3609 71.2946
12.5405 65.5831
12.72 70.3759
12.8996 71.8188
13.0792 80.4563
13.2589 243.238
13.4386 131.484
13.6183 249.267
13.7981 103.565
13.9779 76.8865
14.1577 73.4923
14.3376 72.4494
14.5175 69.7906
14.6974 71.4412
14.8774 114.236
15.0574 157.244
15.2374 71.8174
15.4175 67.6273
15.5976 66.8995
15.7778 98.2041
15.958 159.26
16.1382 63.3825
16.3185 59.3609
16.4988 56.372
16.6792 55.2886
16.8596 56.0063
17.04 56.6852
17.2205 68.0023
17.401 72.9192
17.5815 60.0495
17.7622 62.2573
17.9428 75.68
18.1237 136.369
18.3044 91.7936
18.4852 80.7045
18.666 61.171
18.8469 58.946
19.0278 57.6615
19.2088 60.4589
19.3898 76.2422
19.5709 55.0636
19.752 54.1392
19.9332 57.313
20.1144 69.9072
20.2957 64.1744
20.477 54.7925
20.6586 50.5378
20.84 49.6117
21.0215 49.3637
21.203 51.4542
21.3846 49.8483
21.5662 49.5627
21.7479 53.5449
21.9297 64.7505
22.1115 56.544
22.2933 50.7999
22.4753 49.5463
22.6572 49.6055
22.8393 52.7085
23.0214 57.9474
23.2037 49.4923
23.3859 50.6214
23.5682 56.9509
23.7505 49.2778
23.9329 45.9711
24.1154 44.7625
24.2979 44.2181
24.4805 43.5186
24.6631 43.4052
24.8458 42.9705
25.0286 43.5234
25.2114 45.1776
25.3943 45.0769
25.5773 41.6368
25.7605 40.9616
25.9436 41.3946
26.1268 42.2613
26.31 40.7942
26.4933 41.4012
26.6767 42.6316
26.8601 41.0146
27.0437 39.4673
27.2272 39.0933
27.4109 38.9555
27.5946 38.757
27.7784 38.4888
27.9623 38.9916
28.1462 39.3239
28.3304 37.7874
28.5145 36.4918
28.6987 36.1289
28.8829 35.8562
29.0673 35.1492
29.2517 34.8817
29.4361 34.5714
29.6207 33.6402
29.8053 33.3785
29.99 33.104
30.1748 32.9563
30.3597 32.7626
30.5447 32.6502
30.7297 32.7184
30.915 32.0595
31.1002 31.5555
31.2855 31.3995
31.4708 31.2216
31.6563 30.7964
31.8418 30.5641
32.0275 30.2825
32.2132 29.7533
32.399 29.2907
32.5848 28.8939
32.7708 28.52
32.9569 28.4859
33.143 28.2511
33.3293 27.8125
33.5158 27.44
33.7022 27.0823
33.8887 26.6261
34.0753 26.3893
34.262 26.0249
34.4488 25.6105
34.6357 25.3592
34.8227 25.0958
35.0098 24.8909
35.1969 24.5855
35.3842 24.3367
35.5716 24.1627
35.759 23.8675
35.9468 23.4685
36.1345 23.2518
36.3222 22.9925
36.5101 22.7146
36.6981 22.5062
36.8861 22.0934
37.0743 21.8192
37.2626 21.6286
37.451 21.3185
37.6395 21.1557
37.8281 20.7538
38.0168 20.5042
38.2056 20.2952
38.3945 19.9893
38.5837 19.7356
38.7728 19.5458
38.9621 19.2709
39.1514 19.0322
39.3409 18.7
39.5304 18.5227
39.7201 18.2708
39.9099 18.13
40.0999 17.8062
40.2899 17.6082
40.48 17.3
40.6703 17.1427
40.8607 17.0203
41.0512 16.8327
41.242 16.468
41.4327 16.2707
41.6236 16.0736
41.8146 15.9049
42.0057 15.632
42.1969 15.3616
42.3882 15.3383
42.5797 14.981
42.7713 14.7999
42.963 14.6347
43.1549 14.4079
43.3468 14.2171
43.5389 14.0427
43.7312 13.8401
43.9237 13.6495
44.1162 13.4324
44.3088 13.289
44.5016 13.0916
44.6945 12.8861
44.8875 12.6867
45.0806 12.5737
45.2739 12.3314
45.4673 12.2247
45.6609 11.9964
45.8546 11.8584
46.0484 11.7056
46.2424 11.5625
46.4365 11.3674
46.631 11.192
46.8254 10.9841
47.0199 10.865
47.2146 10.6931
47.4095 10.5427
47.6044 10.3971
47.7996 10.2111
47.9948 10.0887
48.1902 9.91719
48.3858 9.81998
48.5815 9.68767
48.7774 9.52222
48.9734 9.40487
49.1696 9.23505
49.3661 9.08467
49.5626 8.94535
49.7592 8.81435
49.956 8.677
50.153 8.57131
50.3501 8.41475
50.5474 8.29694
50.7448 8.1708
50.9424 8.05158
51.1402 7.92917
51.3381 7.77642
51.5362 7.63262
51.7344 7.5622
51.9328 7.4097
52.1316 7.26661
52.3304 7.17824
52.5293 7.06307
52.7284 6.95133
52.9276 6.83783
53.1271 6.70028
53.3267 6.5895
53.5265 6.41111
53.7264 6.33697
53.9266 6.27153
54.1269 6.17789
54.3274 5.99212
54.528 5.88821
54.7289 5.7434
54.9301 5.56159
55.1314 5.41554
55.3328 5.24171
55.5344 5.02853
55.7361 4.86208