Folder: NiFe_MOF_catalyst_paper/XRD (part 184)

File: Ni3Fe_FD0995.xy
TT I
1.27165 7.35404
1.45013 5.79429
1.62863 4.9645
1.80712 4.8401
1.98562 5.09777
2.16411 5.23663
2.34263 6.31064
2.52115 7.83996
2.69965 8.88461
2.87818 8.54201
3.05672 11.2581
3.23527 14.9921
3.4138 18.9387
3.59237 23.8815
3.77094 26.306
3.9495 29.4621
4.12809 34.5069
4.30669 255.527
4.4853 69.0703
4.6639 54.4961
4.84253 65.6227
5.02118 83.9078
5.19981 267.362
5.37848 173.576
5.55716 99.5482
5.73586 89.8097
5.91455 89.4162
6.09328 4522.4
6.27201 81.1492
6.45075 65.7511
6.62952 62.2222
6.8083 58.1933
6.98711 55.0386
7.16591 54.3622
7.34475 99.49
7.5236 53.8915
7.70247 55.2252
7.88135 56.8479
8.06026 61.3254
8.23919 68.1365
8.41812 82.6123
8.59709 1101.4
8.77609 96.3516
8.9551 90.8927
9.13412 79.8972
9.31318 80.6326
9.49226 82.4712
9.67134 98.154
9.85047 97.0848
10.0296 282.078
10.2088 373.069
10.388 102.068
10.5672 528.198
10.7465 84.6952
10.9257 77.5204
11.105 70.5587
11.2844 69.8329
11.4637 63.6776
11.6431 62.2358
11.8225 61.1935
12.002 61.7146
12.1814 148.235
12.3609 69.9563
12.5405 63.2565
12.72 69.2916
12.8996 69.2689
13.0792 76.6478
13.2589 222.032
13.4386 121.396
13.6183 235.91
13.7981 94.7057
13.9779 74.0545
14.1577 70.9655
14.3376 70.6438
14.5175 67.1957
14.6974 69.0465
14.8774 102.573
15.0574 150.79
15.2374 70.0488
15.4175 65.0261
15.5976 64.1636
15.7778 88.2868
15.958 153.896
16.1382 61.7319
16.3185 57.4472
16.4988 54.447
16.6792 53.3375
16.8596 54.2868
17.04 54.274
17.2205 64.4424
17.401 69.1059
17.5815 57.7894
17.7622 59.5783
17.9428 69.9115
18.1237 138.89
18.3044 87.9022
18.4852 75.7398
18.666 59.0539
18.8469 56.6563
19.0278 55.7532
19.2088 57.8737
19.3898 75.4894
19.5709 53.032
19.752 52.001
19.9332 54.5661
20.1144 69.0343
20.2957 63.0121
20.477 52.4067
20.6586 48.7724
20.84 47.8751
21.0215 47.4849
21.203 49.9551
21.3846 47.9095
21.5662 47.6657
21.7479 50.9168
21.9297 63.5398
22.1115 55.2986
22.2933 48.9254
22.4753 47.923
22.6572 47.5161
22.8393 50.3369
23.0214 56.5053
23.2037 47.7899
23.3859 48.4489
23.5682 56.3069
23.7505 47.2945
23.9329 44.3096
24.1154 43.3612
24.2979 42.5283
24.4805 41.9971
24.6631 41.8999
24.8458 41.2597
25.0286 41.7849
25.2114 43.7461
25.3943 43.7213
25.5773 40.0334
25.7605 39.6225
25.9436 39.9225
26.1268 40.9032
26.31 39.1657
26.4933 39.8081
26.6767 41.3334
26.8601 39.6834
27.0437 38.0781
27.2272 37.6654
27.4109 37.5001
27.5946 37.5472
27.7784 37.028
27.9623 37.578
28.1462 38.0068
28.3304 36.3803
28.5145 35.2486
28.6987 34.8275
28.8829 34.7856
29.0673 33.9418
29.2517 33.6455
29.4361 33.4655
29.6207 32.4064
29.8053 32.31
29.99 31.9895
30.1748 31.8332
30.3597 31.545
30.5447 31.4535
30.7297 31.5074
30.915 31.0074
31.1002 30.4417
31.2855 30.2337
31.4708 30.2384
31.6563 29.7465
31.8418 29.4825
32.0275 29.232
32.2132 28.8047
32.399 28.3035
32.5848 27.871
32.7708 27.5805
32.9569 27.4905
33.143 27.2892
33.3293 26.8922
33.5158 26.4793
33.7022 26.1248
33.8887 25.7975
34.0753 25.4233
34.262 25.097
34.4488 24.8309
34.6357 24.5426
34.8227 24.1793
35.0098 23.9603
35.1969 23.6986
35.3842 23.5137
35.5716 23.3215
35.759 22.9965
35.9468 22.6729
36.1345 22.5373
36.3222 22.251
36.5101 22.043
36.6981 21.7359
36.8861 21.3686
37.0743 21.0348
37.2626 20.8088
37.451 20.5882
37.6395 20.4476
37.8281 20.0737
38.0168 19.7993
38.2056 19.6022
38.3945 19.323
38.5837 19.1158
38.7728 18.8482
38.9621 18.6223
39.1514 18.4049
39.3409 18.1861
39.5304 17.8879
39.7201 17.7184
39.9099 17.5576
40.0999 17.2791
40.2899 16.999
40.48 16.8306
40.6703 16.6222
40.8607 16.4069
41.0512 16.2372
41.242 15.9778
41.4327 15.7468
41.6236 15.5276
41.8146 15.3503
42.0057 15.1435
42.1969 14.9664
42.3882 14.8011
42.5797 14.5923
42.7713 14.364
42.963 14.1149
43.1549 14.0
43.3468 13.7935
43.5389 13.5264
43.7312 13.3486
43.9237 13.2024
44.1162 13.0643
44.3088 12.7987
44.5016 12.6437
44.6945 12.477
44.8875 12.3525
45.0806 12.1434
45.2739 11.9877
45.4673 11.8289
45.6609 11.6037
45.8546 11.5082
46.0484 11.3136
46.2424 11.1617
46.4365 11.0098
46.631 10.8575
46.8254 10.6635
47.0199 10.5124
47.2146 10.3839
47.4095 10.2415
47.6044 10.0435
47.7996 9.90496
47.9948 9.76386
48.1902 9.61889
48.3858 9.46989
48.5815 9.36421
48.7774 9.24725
48.9734 9.06972
49.1696 8.93691
49.3661 8.7855
49.5626 8.63642
49.7592 8.58532
49.956 8.39851
50.153 8.31395
50.3501 8.14752
50.5474 8.04803
50.7448 7.91135
50.9424 7.79835
51.1402 7.66295
51.3381 7.53726
51.5362 7.42536
51.7344 7.32245
51.9328 7.15794
52.1316 7.05599
52.3304 6.93827
52.5293 6.83796
52.7284 6.70095
52.9276 6.59742
53.1271 6.51095
53.3267 6.41025
53.5265 6.24359
53.7264 6.15584
53.9266 6.09908
54.1269 5.94667
54.3274 5.86767
54.528 5.71444
54.7289 5.5645
54.9301 5.39721
55.1314 5.22871
55.3328 5.09709
55.5344 4.90286
55.7361 4.72065

File: Ni3Fe_FD0996.xy
TT I
1.27165 7.03534
1.45013 5.76091
1.62863 5.1686
1.80712 4.80008
1.98562 4.51559
2.16411 4.3895
2.34263 5.99612
2.52115 6.62682
2.69965 8.65725
2.87818 9.60749
3.05672 11.5552
3.23527 14.97
3.4138 18.8857
3.59237 24.253
3.77094 26.2674
3.9495 29.8378
4.12809 34.7077
4.30669 255.778
4.4853 68.9713
4.6639 54.1789
4.84253 65.7123
5.02118 83.5909
5.19981 267.737
5.37848 173.327
5.55716 99.3794
5.73586 89.4511
5.91455 89.6905
6.09328 4539.47
6.27201 81.6055
6.45075 66.3681
6.62952 62.0561
6.8083 58.0322
6.98711 55.257
7.16591 54.7517
7.34475 99.3977
7.5236 53.8951
7.70247 55.7095
7.88135 56.5693
8.06026 60.9446
8.23919 67.8007
8.41812 82.9262
8.59709 1101.44
8.77609 96.149
8.9551 91.321
9.13412 80.3472
9.31318 80.7795
9.49226 82.3951
9.67134 98.3278
9.85047 97.2006
10.0296 282.069
10.2088 370.078
10.388 102.193
10.5672 530.497
10.7465 84.6046
10.9257 77.1259
11.105 70.6852
11.2844 69.5922
11.4637 63.5349
11.6431 62.6179
11.8225 61.1522
12.002 62.0587
12.1814 148.506
12.3609 70.2925
12.5405 63.3636
12.72 69.7982
12.8996 69.3912
13.0792 76.3463
13.2589 221.879
13.4386 120.947
13.6183 235.508
13.7981 94.6953
13.9779 74.0153
14.1577 71.0622
14.3376 70.6005
14.5175 67.131
14.6974 68.7752
14.8774 102.544
15.0574 150.573
15.2374 70.0033
15.4175 64.9584
15.5976 64.4398
15.7778 88.1328
15.958 153.64
16.1382 61.9575
16.3185 57.6625
16.4988 54.296
16.6792 53.456
16.8596 54.2153
17.04 54.4788
17.2205 64.2874
17.401 69.0038
17.5815 57.7858
17.7622 59.9385
17.9428 70.0271
18.1237 138.735
18.3044 87.9077
18.4852 75.7779
18.666 59.0381
18.8469 56.773
19.0278 55.6577
19.2088 57.8219
19.3898 75.3917
19.5709 53.0146
19.752 52.2122
19.9332 54.5916
20.1144 69.1479
20.2957 62.8775
20.477 52.5237
20.6586 48.4775
20.84 47.8169
21.0215 47.5706
21.203 49.9324
21.3846 47.8716
21.5662 47.643
21.7479 50.9885
21.9297 63.4136
22.1115 55.0824
22.2933 48.9133
22.4753 48.0452
22.6572 47.7229
22.8393 50.4357
23.0214 56.4329
23.2037 47.7846
23.3859 48.3505
23.5682 56.3238
23.7505 47.3125
23.9329 44.2852
24.1154 43.199
24.2979 42.6876
24.4805 42.0237
24.6631 41.8992
24.8458 41.3724
25.0286 41.8098
25.2114 43.5929
25.3943 43.8065
25.5773 40.0986
25.7605 39.5769
25.9436 39.9697
26.1268 40.9615
26.31 39.441
26.4933 39.8012
26.6767 41.3413
26.8601 39.738
27.0437 37.9766
27.2272 37.7848
27.4109 37.6816
27.5946 37.5619
27.7784 37.1091
27.9623 37.7207
28.1462 38.0019
28.3304 36.5082
28.5145 35.203
28.6987 34.9496
28.8829 34.6887
29.0673 33.9783
29.2517 33.6088
29.4361 33.5555
29.6207 32.411
29.8053 32.2738
29.99 31.8534
30.1748 31.8892
30.3597 31.7146
30.5447 31.5245
30.7297 31.6087
30.915 31.0092
31.1002 30.5584
31.2855 30.1391
31.4708 30.1792
31.6563 29.7606
31.8418 29.5786
32.0275 29.3533
32.2132 28.8589
32.399 28.3945
32.5848 27.9137
32.7708 27.5783
32.9569 27.4188
33.143 27.2557
33.3293 26.9182
33.5158 26.5478
33.7022 26.0794
33.8887 25.8736
34.0753 25.4587
34.262 25.1931
34.4488 24.7673
34.6357 24.5318
34.8227 24.2586
35.0098 24.0351
35.1969 23.6884
35.3842 23.5563
35.5716 23.3511
35.759 23.0566
35.9468 22.72
36.1345 22.4189
36.3222 22.159
36.5101 22.0453
36.6981 21.7
36.8861 21.3506
37.0743 21.071
37.2626 20.8737
37.451 20.5491
37.6395 20.437
37.8281 20.0444
38.0168 19.8131
38.2056 19.6127
38.3945 19.2887
38.5837 19.0701
38.7728 18.8736
38.9621 18.5909
39.1514 18.4054
39.3409 18.129
39.5304 17.9393
39.7201 17.7634
39.9099 17.5337
40.0999 17.2736
40.2899 17.0416
40.48 16.8019
40.6703 16.6044
40.8607 16.3914
41.0512 16.2304
41.242 15.9298
41.4327 15.7422
41.6236 15.5574
41.8146 15.3971
42.0057 15.1016
42.1969 14.9601
42.3882 14.7985
42.5797 14.549
42.7713 14.3902
42.963 14.1461
43.1549 13.9721
43.3468 13.7767
43.5389 13.575
43.7312 13.3569
43.9237 13.2215
44.1162 13.0333
44.3088 12.8871
44.5016 12.6562
44.6945 12.4921
44.8875 12.3599
45.0806 12.1693
45.2739 11.9486
45.4673 11.8054
45.6609 11.6372
45.8546 11.5047
46.0484 11.334
46.2424 11.1357
46.4365 11.004
46.631 10.7903
46.8254 10.6444
47.0199 10.5038
47.2146 10.381
47.4095 10.202
47.6044 10.083
47.7996 9.90972
47.9948 9.75892
48.1902 9.63433
48.3858 9.50464
48.5815 9.37986
48.7774 9.20585
48.9734 9.09696
49.1696 8.9925
49.3661 8.78618
49.5626 8.64251
49.7592 8.56472
49.956 8.42546
50.153 8.26678
50.3501 8.13538
50.5474 8.01407
50.7448 7.91957
50.9424 7.79262
51.1402 7.6611
51.3381 7.5174
51.5362 7.44798
51.7344 7.28484
51.9328 7.1509
52.1316 7.06609
52.3304 6.95029
52.5293 6.83575
52.7284 6.70454
52.9276 6.61111
53.1271 6.49671
53.3267 6.41346
53.5265 6.2825
53.7264 6.19907
53.9266 6.05479
54.1269 6.00079
54.3274 5.8515
54.528 5.73147
54.7289 5.57584
54.9301 5.3969
55.1314 5.2531
55.3328 5.0537
55.5344 4.89211
55.7361 4.76227

File: Ni3Fe_FD0997.xy
TT I
1.27165 7.27926
1.45013 6.14374
1.62863 5.36987
1.80712 4.6365
1.98562 5.23702
2.16411 4.87378
2.34263 5.91195
2.52115 7.31353
2.69965 8.58075
2.87818 9.09511
3.05672 11.0147
3.23527 15.2522
3.4138 19.1396
3.59237 24.3674
3.77094 26.6512
3.9495 29.8593
4.12809 34.5288
4.30669 257.65
4.4853 69.8968
4.6639 54.2139
4.84253 65.8946
5.02118 83.9819
5.19981 267.865
5.37848 173.509
5.55716 99.2652
5.73586 89.5924
5.91455 89.8278
6.09328 4537.48
6.27201 81.2054
6.45075 66.341
6.62952 62.0395
6.8083 58.1423
6.98711 55.2825
7.16591 54.6351
7.34475 99.5148
7.5236 53.9163
7.70247 55.5442
7.88135 56.7062
8.06026 61.058
8.23919 67.9906
8.41812 83.274
8.59709 1101.96
8.77609 96.8032
8.9551 91.3077
9.13412 80.1531
9.31318 80.5264
9.49226 82.7871
9.67134 98.5324
9.85047 97.9615
10.0296 282.077
10.2088 372.836
10.388 102.25
10.5672 528.605
10.7465 84.7079
10.9257 77.1647
11.105 70.5689
11.2844 69.9531
11.4637 63.8493
11.6431 62.5271
11.8225 61.2764
12.002 62.1873
12.1814 148.174
12.3609 70.1263
12.5405 63.1235
12.72 69.5468
12.8996 69.3803
13.0792 76.5582
13.2589 222.248
13.4386 121.208
13.6183 235.241
13.7981 94.7319
13.9779 74.0498
14.1577 71.195
14.3376 70.7286
14.5175 67.4279
14.6974 68.7636
14.8774 102.599
15.0574 150.142
15.2374 70.1562
15.4175 65.0625
15.5976 64.0683
15.7778 88.3154
15.958 153.671
16.1382 61.9323
16.3185 57.6029
16.4988 54.6525
16.6792 53.3667
16.8596 54.122
17.04 54.4214
17.2205 64.4712
17.401 69.0213
17.5815 57.7771
17.7622 59.905
17.9428 70.0342
18.1237 139.016
18.3044 88.015
18.4852 75.7254
18.666 59.1553
18.8469 56.7715
19.0278 55.7424
19.2088 57.9018
19.3898 75.4462
19.5709 53.1345
19.752 52.2099
19.9332 54.6284
20.1144 69.1908
20.2957 63.1277
20.477 52.5641
20.6586 48.6386
20.84 47.754
21.0215 47.5511
21.203 49.9742
21.3846 47.8375
21.5662 47.6618
21.7479 50.9615
21.9297 63.5847
22.1115 55.3739
22.2933 48.9703
22.4753 47.9348
22.6572 47.5981
22.8393 50.4432
23.0214 56.5087
23.2037 47.7458
23.3859 48.4071
23.5682 56.3473
23.7505 47.3762
23.9329 44.2562
24.1154 43.2809
24.2979 42.7177
24.4805 42.2139
24.6631 41.897
24.8458 41.3164
25.0286 41.7791
25.2114 43.76
25.3943 43.7951
25.5773 40.1279
25.7605 39.6953
25.9436 40.0037
26.1268 41.0065
26.31 39.3558
26.4933 39.8305
26.6767 41.4399
26.8601 39.5369
27.0437 37.9803
27.2272 37.5463
27.4109 37.6621
27.5946 37.678
27.7784 36.9909
27.9623 37.6378
28.1462 38.0998
28.3304 36.5199
28.5145 35.3233
28.6987 34.9423
28.8829 34.8527
29.0673 33.892
29.2517 33.6638
29.4361 33.5036
29.6207 32.5469
29.8053 32.4708
29.99 31.9539
30.1748 31.7477
30.3597 31.7345
30.5447 31.5283
30.7297 31.6909
30.915 30.9099
31.1002 30.5106
31.2855 30.2727
31.4708 30.2809
31.6563 29.826
31.8418 29.5806
32.0275 29.3224
32.2132 28.8559
32.399 28.4833
32.5848 28.0059
32.7708 27.5774
32.9569 27.4095
33.143 27.2535
33.3293 26.8586
33.5158 26.5011
33.7022 26.1041
33.8887 25.8407
34.0753 25.5078
34.262 25.2023
34.4488 24.8064
34.6357 24.5243
34.8227 24.2586
35.0098 24.0383
35.1969 23.8179
35.3842 23.524
35.5716 23.2863
35.759 23.0767
35.9468 22.6542
36.1345 22.4935
36.3222 22.1734
36.5101 21.9574
36.6981 21.7601
36.8861 21.446
37.0743 21.1169
37.2626 20.8244
37.451 20.6133
37.6395 20.4601
37.8281 20.1689
38.0168 19.866
38.2056 19.6063
38.3945 19.3268
38.5837 19.1052
38.7728 18.8316
38.9621 18.5968
39.1514 18.3276
39.3409 18.1046
39.5304 17.8814
39.7201 17.7556
39.9099 17.5079
40.0999 17.2562
40.2899 17.0016
40.48 16.7902
40.6703 16.5968
40.8607 16.4468
41.0512 16.1465
41.242 15.9392
41.4327 15.7774
41.6236 15.5238
41.8146 15.3262
42.0057 15.1439
42.1969 14.9248
42.3882 14.7622
42.5797 14.5413
42.7713 14.3861
42.963 14.1999
43.1549 13.9339
43.3468 13.7368
43.5389 13.5642
43.7312 13.3585
43.9237 13.2392
44.1162 13.0495
44.3088 12.8751
44.5016 12.6874
44.6945 12.542
44.8875 12.3104
45.0806 12.1633
45.2739 11.9682
45.4673 11.8247
45.6609 11.6325
45.8546 11.4994
46.0484 11.3094
46.2424 11.1439
46.4365 10.9728
46.631 10.8587
46.8254 10.6849
47.0199 10.5641
47.2146 10.3692
47.4095 10.2196
47.6044 10.0509
47.7996 9.92782
47.9948 9.8145
48.1902 9.6406
48.3858 9.47508
48.5815 9.37906
48.7774 9.24022
48.9734 9.06969
49.1696 8.96387
49.3661 8.79516
49.5626 8.67037
49.7592 8.56118
49.956 8.41463
50.153 8.26553
50.3501 8.15745
50.5474 8.06458
50.7448 7.93359
50.9424 7.818
51.1402 7.71243
51.3381 7.52706
51.5362 7.42245
51.7344 7.32064
51.9328 7.14556
52.1316 7.03919
52.3304 6.96226
52.5293 6.84262
52.7284 6.75116
52.9276 6.61745
53.1271 6.5216
53.3267 6.38884
53.5265 6.30958
53.7264 6.20796
53.9266 6.06883
54.1269 5.94103
54.3274 5.85215
54.528 5.71025
54.7289 5.55362
54.9301 5.36834
55.1314 5.29344
55.3328 5.07275
55.5344 4.85324
55.7361 4.74152

File: Ni3Fe_FD0998.xy
TT I
1.27165 7.19323
1.45013 5.6682
1.62863 5.22354
1.80712 4.9075
1.98562 4.19652
2.16411 4.84775
2.34263 5.60751
2.52115 7.60174
2.69965 8.40896
2.87818 8.98522
3.05672 11.2976
3.23527 15.116
3.4138 19.1418
3.59237 24.6581
3.77094 26.3372
3.9495 29.7342
4.12809 34.6822
4.30669 259.615
4.4853 69.7444
4.6639 54.2839
4.84253 65.6978
5.02118 83.7091
5.19981 266.855
5.37848 173.534
5.55716 99.3741
5.73586 89.4737
5.91455 89.6494
6.09328 4531.23
6.27201 81.2948
6.45075 66.1233
6.62952 62.2722
6.8083 58.2149
6.98711 55.2168
7.16591 54.3965
7.34475 100.862
7.5236 53.957
7.70247 55.3682
7.88135 56.9816
8.06026 61.2992
8.23919 68.0697
8.41812 83.0793
8.59709 1096.77
8.77609 96.8638
8.9551 91.3942
9.13412 80.213
9.31318 80.6746
9.49226 82.7042
9.67134 98.4485
9.85047 97.4937
10.0296 280.716
10.2088 373.033
10.388 102.25
10.5672 528.884
10.7465 84.803
10.9257 77.5642
11.105 70.2828
11.2844 69.8233
11.4637 63.9405
11.6431 62.7211
11.8225 61.3785
12.002 61.9886
12.1814 147.604
12.3609 70.4954
12.5405 63.3584
12.72 69.7238
12.8996 69.2709
13.0792 76.4137
13.2589 221.563
13.4386 121.432
13.6183 235.029
13.7981 94.7417
13.9779 74.2233
14.1577 71.2762
14.3376 70.597
14.5175 67.2521
14.6974 68.7067
14.8774 102.231
15.0574 150.166
15.2374 70.165
15.4175 64.9055
15.5976 64.2627
15.7778 88.2668
15.958 153.533
16.1382 61.9859
16.3185 57.8187
16.4988 54.3423
16.6792 53.4259
16.8596 54.2871
17.04 54.5079
17.2205 64.5319
17.401 69.0052
17.5815 57.9363
17.7622 59.7929
17.9428 69.7676
18.1237 138.828
18.3044 87.7732
18.4852 75.7695
18.666 59.0841
18.8469 56.8846
19.0278 55.7315
19.2088 57.8083
19.3898 75.721
19.5709 53.1862
19.752 52.0235
19.9332 54.4903
20.1144 69.0968
20.2957 62.8711
20.477 52.5778
20.6586 48.6906
20.84 47.848
21.0215 47.491
21.203 49.8953
21.3846 47.8759
21.5662 47.5433
21.7479 51.0575
21.9297 63.6249
22.1115 55.2594
22.2933 48.7708
22.4753 47.8298
22.6572 47.7004
22.8393 50.4895
23.0214 56.259
23.2037 47.8703
23.3859 48.4497
23.5682 56.3183
23.7505 47.4106
23.9329 44.3011
24.1154 43.2112
24.2979 42.4596
24.4805 42.1422
24.6631 41.946
24.8458 41.2448
25.0286 41.8897
25.2114 43.6469
25.3943 43.8057
25.5773 40.1118
25.7605 39.5617
25.9436 39.8941
26.1268 40.9601
26.31 39.3235
26.4933 39.8568
26.6767 41.3502
26.8601 39.7795
27.0437 38.0465
27.2272 37.8018
27.4109 37.6481
27.5946 37.7086
27.7784 37.0353
27.9623 37.5367
28.1462 38.2257
28.3304 36.4498
28.5145 35.1657
28.6987 34.8832
28.8829 34.7158
29.0673 33.9279
29.2517 33.6826
29.4361 33.4665
29.6207 32.5013
29.8053 32.2794
29.99 31.8934
30.1748 31.803
30.3597 31.5642
30.5447 31.4816
30.7297 31.541
30.915 30.9855
31.1002 30.512
31.2855 30.265
31.4708 30.2022
31.6563 29.7806
31.8418 29.5177
32.0275 29.3329
32.2132 28.8476
32.399 28.3294
32.5848 27.9103
32.7708 27.5879
32.9569 27.4172
33.143 27.2265
33.3293 26.8561
33.5158 26.3917
33.7022 26.0948
33.8887 25.8212
34.0753 25.5012
34.262 25.1935
34.4488 24.8929
34.6357 24.5639
34.8227 24.2797
35.0098 24.0584
35.1969 23.7452
35.3842 23.5074
35.5716 23.3509
35.759 22.9811
35.9468 22.6097
36.1345 22.4599
36.3222 22.202
36.5101 21.9795
36.6981 21.6771
36.8861 21.3661
37.0743 21.1232
37.2626 20.8127
37.451 20.6111
37.6395 20.3899
37.8281 20.0857
38.0168 19.8532
38.2056 19.5377
38.3945 19.2998
38.5837 19.0418
38.7728 18.9034
38.9621 18.5607
39.1514 18.3619
39.3409 18.1483
39.5304 17.9692
39.7201 17.7285
39.9099 17.5423
40.0999 17.2625
40.2899 17.007
40.48 16.8373
40.6703 16.607
40.8607 16.422
41.0512 16.1841
41.242 15.947
41.4327 15.773
41.6236 15.5687
41.8146 15.3363
42.0057 15.1229
42.1969 14.9204
42.3882 14.7952
42.5797 14.5789
42.7713 14.3585
42.963 14.1419
43.1549 14.009
43.3468 13.7649
43.5389 13.5903
43.7312 13.4095
43.9237 13.2077
44.1162 12.9791
44.3088 12.8447
44.5016 12.6286
44.6945 12.4766
44.8875 12.3229
45.0806 12.1473
45.2739 11.9678
45.4673 11.8222
45.6609 11.6485
45.8546 11.4482
46.0484 11.3088
46.2424 11.1072
46.4365 10.9787
46.631 10.8814
46.8254 10.6521
47.0199 10.5037
47.2146 10.3641
47.4095 10.1689
47.6044 10.0694
47.7996 9.90808
47.9948 9.76437
48.1902 9.60273
48.3858 9.47706
48.5815 9.37049
48.7774 9.19086
48.9734 9.07968
49.1696 8.93224
49.3661 8.78333
49.5626 8.64118
49.7592 8.56573
49.956 8.43716
50.153 8.27979
50.3501 8.14789
50.5474 8.0216
50.7448 7.94172
50.9424 7.78187
51.1402 7.64012
51.3381 7.5244
51.5362 7.44967
51.7344 7.31055
51.9328 7.17219
52.1316 7.05
52.3304 6.94725
52.5293 6.84124
52.7284 6.70279
52.9276 6.60817
53.1271 6.52893
53.3267 6.41441
53.5265 6.23832
53.7264 6.19527
53.9266 6.08564
54.1269 5.93526
54.3274 5.82536
54.528 5.68361
54.7289 5.54196
54.9301 5.36574
55.1314 5.27714
55.3328 5.03604
55.5344 4.87277
55.7361 4.69705

File: Ni3Fe_FD0999.xy
TT I
1.27165 7.06424
1.45013 5.75098
1.62863 4.96889
1.80712 5.07205
1.98562 5.07882
2.16411 4.82897
2.34263 5.57849
2.52115 7.23361
2.69965 8.51773
2.87818 8.74647
3.05672 11.0204
3.23527 15.1414
3.4138 19.0699
3.59237 24.4887
3.77094 25.8734
3.9495 29.6644
4.12809 34.5889
4.30669 262.001
4.4853 69.8171
4.6639 53.9186
4.84253 65.4226
5.02118 83.7412
5.19981 267.478
5.37848 173.337
5.55716 99.5041
5.73586 88.9158
5.91455 89.4449
6.09328 4523.4
6.27201 81.0184
6.45075 65.9889
6.62952 62.0291
6.8083 57.7778
6.98711 55.1007
7.16591 54.9526
7.34475 100.487
7.5236 54.0825
7.70247 55.3742
7.88135 56.7303
8.06026 60.8731
8.23919 68.077
8.41812 83.1396
8.59709 1090.42
8.77609 96.4149
8.9551 91.1142
9.13412 80.2768
9.31318 80.3113
9.49226 82.701
9.67134 98.4631
9.85047 97.0172
10.0296 279.214
10.2088 373.322
10.388 101.692
10.5672 525.242
10.7465 84.3798
10.9257 77.0275
11.105 70.5045
11.2844 69.6745
11.4637 63.882
11.6431 62.4697
11.8225 60.9577
12.002 61.65
12.1814 147.488
12.3609 70.4633
12.5405 62.9181
12.72 69.7053
12.8996 68.8931
13.0792 76.5036
13.2589 220.034
13.4386 121.884
13.6183 235.134
13.7981 94.8606
13.9779 73.9556
14.1577 71.0574
14.3376 70.6974
14.5175 67.0909
14.6974 68.7567
14.8774 102.021
15.0574 151.246
15.2374 70.103
15.4175 65.071
15.5976 64.2359
15.7778 87.971
15.958 155.25
16.1382 61.8107
16.3185 57.6925
16.4988 54.304
16.6792 53.5679
16.8596 54.2245
17.04 54.5797
17.2205 64.35
17.401 69.2434
17.5815 57.7042
17.7622 59.7616
17.9428 69.9749
18.1237 139.552
18.3044 87.8883
18.4852 76.146
18.666 59.1816
18.8469 56.8273
19.0278 55.7823
19.2088 57.8209
19.3898 75.7316
19.5709 53.1538
19.752 52.2246
19.9332 54.5816
20.1144 68.979
20.2957 63.0013
20.477 52.5607
20.6586 48.6208
20.84 47.7824
21.0215 47.3949
21.203 49.9523
21.3846 47.9345
21.5662 47.7375
21.7479 51.0528
21.9297 63.5268
22.1115 55.266
22.2933 48.8589
22.4753 48.0211
22.6572 47.5627
22.8393 50.5427
23.0214 56.4986
23.2037 47.7709
23.3859 48.3981
23.5682 56.3557
23.7505 47.5025
23.9329 44.2659
24.1154 43.3463
24.2979 42.5652
24.4805 42.1108
24.6631 41.9593
24.8458 41.2756
25.0286 41.8468
25.2114 43.709
25.3943 43.8364
25.5773 40.0279
25.7605 39.5646
25.9436 39.9037
26.1268 41.099
26.31 39.2799
26.4933 39.7706
26.6767 41.3014
26.8601 39.6714
27.0437 38.205
27.2272 37.6023
27.4109 37.7203
27.5946 37.6501
27.7784 37.1141
27.9623 37.4963
28.1462 37.9737
28.3304 36.3961
28.5145 35.2011
28.6987 35.0498
28.8829 34.8804
29.0673 34.0707
29.2517 33.6252
29.4361 33.5026
29.6207 32.5015
29.8053 32.323
29.99 31.8843
30.1748 31.8472
30.3597 31.6547
30.5447 31.3943
30.7297 31.5744
30.915 30.947
31.1002 30.4731
31.2855 30.2809
31.4708 30.3022
31.6563 29.824
31.8418 29.568
32.0275 29.3723
32.2132 28.8472
32.399 28.3226
32.5848 27.9214
32.7708 27.564
32.9569 27.4788
33.143 27.1537
33.3293 26.9134
33.5158 26.4576
33.7022 26.1557
33.8887 25.8796
34.0753 25.4092
34.262 25.1761
34.4488 24.782
34.6357 24.4071
34.8227 24.2499
35.0098 23.97
35.1969 23.7474
35.3842 23.4925
35.5716 23.3529
35.759 23.0498
35.9468 22.7195
36.1345 22.5119
36.3222 22.1836
36.5101 21.9788
36.6981 21.6579
36.8861 21.4034
37.0743 21.067
37.2626 20.8211
37.451 20.6541
37.6395 20.3747
37.8281 20.0973
38.0168 19.8202
38.2056 19.5506
38.3945 19.3662
38.5837 19.0779
38.7728 18.8722
38.9621 18.6254
39.1514 18.3989
39.3409 18.1296
39.5304 17.8741
39.7201 17.7263
39.9099 17.5258
40.0999 17.2372
40.2899 17.0273
40.48 16.8311
40.6703 16.6245
40.8607 16.4353
41.0512 16.1962
41.242 16.046
41.4327 15.8041
41.6236 15.5476
41.8146 15.3312
42.0057 15.1396
42.1969 14.9671
42.3882 14.7649
42.5797 14.5225
42.7713 14.3806
42.963 14.2207
43.1549 13.9939
43.3468 13.7681
43.5389 13.6384
43.7312 13.4171
43.9237 13.1944
44.1162 13.0568
44.3088 12.8584
44.5016 12.6468
44.6945 12.511
44.8875 12.2955
45.0806 12.1707
45.2739 11.986
45.4673 11.8126
45.6609 11.6194
45.8546 11.4533
46.0484 11.3255
46.2424 11.1638
46.4365 11.0493
46.631 10.8311
46.8254 10.6694
47.0199 10.4905
47.2146 10.3962
47.4095 10.2532
47.6044 10.0063
47.7996 9.90385
47.9948 9.78324
48.1902 9.63129
48.3858 9.52266
48.5815 9.38797
48.7774 9.23489
48.9734 9.08178
49.1696 8.94058
49.3661 8.79512
49.5626 8.67987
49.7592 8.54792
49.956 8.39385
50.153 8.28343
50.3501 8.15283
50.5474 8.01378
50.7448 7.92366
50.9424 7.77081
51.1402 7.67734
51.3381 7.51428
51.5362 7.44293
51.7344 7.33605
51.9328 7.1888
52.1316 7.05435
52.3304 6.96102
52.5293 6.83777
52.7284 6.73107
52.9276 6.61561
53.1271 6.52271
53.3267 6.3849
53.5265 6.28342
53.7264 6.15367
53.9266 6.02394
54.1269 5.94337
54.3274 5.8854
54.528 5.71937
54.7289 5.52311
54.9301 5.38902
55.1314 5.24542
55.3328 5.06948
55.5344 4.88157
55.7361 4.71996