Folder: NiFe_MOF_catalyst_paper/XRD (part 187)

File: Ni3Fe_FD1011.xy
TT I
1.27165 6.95256
1.45013 5.64505
1.62863 5.13203
1.80712 4.37208
1.98562 4.58845
2.16411 4.48123
2.34263 6.375
2.52115 6.8567
2.69965 9.15035
2.87818 9.32284
3.05672 11.2708
3.23527 15.063
3.4138 18.0687
3.59237 21.2838
3.77094 24.4755
3.9495 28.2451
4.12809 32.3186
4.30669 80.51
4.4853 48.2261
4.6639 51.884
4.84253 63.0356
5.02118 81.1647
5.19981 219.707
5.37848 258.127
5.55716 95.9298
5.73586 85.6405
5.91455 86.0812
6.09328 4307.06
6.27201 75.5218
6.45075 62.4926
6.62952 57.1505
6.8083 54.1714
6.98711 52.1044
7.16591 51.3972
7.34475 61.692
7.5236 64.2186
7.70247 52.6276
7.88135 53.9036
8.06026 57.8927
8.23919 64.4592
8.41812 76.2169
8.59709 1005.82
8.77609 93.9312
8.9551 81.8357
9.13412 78.185
9.31318 99.8522
9.49226 79.7145
9.67134 85.9379
9.85047 91.4711
10.0296 276.961
10.2088 471.329
10.388 95.9987
10.5672 502.241
10.7465 88.5963
10.9257 72.3428
11.105 67.0745
11.2844 63.9532
11.4637 60.8184
11.6431 59.6295
11.8225 58.9469
12.002 70.9668
12.1814 138.944
12.3609 64.3408
12.5405 60.3802
12.72 63.3938
12.8996 66.2129
13.0792 75.3947
13.2589 208.326
13.4386 127.64
13.6183 222.038
13.7981 100.268
13.9779 72.3035
14.1577 79.5444
14.3376 66.5318
14.5175 64.9786
14.6974 66.177
14.8774 99.7821
15.0574 161.985
15.2374 65.7296
15.4175 62.8739
15.5976 61.9465
15.7778 85.9105
15.958 172.392
16.1382 60.2764
16.3185 54.8469
16.4988 52.2151
16.6792 51.3814
16.8596 52.0991
17.04 52.9406
17.2205 62.3213
17.401 70.75
17.5815 56.2031
17.7622 59.2456
17.9428 68.7882
18.1237 140.619
18.3044 86.1305
18.4852 78.3688
18.666 58.1529
18.8469 55.3333
19.0278 54.0456
19.2088 56.1045
19.3898 76.0409
19.5709 52.1127
19.752 50.7097
19.9332 53.1684
20.1144 68.9122
20.2957 62.0867
20.477 52.1451
20.6586 47.5341
20.84 47.3724
21.0215 46.4037
21.203 48.5659
21.3846 47.037
21.5662 46.5473
21.7479 50.0324
21.9297 64.3219
22.1115 55.2403
22.2933 48.2197
22.4753 46.4947
22.6572 46.6053
22.8393 49.9126
23.0214 56.8034
23.2037 46.8558
23.3859 48.0947
23.5682 56.1926
23.7505 47.6074
23.9329 43.547
24.1154 42.4961
24.2979 41.7182
24.4805 41.1167
24.6631 41.4956
24.8458 40.5305
25.0286 41.2463
25.2114 43.3409
25.3943 43.6791
25.5773 39.4846
25.7605 38.8825
25.9436 39.1626
26.1268 40.5094
26.31 38.4843
26.4933 39.2099
26.6767 41.3098
26.8601 39.4733
27.0437 37.6638
27.2272 37.2376
27.4109 37.1603
27.5946 37.2407
27.7784 36.6362
27.9623 37.2732
28.1462 38.1188
28.3304 36.2705
28.5145 34.7724
28.6987 34.4958
28.8829 34.3104
29.0673 33.4335
29.2517 33.1891
29.4361 33.0599
29.6207 32.0627
29.8053 31.673
29.99 31.3484
30.1748 31.3163
30.3597 31.1511
30.5447 31.0543
30.7297 31.1489
30.915 30.6266
31.1002 30.1793
31.2855 29.8617
31.4708 29.9358
31.6563 29.4473
31.8418 29.1592
32.0275 29.0201
32.2132 28.4612
32.399 27.9577
32.5848 27.5201
32.7708 27.2026
32.9569 27.0969
33.143 26.8657
33.3293 26.5904
33.5158 26.2236
33.7022 25.7329
33.8887 25.4292
34.0753 25.204
34.262 24.8617
34.4488 24.4646
34.6357 24.1363
34.8227 23.8901
35.0098 23.694
35.1969 23.4969
35.3842 23.2498
35.5716 23.108
35.759 22.7949
35.9468 22.3519
36.1345 22.2729
36.3222 22.031
36.5101 21.6826
36.6981 21.4753
36.8861 21.1764
37.0743 20.8005
37.2626 20.591
37.451 20.3339
37.6395 20.1647
37.8281 19.8434
38.0168 19.569
38.2056 19.3749
38.3945 19.0815
38.5837 18.8623
38.7728 18.595
38.9621 18.3438
39.1514 18.0956
39.3409 17.8828
39.5304 17.6899
39.7201 17.4203
39.9099 17.2816
40.0999 17.0528
40.2899 16.7971
40.48 16.5873
40.6703 16.3425
40.8607 16.1748
41.0512 15.9517
41.242 15.6918
41.4327 15.5557
41.6236 15.3721
41.8146 15.1642
42.0057 14.9313
42.1969 14.7591
42.3882 14.6128
42.5797 14.3976
42.7713 14.1587
42.963 13.9662
43.1549 13.8046
43.3468 13.5581
43.5389 13.3746
43.7312 13.2019
43.9237 13.0499
44.1162 12.8322
44.3088 12.6525
44.5016 12.4925
44.6945 12.3499
44.8875 12.1738
45.0806 11.9768
45.2739 11.83
45.4673 11.6591
45.6609 11.4787
45.8546 11.4091
46.0484 11.1342
46.2424 11.004
46.4365 10.8805
46.631 10.6801
46.8254 10.5388
47.0199 10.3609
47.2146 10.1903
47.4095 10.0651
47.6044 9.89626
47.7996 9.77261
47.9948 9.60079
48.1902 9.48152
48.3858 9.34449
48.5815 9.24315
48.7774 9.08776
48.9734 8.95016
49.1696 8.8151
49.3661 8.67361
49.5626 8.56125
49.7592 8.40947
49.956 8.32448
50.153 8.17354
50.3501 8.05618
50.5474 7.92627
50.7448 7.80067
50.9424 7.67449
51.1402 7.52665
51.3381 7.44376
51.5362 7.31036
51.7344 7.17651
51.9328 7.05861
52.1316 6.97048
52.3304 6.84041
52.5293 6.70769
52.7284 6.66342
52.9276 6.51626
53.1271 6.41205
53.3267 6.30845
53.5265 6.14902
53.7264 6.11674
53.9266 6.01331
54.1269 5.83385
54.3274 5.7641
54.528 5.58811
54.7289 5.4431
54.9301 5.31729
55.1314 5.15956
55.3328 4.97723
55.5344 4.84248
55.7361 4.6589

File: Ni3Fe_FD1012.xy
TT I
1.27165 6.99761
1.45013 5.65004
1.62863 4.87896
1.80712 4.52105
1.98562 3.9838
2.16411 4.18762
2.34263 5.51156
2.52115 7.75609
2.69965 8.45211
2.87818 9.5565
3.05672 11.4731
3.23527 14.7744
3.4138 18.4081
3.59237 21.6588
3.77094 24.6089
3.9495 28.1277
4.12809 32.0751
4.30669 65.9673
4.4853 46.5868
4.6639 52.3606
4.84253 63.0862
5.02118 81.0469
5.19981 220.655
5.37848 256.503
5.55716 96.3451
5.73586 86.5893
5.91455 86.9758
6.09328 4341.38
6.27201 75.2626
6.45075 62.7341
6.62952 57.2737
6.8083 54.268
6.98711 51.8729
7.16591 51.0981
7.34475 58.0177
7.5236 65.4184
7.70247 52.95
7.88135 54.0226
8.06026 57.8313
8.23919 64.4773
8.41812 76.18
8.59709 1028.1
8.77609 93.9249
8.9551 81.5343
9.13412 78.5493
9.31318 99.5865
9.49226 79.7748
9.67134 85.3471
9.85047 92.2413
10.0296 286.671
10.2088 467.252
10.388 96.2287
10.5672 500.057
10.7465 88.85
10.9257 72.4172
11.105 67.3274
11.2844 63.7334
11.4637 60.7763
11.6431 59.8133
11.8225 58.846
12.002 71.2388
12.1814 139.07
12.3609 64.1052
12.5405 60.5114
12.72 62.9871
12.8996 66.3875
13.0792 75.6999
13.2589 211.042
13.4386 126.56
13.6183 223.297
13.7981 99.9433
13.9779 72.1384
14.1577 80.3543
14.3376 66.2058
14.5175 65.1995
14.6974 66.1162
14.8774 101.23
15.0574 160.093
15.2374 65.6425
15.4175 63.1594
15.5976 61.9776
15.7778 86.9136
15.958 173.072
16.1382 60.2156
16.3185 54.6527
16.4988 52.7598
16.6792 51.4981
16.8596 51.9013
17.04 53.0384
17.2205 62.1519
17.401 70.7916
17.5815 56.2561
17.7622 59.2271
17.9428 69.2905
18.1237 140.538
18.3044 86.6336
18.4852 77.8633
18.666 58.0597
18.8469 55.4526
19.0278 54.1246
19.2088 56.3082
19.3898 75.9973
19.5709 51.9774
19.752 51.0667
19.9332 53.3564
20.1144 69.2488
20.2957 62.1009
20.477 52.162
20.6586 47.5932
20.84 47.4091
21.0215 46.401
21.203 48.6952
21.3846 47.178
21.5662 46.7559
21.7479 50.2524
21.9297 64.2566
22.1115 55.4501
22.2933 48.3595
22.4753 46.6965
22.6572 46.8661
22.8393 50.0168
23.0214 56.6949
23.2037 47.0129
23.3859 48.015
23.5682 56.3469
23.7505 47.6445
23.9329 43.5588
24.1154 42.4987
24.2979 41.7085
24.4805 41.2469
24.6631 41.3727
24.8458 40.5909
25.0286 41.1857
25.2114 43.3783
25.3943 43.7207
25.5773 39.4356
25.7605 38.914
25.9436 39.3211
26.1268 40.7231
26.31 38.6606
26.4933 39.1539
26.6767 41.2108
26.8601 39.4827
27.0437 37.7078
27.2272 37.1808
27.4109 37.1505
27.5946 37.3809
27.7784 36.6356
27.9623 37.341
28.1462 37.9843
28.3304 36.2806
28.5145 34.7862
28.6987 34.4506
28.8829 34.3837
29.0673 33.5877
29.2517 33.2258
29.4361 33.0693
29.6207 32.0444
29.8053 31.7093
29.99 31.4394
30.1748 31.4532
30.3597 31.2159
30.5447 31.1529
30.7297 31.3913
30.915 30.6725
31.1002 30.011
31.2855 29.8825
31.4708 29.9218
31.6563 29.3783
31.8418 29.1808
32.0275 29.112
32.2132 28.5327
32.399 28.0225
32.5848 27.598
32.7708 27.1858
32.9569 27.1064
33.143 26.9734
33.3293 26.5994
33.5158 26.221
33.7022 25.7546
33.8887 25.5181
34.0753 25.1932
34.262 24.8396
34.4488 24.5123
34.6357 24.0845
34.8227 23.8286
35.0098 23.772
35.1969 23.4596
35.3842 23.18
35.5716 23.1517
35.759 22.714
35.9468 22.4977
36.1345 22.2183
36.3222 22.0345
36.5101 21.7369
36.6981 21.4653
36.8861 21.2111
37.0743 20.8078
37.2626 20.7221
37.451 20.2614
37.6395 20.1778
37.8281 19.8304
38.0168 19.5389
38.2056 19.3562
38.3945 19.0949
38.5837 18.845
38.7728 18.6397
38.9621 18.3425
39.1514 18.1169
39.3409 17.8591
39.5304 17.6898
39.7201 17.4725
39.9099 17.2837
40.0999 17.0546
40.2899 16.8179
40.48 16.5574
40.6703 16.3495
40.8607 16.2028
41.0512 15.927
41.242 15.745
41.4327 15.5862
41.6236 15.2971
41.8146 15.1534
42.0057 14.9544
42.1969 14.8177
42.3882 14.6166
42.5797 14.3963
42.7713 14.1677
42.963 14.011
43.1549 13.7963
43.3468 13.5802
43.5389 13.4164
43.7312 13.2278
43.9237 13.0666
44.1162 12.8461
44.3088 12.6688
44.5016 12.4861
44.6945 12.3442
44.8875 12.178
45.0806 11.9939
45.2739 11.8015
45.4673 11.6558
45.6609 11.5092
45.8546 11.3557
46.0484 11.1738
46.2424 10.9695
46.4365 10.8961
46.631 10.6739
46.8254 10.5324
47.0199 10.3816
47.2146 10.2368
47.4095 10.0693
47.6044 9.94672
47.7996 9.77065
47.9948 9.66902
48.1902 9.51148
48.3858 9.34959
48.5815 9.21991
48.7774 9.09576
48.9734 8.94547
49.1696 8.84846
49.3661 8.69169
49.5626 8.51644
49.7592 8.39999
49.956 8.29284
50.153 8.16824
50.3501 8.05491
50.5474 7.93631
50.7448 7.82177
50.9424 7.71807
51.1402 7.57857
51.3381 7.42826
51.5362 7.31154
51.7344 7.20976
51.9328 7.04891
52.1316 6.95107
52.3304 6.85251
52.5293 6.73527
52.7284 6.57754
52.9276 6.50551
53.1271 6.42386
53.3267 6.28835
53.5265 6.17683
53.7264 6.09903
53.9266 6.00748
54.1269 5.8569
54.3274 5.76163
54.528 5.63345
54.7289 5.4361
54.9301 5.34989
55.1314 5.16984
55.3328 4.93962
55.5344 4.80617
55.7361 4.70247

File: Ni3Fe_FD1013.xy
TT I
1.27165 7.00344
1.45013 5.77079
1.62863 5.03272
1.80712 4.20527
1.98562 4.23112
2.16411 4.27644
2.34263 5.64585
2.52115 7.44525
2.69965 8.45335
2.87818 9.32817
3.05672 11.4231
3.23527 14.527
3.4138 18.4844
3.59237 21.3156
3.77094 24.6643
3.9495 28.1322
4.12809 32.0207
4.30669 62.0164
4.4853 46.2055
4.6639 51.5654
4.84253 63.1242
5.02118 81.8287
5.19981 222.127
5.37848 252.245
5.55716 96.4801
5.73586 86.5994
5.91455 87.1954
6.09328 4346.5
6.27201 75.1722
6.45075 62.6103
6.62952 57.3183
6.8083 53.9414
6.98711 51.6968
7.16591 51.2747
7.34475 57.25
7.5236 65.1163
7.70247 52.5021
7.88135 53.8631
8.06026 58.3055
8.23919 64.8732
8.41812 76.238
8.59709 1031.96
8.77609 94.3549
8.9551 81.6034
9.13412 78.278
9.31318 98.3428
9.49226 79.9331
9.67134 85.3814
9.85047 92.5225
10.0296 294.582
10.2088 462.052
10.388 96.3059
10.5672 495.877
10.7465 88.1556
10.9257 72.4769
11.105 67.2388
11.2844 63.8275
11.4637 61.17
11.6431 59.6217
11.8225 58.8068
12.002 71.0663
12.1814 140.425
12.3609 63.8025
12.5405 60.4795
12.72 62.8128
12.8996 66.5003
13.0792 76.028
13.2589 213.118
13.4386 126.612
13.6183 224.769
13.7981 99.6107
13.9779 72.2225
14.1577 79.7633
14.3376 66.4108
14.5175 65.2778
14.6974 66.0776
14.8774 102.484
15.0574 159.081
15.2374 65.6929
15.4175 63.1098
15.5976 62.3404
15.7778 87.5294
15.958 172.114
16.1382 59.9287
16.3185 54.787
16.4988 52.6353
16.6792 51.762
16.8596 52.2799
17.04 52.9859
17.2205 62.5791
17.401 70.9317
17.5815 56.3481
17.7622 59.3917
17.9428 69.5054
18.1237 140.828
18.3044 86.6849
18.4852 77.826
18.666 58.2249
18.8469 55.5446
19.0278 54.177
19.2088 56.4425
19.3898 75.9066
19.5709 52.0762
19.752 50.8323
19.9332 53.5181
20.1144 69.4716
20.2957 62.3476
20.477 52.1741
20.6586 47.6364
20.84 47.3269
21.0215 46.4467
21.203 48.5751
21.3846 47.309
21.5662 46.6848
21.7479 50.3749
21.9297 64.4065
22.1115 55.366
22.2933 48.2311
22.4753 46.7584
22.6572 46.8675
22.8393 50.065
23.0214 56.7335
23.2037 46.9867
23.3859 48.3082
23.5682 56.3482
23.7505 47.5235
23.9329 43.6265
24.1154 42.4022
24.2979 41.9089
24.4805 41.3283
24.6631 41.3811
24.8458 40.5847
25.0286 41.2118
25.2114 43.495
25.3943 43.7049
25.5773 39.6359
25.7605 38.9185
25.9436 39.2421
26.1268 40.546
26.31 38.8341
26.4933 39.2342
26.6767 41.3527
26.8601 39.3394
27.0437 37.6847
27.2272 37.253
27.4109 37.1818
27.5946 37.3371
27.7784 36.7083
27.9623 37.3621
28.1462 37.9798
28.3304 36.1628
28.5145 34.9006
28.6987 34.4871
28.8829 34.3737
29.0673 33.5553
29.2517 33.1976
29.4361 33.1867
29.6207 31.9904
29.8053 31.7668
29.99 31.5213
30.1748 31.3124
30.3597 31.3488
30.5447 31.0763
30.7297 31.3477
30.915 30.8026
31.1002 30.2173
31.2855 29.9324
31.4708 29.9358
31.6563 29.4021
31.8418 29.2054
32.0275 29.0487
32.2132 28.4966
32.399 27.948
32.5848 27.6112
32.7708 27.2448
32.9569 27.121
33.143 26.9034
33.3293 26.5663
33.5158 26.1769
33.7022 25.771
33.8887 25.5217
34.0753 25.2184
34.262 24.8712
34.4488 24.4265
34.6357 24.1715
34.8227 23.9264
35.0098 23.7329
35.1969 23.4546
35.3842 23.2854
35.5716 23.092
35.759 22.7451
35.9468 22.3352
36.1345 22.2226
36.3222 21.9742
36.5101 21.7796
36.6981 21.4698
36.8861 21.1551
37.0743 20.8514
37.2626 20.6646
37.451 20.3381
37.6395 20.2146
37.8281 19.8841
38.0168 19.5628
38.2056 19.3067
38.3945 19.0875
38.5837 18.8172
38.7728 18.6216
38.9621 18.3524
39.1514 18.1287
39.3409 17.8514
39.5304 17.7409
39.7201 17.5352
39.9099 17.2878
40.0999 17.0711
40.2899 16.7887
40.48 16.5885
40.6703 16.3595
40.8607 16.2419
41.0512 16.0071
41.242 15.7965
41.4327 15.6152
41.6236 15.3134
41.8146 15.2253
42.0057 14.9769
42.1969 14.7015
42.3882 14.5983
42.5797 14.3667
42.7713 14.194
42.963 13.9949
43.1549 13.7511
43.3468 13.6159
43.5389 13.4096
43.7312 13.285
43.9237 13.0223
44.1162 12.8788
44.3088 12.6756
44.5016 12.5241
44.6945 12.3207
44.8875 12.1884
45.0806 12.0016
45.2739 11.82
45.4673 11.6812
45.6609 11.4646
45.8546 11.3295
46.0484 11.1711
46.2424 11.0053
46.4365 10.8773
46.631 10.688
46.8254 10.5339
47.0199 10.3863
47.2146 10.2563
47.4095 10.0737
47.6044 9.95594
47.7996 9.78877
47.9948 9.62939
48.1902 9.50598
48.3858 9.40303
48.5815 9.22736
48.7774 9.12025
48.9734 8.97701
49.1696 8.84568
49.3661 8.69202
49.5626 8.52397
49.7592 8.42205
49.956 8.32492
50.153 8.19127
50.3501 8.06865
50.5474 7.92483
50.7448 7.79737
50.9424 7.69495
51.1402 7.58379
51.3381 7.43943
51.5362 7.3835
51.7344 7.18755
51.9328 7.05551
52.1316 6.95206
52.3304 6.85536
52.5293 6.74861
52.7284 6.64056
52.9276 6.5137
53.1271 6.38406
53.3267 6.28045
53.5265 6.20014
53.7264 6.09261
53.9266 5.98508
54.1269 5.83279
54.3274 5.78492
54.528 5.63604
54.7289 5.44854
54.9301 5.3419
55.1314 5.17422
55.3328 4.98732
55.5344 4.80555
55.7361 4.68265

File: Ni3Fe_FD1014.xy
TT I
1.27165 6.87458
1.45013 5.56579
1.62863 4.91526
1.80712 4.62349
1.98562 4.38637
2.16411 4.29069
2.34263 5.54497
2.52115 7.58603
2.69965 8.86196
2.87818 8.96552
3.05672 10.9801
3.23527 14.8841
3.4138 18.4382
3.59237 21.119
3.77094 24.6522
3.9495 28.0483
4.12809 32.3067
4.30669 60.35
4.4853 46.3535
4.6639 51.9766
4.84253 63.521
5.02118 81.828
5.19981 222.387
5.37848 248.474
5.55716 96.6197
5.73586 86.5779
5.91455 87.6361
6.09328 4352.21
6.27201 75.0564
6.45075 62.5764
6.62952 57.6628
6.8083 53.9474
6.98711 52.3585
7.16591 51.4353
7.34475 56.6929
7.5236 64.0388
7.70247 52.5584
7.88135 53.922
8.06026 58.2527
8.23919 64.8766
8.41812 76.5594
8.59709 1031.0
8.77609 94.2429
8.9551 81.4743
9.13412 78.7343
9.31318 97.1786
9.49226 79.9318
9.67134 85.1841
9.85047 92.3086
10.0296 301.3
10.2088 467.142
10.388 96.3291
10.5672 491.989
10.7465 88.1396
10.9257 72.6559
11.105 67.4694
11.2844 64.1465
11.4637 61.3028
11.6431 59.7224
11.8225 58.8237
12.002 70.6111
12.1814 140.769
12.3609 63.9172
12.5405 60.4342
12.72 63.1335
12.8996 66.7547
13.0792 75.7712
13.2589 214.392
13.4386 126.741
13.6183 225.629
13.7981 99.5285
13.9779 72.4773
14.1577 79.3436
14.3376 66.3552
14.5175 65.4302
14.6974 66.2059
14.8774 102.825
15.0574 158.387
15.2374 65.8099
15.4175 62.9449
15.5976 62.4545
15.7778 88.4595
15.958 172.335
16.1382 59.8417
16.3185 54.9236
16.4988 52.6262
16.6792 51.7065
16.8596 52.2886
17.04 53.0412
17.2205 62.938
17.401 71.3557
17.5815 56.2899
17.7622 59.6014
17.9428 70.0049
18.1237 140.502
18.3044 86.8192
18.4852 77.9862
18.666 58.0667
18.8469 55.6344
19.0278 54.1858
19.2088 56.6697
19.3898 76.0644
19.5709 52.1737
19.752 50.9048
19.9332 53.7548
20.1144 69.4559
20.2957 62.3805
20.477 52.3053
20.6586 47.5854
20.84 47.4317
21.0215 46.5235
21.203 48.724
21.3846 47.1974
21.5662 46.7663
21.7479 50.3754
21.9297 64.3781
22.1115 55.3423
22.2933 48.2993
22.4753 46.6926
22.6572 46.7829
22.8393 50.2807
23.0214 56.7862
23.2037 47.1114
23.3859 48.2204
23.5682 56.3521
23.7505 47.5173
23.9329 43.5485
24.1154 42.447
24.2979 41.6606
24.4805 41.3423
24.6631 41.5445
24.8458 40.6716
25.0286 41.325
25.2114 43.542
25.3943 43.8208
25.5773 39.6538
25.7605 39.0442
25.9436 39.3562
26.1268 40.7488
26.31 38.7445
26.4933 39.3133
26.6767 41.2541
26.8601 39.5691
27.0437 37.8168
27.2272 37.3348
27.4109 37.1899
27.5946 37.3692
27.7784 36.7019
27.9623 37.2956
28.1462 38.078
28.3304 36.2842
28.5145 34.8224
28.6987 34.4768
28.8829 34.3525
29.0673 33.5566
29.2517 33.1491
29.4361 33.1327
29.6207 32.1689
29.8053 31.7934
29.99 31.6076
30.1748 31.4958
30.3597 31.1649
30.5447 31.1558
30.7297 31.3593
30.915 30.709
31.1002 30.1657
31.2855 29.8761
31.4708 29.9764
31.6563 29.492
31.8418 29.2396
32.0275 29.1085
32.2132 28.5431
32.399 28.009
32.5848 27.6347
32.7708 27.3212
32.9569 27.2016
33.143 27.01
33.3293 26.6961
33.5158 26.2875
33.7022 25.7446
33.8887 25.5867
34.0753 25.1784
34.262 24.8444
34.4488 24.5393
34.6357 24.1566
34.8227 23.9917
35.0098 23.691
35.1969 23.5009
35.3842 23.275
35.5716 23.1277
35.759 22.779
35.9468 22.386
36.1345 22.2336
36.3222 21.9879
36.5101 21.7226
36.6981 21.4326
36.8861 21.1215
37.0743 20.8913
37.2626 20.6609
37.451 20.3383
37.6395 20.2157
37.8281 19.88
38.0168 19.5651
38.2056 19.3421
38.3945 19.0739
38.5837 18.8568
38.7728 18.6764
38.9621 18.425
39.1514 18.158
39.3409 17.8836
39.5304 17.6457
39.7201 17.5118
39.9099 17.3325
40.0999 17.0705
40.2899 16.8895
40.48 16.6326
40.6703 16.4512
40.8607 16.3159
41.0512 16.0148
41.242 15.7538
41.4327 15.6084
41.6236 15.3529
41.8146 15.1594
42.0057 14.9756
42.1969 14.7992
42.3882 14.6578
42.5797 14.3691
42.7713 14.1668
42.963 14.0244
43.1549 13.7967
43.3468 13.6118
43.5389 13.4674
43.7312 13.2054
43.9237 13.0523
44.1162 12.8691
44.3088 12.7038
44.5016 12.4901
44.6945 12.3711
44.8875 12.1922
45.0806 12.0
45.2739 11.8191
45.4673 11.6857
45.6609 11.4999
45.8546 11.381
46.0484 11.2006
46.2424 11.0336
46.4365 10.9033
46.631 10.6946
46.8254 10.5494
47.0199 10.3833
47.2146 10.2683
47.4095 10.0769
47.6044 9.9322
47.7996 9.7583
47.9948 9.63979
48.1902 9.50417
48.3858 9.36848
48.5815 9.28498
48.7774 9.07632
48.9734 8.95326
49.1696 8.84059
49.3661 8.71787
49.5626 8.52882
49.7592 8.43309
49.956 8.3541
50.153 8.17196
50.3501 8.03105
50.5474 7.96462
50.7448 7.80131
50.9424 7.67191
51.1402 7.5979
51.3381 7.44994
51.5362 7.3307
51.7344 7.19431
51.9328 7.12761
52.1316 6.94144
52.3304 6.87251
52.5293 6.72391
52.7284 6.66827
52.9276 6.51987
53.1271 6.44422
53.3267 6.29824
53.5265 6.20948
53.7264 6.09532
53.9266 6.00635
54.1269 5.91534
54.3274 5.81461
54.528 5.64924
54.7289 5.49996
54.9301 5.31316
55.1314 5.26101
55.3328 4.99942
55.5344 4.81627
55.7361 4.65333

File: Ni3Fe_FD1015.xy
TT I
1.27165 6.98372
1.45013 5.75378
1.62863 4.93449
1.80712 4.33685
1.98562 4.46074
2.16411 4.62795
2.34263 4.91833
2.52115 7.27439
2.69965 8.68096
2.87818 9.20406
3.05672 10.9571
3.23527 15.0254
3.4138 18.4423
3.59237 21.4436
3.77094 24.8044
3.9495 28.2971
4.12809 32.1062
4.30669 59.7112
4.4853 46.3222
4.6639 52.351
4.84253 63.351
5.02118 81.6804
5.19981 221.97
5.37848 244.748
5.55716 96.2809
5.73586 86.7908
5.91455 87.1818
6.09328 4326.67
6.27201 75.0017
6.45075 62.8464
6.62952 57.2597
6.8083 54.1675
6.98711 51.9665
7.16591 51.2196
7.34475 56.7162
7.5236 63.1313
7.70247 52.6671
7.88135 54.3308
8.06026 57.9525
8.23919 64.592
8.41812 76.3402
8.59709 1034.11
8.77609 94.4079
8.9551 81.6962
9.13412 78.8159
9.31318 96.7283
9.49226 80.0416
9.67134 85.2478
9.85047 92.05
10.0296 304.902
10.2088 467.228
10.388 96.4411
10.5672 488.598
10.7465 87.9169
10.9257 72.2808
11.105 67.2428
11.2844 63.8301
11.4637 61.2612
11.6431 59.8442
11.8225 58.9621
12.002 69.9872
12.1814 141.192
12.3609 63.6676
12.5405 60.4438
12.72 63.1229
12.8996 66.6239
13.0792 75.6548
13.2589 214.754
13.4386 127.581
13.6183 226.102
13.7981 99.8158
13.9779 72.4024
14.1577 78.6042
14.3376 66.4852
14.5175 65.3371
14.6974 66.0832
14.8774 103.44
15.0574 158.674
15.2374 65.55
15.4175 63.0191
15.5976 62.3047
15.7778 88.7992
15.958 172.319
16.1382 59.7704
16.3185 54.7523
16.4988 52.7569
16.6792 51.6146
16.8596 52.1006
17.04 53.1498
17.2205 62.9051
17.401 71.4453
17.5815 56.2893
17.7622 59.4004
17.9428 69.9904
18.1237 140.312
18.3044 86.7773
18.4852 78.5744
18.666 58.0177
18.8469 55.577
19.0278 54.256
19.2088 56.6453
19.3898 75.9825
19.5709 52.2406
19.752 50.8446
19.9332 53.7609
20.1144 69.4415
20.2957 62.3977
20.477 52.2096
20.6586 47.718
20.84 47.5506
21.0215 46.3945
21.203 48.5832
21.3846 47.268
21.5662 46.696
21.7479 50.4634
21.9297 64.356
22.1115 55.1016
22.2933 48.3868
22.4753 46.7126
22.6572 47.0068
22.8393 50.1163
23.0214 56.9196
23.2037 47.2383
23.3859 48.3974
23.5682 56.3459
23.7505 47.562
23.9329 43.4223
24.1154 42.5182
24.2979 41.6714
24.4805 41.4523
24.6631 41.4464
24.8458 40.6666
25.0286 41.2042
25.2114 43.5451
25.3943 43.8906
25.5773 39.5963
25.7605 38.997
25.9436 39.4435
26.1268 40.7791
26.31 38.7262
26.4933 39.3355
26.6767 41.3922
26.8601 39.5702
27.0437 37.7215
27.2272 37.2713
27.4109 37.157
27.5946 37.2357
27.7784 36.7355
27.9623 37.4215
28.1462 38.1264
28.3304 36.3543
28.5145 34.8095
28.6987 34.504
28.8829 34.4202
29.0673 33.5987
29.2517 33.2552
29.4361 33.0353
29.6207 32.1948
29.8053 31.8165
29.99 31.565
30.1748 31.4446
30.3597 31.1972
30.5447 31.1552
30.7297 31.4026
30.915 30.7002
31.1002 30.274
31.2855 29.9244
31.4708 29.9649
31.6563 29.4888
31.8418 29.3108
32.0275 29.1732
32.2132 28.5706
32.399 28.0813
32.5848 27.592
32.7708 27.3016
32.9569 27.1128
33.143 26.9272
33.3293 26.6346
33.5158 26.2128
33.7022 25.7837
33.8887 25.5708
34.0753 25.2108
34.262 24.8325
34.4488 24.4989
34.6357 24.2444
34.8227 24.0121
35.0098 23.7409
35.1969 23.5203
35.3842 23.2677
35.5716 23.1405
35.759 22.8279
35.9468 22.5103
36.1345 22.27
36.3222 22.0074
36.5101 21.7807
36.6981 21.4319
36.8861 21.1683
37.0743 20.867
37.2626 20.6762
37.451 20.3994
37.6395 20.2918
37.8281 19.8663
38.0168 19.6465
38.2056 19.3365
38.3945 19.077
38.5837 18.8861
38.7728 18.6637
38.9621 18.4004
39.1514 18.1616
39.3409 17.9186
39.5304 17.6981
39.7201 17.5032
39.9099 17.3177
40.0999 17.0789
40.2899 16.7963
40.48 16.6935
40.6703 16.3659
40.8607 16.2559
41.0512 16.0452
41.242 15.8057
41.4327 15.5715
41.6236 15.3835
41.8146 15.224
42.0057 14.9689
42.1969 14.7738
42.3882 14.5606
42.5797 14.4109
42.7713 14.174
42.963 13.9846
43.1549 13.8634
43.3468 13.5699
43.5389 13.4304
43.7312 13.246
43.9237 13.0665
44.1162 12.8826
44.3088 12.6862
44.5016 12.485
44.6945 12.3989
44.8875 12.1887
45.0806 11.9927
45.2739 11.8501
45.4673 11.7239
45.6609 11.4955
45.8546 11.357
46.0484 11.2217
46.2424 11.0236
46.4365 10.8509
46.631 10.6554
46.8254 10.5257
47.0199 10.4635
47.2146 10.265
47.4095 10.0741
47.6044 9.93409
47.7996 9.78426
47.9948 9.67735
48.1902 9.50235
48.3858 9.39779
48.5815 9.25082
48.7774 9.11956
48.9734 8.99807
49.1696 8.84212
49.3661 8.65822
49.5626 8.56876
49.7592 8.45764
49.956 8.31356
50.153 8.20493
50.3501 8.03496
50.5474 7.92309
50.7448 7.81191
50.9424 7.70501
51.1402 7.57789
51.3381 7.43678
51.5362 7.35885
51.7344 7.21723
51.9328 7.08487
52.1316 6.9825
52.3304 6.85117
52.5293 6.7575
52.7284 6.63493
52.9276 6.56436
53.1271 6.45648
53.3267 6.33207
53.5265 6.20077
53.7264 6.05953
53.9266 5.99282
54.1269 5.89794
54.3274 5.77841
54.528 5.69888
54.7289 5.53072
54.9301 5.31538
55.1314 5.17684
55.3328 5.0029
55.5344 4.79813
55.7361 4.71353