Folder: NiFe_MOF_catalyst_paper/XRD (part 190)

File: Ni3Fe_FD1026.xy
TT I
1.27165 6.70313
1.45013 6.01627
1.62863 5.23146
1.80712 4.79234
1.98562 4.43202
2.16411 4.28214
2.34263 5.05603
2.52115 7.2181
2.69965 8.52315
2.87818 9.0563
3.05672 11.1595
3.23527 14.9516
3.4138 18.2703
3.59237 21.458
3.77094 24.5095
3.9495 28.4972
4.12809 32.1475
4.30669 57.4379
4.4853 46.3262
4.6639 52.68
4.84253 64.2192
5.02118 83.0521
5.19981 229.851
5.37848 226.126
5.55716 97.0144
5.73586 87.3565
5.91455 88.9014
6.09328 4420.41
6.27201 75.1218
6.45075 63.1361
6.62952 57.7617
6.8083 53.8238
6.98711 52.2702
7.16591 51.3607
7.34475 56.4032
7.5236 60.8971
7.70247 53.0092
7.88135 54.7331
8.06026 59.1597
8.23919 65.4413
8.41812 77.3029
8.59709 1066.96
8.77609 94.6811
8.9551 82.1591
9.13412 78.6055
9.31318 92.1811
9.49226 80.5697
9.67134 85.8866
9.85047 93.2487
10.0296 333.807
10.2088 445.436
10.388 97.2329
10.5672 497.898
10.7465 86.4875
10.9257 73.1044
11.105 67.7808
11.2844 64.4936
11.4637 61.5576
11.6431 60.3123
11.8225 59.4698
12.002 68.187
12.1814 144.73
12.3609 64.246
12.5405 60.7274
12.72 63.6522
12.8996 67.4109
13.0792 76.1918
13.2589 222.757
13.4386 126.165
13.6183 232.521
13.7981 99.546
13.9779 73.0864
14.1577 76.7471
14.3376 66.8691
14.5175 66.239
14.6974 67.1994
14.8774 107.086
15.0574 158.385
15.2374 66.0969
15.4175 63.5865
15.5976 63.0062
15.7778 92.1178
15.958 166.89
16.1382 59.7935
16.3185 55.2679
16.4988 53.0139
16.6792 52.2875
16.8596 52.563
17.04 53.5894
17.2205 64.0807
17.401 70.9103
17.5815 56.8807
17.7622 59.5075
17.9428 72.0569
18.1237 140.75
18.3044 87.8066
18.4852 78.5198
18.666 58.6012
18.8469 56.0105
19.0278 54.5703
19.2088 57.5276
19.3898 75.6989
19.5709 52.7413
19.752 51.5536
19.9332 54.3356
20.1144 69.6885
20.2957 62.8193
20.477 52.607
20.6586 47.9811
20.84 47.706
21.0215 47.0599
21.203 49.226
21.3846 47.494
21.5662 47.2403
21.7479 51.3445
21.9297 64.8573
22.1115 55.6651
22.2933 48.7951
22.4753 47.1261
22.6572 47.1313
22.8393 50.7712
23.0214 57.3211
23.2037 47.5756
23.3859 48.919
23.5682 56.877
23.7505 47.7932
23.9329 43.8966
24.1154 42.8126
24.2979 42.1539
24.4805 41.7028
24.6631 41.7106
24.8458 41.0451
25.0286 41.7691
25.2114 43.9541
25.3943 44.1046
25.5773 39.8388
25.7605 39.4592
25.9436 39.8071
26.1268 41.1172
26.31 39.0865
26.4933 39.7491
26.6767 41.6575
26.8601 39.8868
27.0437 38.0901
27.2272 37.5797
27.4109 37.4433
27.5946 37.5477
27.7784 37.0657
27.9623 37.6966
28.1462 38.433
28.3304 36.594
28.5145 35.1697
28.6987 34.727
28.8829 34.7335
29.0673 33.9284
29.2517 33.5176
29.4361 33.4508
29.6207 32.372
29.8053 32.0854
29.99 31.7851
30.1748 31.6282
30.3597 31.5429
30.5447 31.4226
30.7297 31.6854
30.915 30.9312
31.1002 30.4182
31.2855 30.209
31.4708 30.264
31.6563 29.8158
31.8418 29.463
32.0275 29.409
32.2132 28.8194
32.399 28.2662
32.5848 27.9128
32.7708 27.5309
32.9569 27.3042
33.143 27.2122
33.3293 26.9068
33.5158 26.4467
33.7022 25.9573
33.8887 25.7531
34.0753 25.4647
34.262 25.0274
34.4488 24.6904
34.6357 24.313
34.8227 24.0884
35.0098 23.8955
35.1969 23.6651
35.3842 23.4457
35.5716 23.2622
35.759 23.0385
35.9468 22.6184
36.1345 22.3744
36.3222 22.198
36.5101 21.9605
36.6981 21.6703
36.8861 21.4024
37.0743 21.0054
37.2626 20.8099
37.451 20.4958
37.6395 20.3281
37.8281 20.0218
38.0168 19.7093
38.2056 19.5159
38.3945 19.2355
38.5837 19.0297
38.7728 18.7717
38.9621 18.5846
39.1514 18.3285
39.3409 18.0619
39.5304 17.8676
39.7201 17.6499
39.9099 17.4366
40.0999 17.2134
40.2899 16.9487
40.48 16.7553
40.6703 16.5372
40.8607 16.402
41.0512 16.1267
41.242 15.8577
41.4327 15.6984
41.6236 15.4908
41.8146 15.3323
42.0057 15.1377
42.1969 14.8845
42.3882 14.751
42.5797 14.5
42.7713 14.3152
42.963 14.0919
43.1549 13.9313
43.3468 13.6908
43.5389 13.531
43.7312 13.3338
43.9237 13.1678
44.1162 13.0112
44.3088 12.8378
44.5016 12.6052
44.6945 12.4274
44.8875 12.2724
45.0806 12.1127
45.2739 11.9689
45.4673 11.7576
45.6609 11.5834
45.8546 11.4832
46.0484 11.2959
46.2424 11.1364
46.4365 10.9871
46.631 10.8065
46.8254 10.6525
47.0199 10.4964
47.2146 10.2881
47.4095 10.1409
47.6044 10.0143
47.7996 9.82252
47.9948 9.70697
48.1902 9.58373
48.3858 9.44919
48.5815 9.35923
48.7774 9.19555
48.9734 9.03793
49.1696 8.87396
49.3661 8.75289
49.5626 8.6099
49.7592 8.49599
49.956 8.35672
50.153 8.2375
50.3501 8.13789
50.5474 7.98339
50.7448 7.87424
50.9424 7.7854
51.1402 7.63307
51.3381 7.54588
51.5362 7.3952
51.7344 7.25858
51.9328 7.13436
52.1316 7.03452
52.3304 6.88271
52.5293 6.79748
52.7284 6.67231
52.9276 6.57258
53.1271 6.51437
53.3267 6.38623
53.5265 6.23069
53.7264 6.16518
53.9266 6.01929
54.1269 5.91248
54.3274 5.82756
54.528 5.6537
54.7289 5.51858
54.9301 5.37938
55.1314 5.24079
55.3328 5.06822
55.5344 4.84235
55.7361 4.74112

File: Ni3Fe_FD1027.xy
TT I
1.27165 6.86377
1.45013 5.2397
1.62863 4.94399
1.80712 4.88872
1.98562 4.34563
2.16411 4.10935
2.34263 5.56306
2.52115 8.13291
2.69965 8.86302
2.87818 9.27297
3.05672 10.8483
3.23527 14.9344
3.4138 17.7509
3.59237 21.1143
3.77094 24.4383
3.9495 28.1012
4.12809 32.3735
4.30669 58.0639
4.4853 46.1876
4.6639 52.0597
4.84253 63.6899
5.02118 82.9324
5.19981 227.704
5.37848 225.948
5.55716 96.8997
5.73586 87.5741
5.91455 88.2158
6.09328 4423.01
6.27201 75.1612
6.45075 63.0503
6.62952 57.443
6.8083 54.1002
6.98711 52.3614
7.16591 51.5931
7.34475 56.0428
7.5236 61.0438
7.70247 52.8019
7.88135 54.5389
8.06026 58.8674
8.23919 65.2531
8.41812 77.248
8.59709 1061.18
8.77609 94.4935
8.9551 82.1134
9.13412 79.0013
9.31318 92.0783
9.49226 80.6021
9.67134 85.9336
9.85047 93.0902
10.0296 333.063
10.2088 452.706
10.388 97.1299
10.5672 499.803
10.7465 86.8788
10.9257 72.9967
11.105 67.9003
11.2844 64.4294
11.4637 61.5008
11.6431 60.2697
11.8225 59.316
12.002 67.9665
12.1814 145.434
12.3609 64.1644
12.5405 60.967
12.72 63.4439
12.8996 67.3836
13.0792 76.2418
13.2589 222.214
13.4386 127.339
13.6183 232.241
13.7981 100.208
13.9779 73.1607
14.1577 76.6295
14.3376 66.5318
14.5175 65.9784
14.6974 67.0136
14.8774 107.003
15.0574 159.919
15.2374 65.9982
15.4175 63.7752
15.5976 63.179
15.7778 92.1704
15.958 167.78
16.1382 59.6649
16.3185 55.2103
16.4988 53.1762
16.6792 52.1215
16.8596 52.4752
17.04 53.524
17.2205 64.1089
17.401 71.3817
17.5815 56.9604
17.7622 59.8091
17.9428 72.0233
18.1237 141.268
18.3044 88.0429
18.4852 78.8802
18.666 58.6327
18.8469 55.9711
19.0278 54.6601
19.2088 57.501
19.3898 75.9187
19.5709 52.7039
19.752 51.4622
19.9332 54.6026
20.1144 69.9332
20.2957 62.8771
20.477 52.699
20.6586 48.1066
20.84 47.8117
21.0215 46.971
21.203 49.2552
21.3846 47.5527
21.5662 47.2367
21.7479 51.081
21.9297 65.0165
22.1115 55.6616
22.2933 48.7076
22.4753 47.1832
22.6572 47.3005
22.8393 50.7166
23.0214 57.342
23.2037 47.4654
23.3859 48.9047
23.5682 56.8767
23.7505 47.7893
23.9329 44.0692
24.1154 42.7717
24.2979 42.2682
24.4805 41.725
24.6631 41.7415
24.8458 41.021
25.0286 41.7164
25.2114 43.9637
25.3943 44.126
25.5773 39.9696
25.7605 39.4316
25.9436 39.8019
26.1268 41.0911
26.31 39.0462
26.4933 39.7479
26.6767 41.6847
26.8601 39.9067
27.0437 38.1017
27.2272 37.5801
27.4109 37.4605
27.5946 37.6028
27.7784 37.1068
27.9623 37.644
28.1462 38.4776
28.3304 36.5764
28.5145 35.1731
28.6987 34.7993
28.8829 34.5278
29.0673 33.8146
29.2517 33.3696
29.4361 33.3805
29.6207 32.2881
29.8053 32.0832
29.99 31.8251
30.1748 31.8161
30.3597 31.581
30.5447 31.4564
30.7297 31.5638
30.915 31.0431
31.1002 30.5073
31.2855 30.2297
31.4708 30.2649
31.6563 29.6974
31.8418 29.5319
32.0275 29.3091
32.2132 28.7628
32.399 28.2086
32.5848 27.8388
32.7708 27.5244
32.9569 27.3676
33.143 27.2387
33.3293 26.7393
33.5158 26.416
33.7022 25.9953
33.8887 25.7316
34.0753 25.3748
34.262 25.1315
34.4488 24.7597
34.6357 24.322
34.8227 24.1876
35.0098 23.9203
35.1969 23.6115
35.3842 23.5272
35.5716 23.331
35.759 22.961
35.9468 22.6283
36.1345 22.3942
36.3222 22.2621
36.5101 21.9158
36.6981 21.6589
36.8861 21.2412
37.0743 21.069
37.2626 20.7923
37.451 20.5403
37.6395 20.4577
37.8281 20.0178
38.0168 19.8445
38.2056 19.5058
38.3945 19.3321
38.5837 19.0295
38.7728 18.8045
38.9621 18.5935
39.1514 18.3671
39.3409 18.1021
39.5304 17.8038
39.7201 17.7344
39.9099 17.4717
40.0999 17.245
40.2899 16.9386
40.48 16.7344
40.6703 16.5852
40.8607 16.4282
41.0512 16.1332
41.242 15.9182
41.4327 15.7237
41.6236 15.4958
41.8146 15.299
42.0057 15.0818
42.1969 14.8976
42.3882 14.7801
42.5797 14.4567
42.7713 14.3082
42.963 14.1219
43.1549 13.9193
43.3468 13.6978
43.5389 13.486
43.7312 13.3656
43.9237 13.1964
44.1162 13.0154
44.3088 12.7955
44.5016 12.6231
44.6945 12.4613
44.8875 12.3312
45.0806 12.1152
45.2739 11.9174
45.4673 11.8023
45.6609 11.6007
45.8546 11.4705
46.0484 11.3133
46.2424 11.1389
46.4365 10.9935
46.631 10.8092
46.8254 10.6304
47.0199 10.4852
47.2146 10.3397
47.4095 10.1496
47.6044 10.0319
47.7996 9.88011
47.9948 9.74121
48.1902 9.59471
48.3858 9.45501
48.5815 9.30878
48.7774 9.19826
48.9734 9.04362
49.1696 8.87561
49.3661 8.78264
49.5626 8.63664
49.7592 8.51599
49.956 8.37525
50.153 8.26868
50.3501 8.10792
50.5474 8.00439
50.7448 7.91593
50.9424 7.77855
51.1402 7.62809
51.3381 7.53178
51.5362 7.44048
51.7344 7.27206
51.9328 7.12235
52.1316 7.01348
52.3304 6.92712
52.5293 6.77404
52.7284 6.72978
52.9276 6.58288
53.1271 6.4999
53.3267 6.37261
53.5265 6.23215
53.7264 6.13182
53.9266 6.03503
54.1269 5.93
54.3274 5.82106
54.528 5.68729
54.7289 5.52373
54.9301 5.34434
55.1314 5.21091
55.3328 5.07279
55.5344 4.8631
55.7361 4.69781

File: Ni3Fe_FD1028.xy
TT I
1.27165 6.84769
1.45013 5.43711
1.62863 4.93772
1.80712 4.18036
1.98562 3.78594
2.16411 3.88505
2.34263 5.45839
2.52115 7.72997
2.69965 8.72458
2.87818 8.84305
3.05672 11.6124
3.23527 14.6703
3.4138 18.3631
3.59237 21.2493
3.77094 24.6206
3.9495 28.144
4.12809 32.3745
4.30669 57.3608
4.4853 46.0405
4.6639 52.49
4.84253 63.6978
5.02118 82.2802
5.19981 227.625
5.37848 224.435
5.55716 97.0426
5.73586 87.1034
5.91455 88.1461
6.09328 4453.38
6.27201 75.3351
6.45075 63.0611
6.62952 57.7256
6.8083 54.1515
6.98711 52.2962
7.16591 51.2821
7.34475 56.1493
7.5236 60.9632
7.70247 52.492
7.88135 54.6121
8.06026 58.4595
8.23919 65.3809
8.41812 77.281
8.59709 1061.66
8.77609 94.5275
8.9551 82.153
9.13412 78.3814
9.31318 92.1423
9.49226 80.2847
9.67134 85.6444
9.85047 93.6841
10.0296 335.262
10.2088 452.472
10.388 96.866
10.5672 500.393
10.7465 86.8647
10.9257 73.033
11.105 67.8585
11.2844 64.3129
11.4637 61.3668
11.6431 60.0258
11.8225 59.2548
12.002 67.7558
12.1814 144.679
12.3609 63.9004
12.5405 60.683
12.72 63.585
12.8996 67.3197
13.0792 76.0741
13.2589 222.582
13.4386 127.341
13.6183 232.341
13.7981 100.278
13.9779 73.052
14.1577 76.6204
14.3376 66.7958
14.5175 65.9371
14.6974 66.9754
14.8774 107.081
15.0574 160.467
15.2374 66.218
15.4175 63.768
15.5976 62.7978
15.7778 92.3647
15.958 167.53
16.1382 59.7602
16.3185 55.2085
16.4988 53.0752
16.6792 52.1969
16.8596 52.3692
17.04 53.4708
17.2205 63.9956
17.401 71.3167
17.5815 56.8665
17.7622 59.6264
17.9428 72.1466
18.1237 141.319
18.3044 87.9754
18.4852 79.0326
18.666 58.5897
18.8469 55.9951
19.0278 54.6188
19.2088 57.4752
19.3898 75.7259
19.5709 52.5706
19.752 51.4495
19.9332 54.5193
20.1144 69.9238
20.2957 62.974
20.477 52.5817
20.6586 47.9357
20.84 47.6673
21.0215 47.09
21.203 49.1639
21.3846 47.6239
21.5662 47.2284
21.7479 51.0935
21.9297 64.8652
22.1115 55.6579
22.2933 48.8009
22.4753 47.3159
22.6572 47.2491
22.8393 50.7944
23.0214 57.2681
23.2037 47.4278
23.3859 48.9222
23.5682 56.7108
23.7505 47.9296
23.9329 44.0743
24.1154 42.9758
24.2979 42.1417
24.4805 41.7009
24.6631 41.8202
24.8458 41.0658
25.0286 41.6897
25.2114 43.9354
25.3943 44.0134
25.5773 39.9974
25.7605 39.4124
25.9436 39.6902
26.1268 41.1183
26.31 39.2699
26.4933 39.6622
26.6767 41.7349
26.8601 39.9397
27.0437 38.0849
27.2272 37.7222
27.4109 37.4843
27.5946 37.5955
27.7784 37.1434
27.9623 37.6611
28.1462 38.4039
28.3304 36.5681
28.5145 35.1744
28.6987 34.9286
28.8829 34.6873
29.0673 33.8746
29.2517 33.5433
29.4361 33.4324
29.6207 32.2755
29.8053 31.9847
29.99 31.6786
30.1748 31.6495
30.3597 31.5127
30.5447 31.529
30.7297 31.5849
30.915 31.0014
31.1002 30.4697
31.2855 30.1542
31.4708 30.2822
31.6563 29.7469
31.8418 29.5089
32.0275 29.4214
32.2132 28.7216
32.399 28.3011
32.5848 27.8768
32.7708 27.449
32.9569 27.4384
33.143 27.2165
33.3293 26.8554
33.5158 26.5205
33.7022 25.9357
33.8887 25.7519
34.0753 25.3984
34.262 25.0848
34.4488 24.7148
34.6357 24.3712
34.8227 24.0992
35.0098 23.9241
35.1969 23.6376
35.3842 23.4441
35.5716 23.3169
35.759 22.9909
35.9468 22.5804
36.1345 22.4123
36.3222 22.1818
36.5101 22.02
36.6981 21.728
36.8861 21.3755
37.0743 21.0706
37.2626 20.7845
37.451 20.6075
37.6395 20.3756
37.8281 20.075
38.0168 19.7561
38.2056 19.4957
38.3945 19.2267
38.5837 19.031
38.7728 18.7897
38.9621 18.5364
39.1514 18.2759
39.3409 18.0772
39.5304 17.8349
39.7201 17.6341
39.9099 17.442
40.0999 17.2303
40.2899 16.9924
40.48 16.7891
40.6703 16.6238
40.8607 16.4328
41.0512 16.1554
41.242 15.8794
41.4327 15.77
41.6236 15.5063
41.8146 15.3078
42.0057 15.1154
42.1969 14.9279
42.3882 14.729
42.5797 14.5264
42.7713 14.3053
42.963 14.1007
43.1549 13.8969
43.3468 13.7249
43.5389 13.541
43.7312 13.3432
43.9237 13.1965
44.1162 12.9939
44.3088 12.8168
44.5016 12.6316
44.6945 12.4354
44.8875 12.268
45.0806 12.1021
45.2739 11.9211
45.4673 11.8281
45.6609 11.5661
45.8546 11.4604
46.0484 11.2699
46.2424 11.1314
46.4365 10.9481
46.631 10.7958
46.8254 10.6397
47.0199 10.4505
47.2146 10.3368
47.4095 10.1964
47.6044 10.0142
47.7996 9.86589
47.9948 9.73105
48.1902 9.55459
48.3858 9.46301
48.5815 9.30234
48.7774 9.199
48.9734 9.08639
49.1696 8.937
49.3661 8.76602
49.5626 8.63445
49.7592 8.50297
49.956 8.36817
50.153 8.27772
50.3501 8.13666
50.5474 7.99207
50.7448 7.89285
50.9424 7.74619
51.1402 7.64357
51.3381 7.47621
51.5362 7.44011
51.7344 7.26853
51.9328 7.16133
52.1316 7.00124
52.3304 6.93691
52.5293 6.79312
52.7284 6.70504
52.9276 6.60515
53.1271 6.48679
53.3267 6.3712
53.5265 6.23973
53.7264 6.10861
53.9266 6.04214
54.1269 5.91061
54.3274 5.82612
54.528 5.65838
54.7289 5.52632
54.9301 5.36888
55.1314 5.26384
55.3328 5.07359
55.5344 4.8832
55.7361 4.71568

File: Ni3Fe_FD1029.xy
TT I
1.27165 6.87877
1.45013 5.96017
1.62863 5.15679
1.80712 4.92594
1.98562 4.45561
2.16411 4.24027
2.34263 5.6011
2.52115 7.08882
2.69965 8.60546
2.87818 8.32194
3.05672 11.2182
3.23527 14.9791
3.4138 18.2072
3.59237 21.316
3.77094 24.7776
3.9495 27.7746
4.12809 32.587
4.30669 57.4261
4.4853 46.2014
4.6639 52.5906
4.84253 63.9351
5.02118 82.4833
5.19981 228.786
5.37848 223.603
5.55716 96.8208
5.73586 87.387
5.91455 88.3868
6.09328 4481.14
6.27201 75.5036
6.45075 63.3716
6.62952 57.8345
6.8083 54.2985
6.98711 52.2407
7.16591 51.3791
7.34475 55.9466
7.5236 60.8044
7.70247 52.9125
7.88135 54.5395
8.06026 58.5505
8.23919 65.2907
8.41812 76.8161
8.59709 1063.79
8.77609 94.7696
8.9551 81.9464
9.13412 78.8813
9.31318 91.7633
9.49226 80.6388
9.67134 86.1403
9.85047 93.5122
10.0296 335.568
10.2088 449.604
10.388 97.1972
10.5672 502.029
10.7465 87.0163
10.9257 73.1175
11.105 67.7925
11.2844 64.3283
11.4637 61.5591
11.6431 60.3671
11.8225 59.1099
12.002 67.8136
12.1814 145.627
12.3609 64.0886
12.5405 61.0896
12.72 63.6853
12.8996 67.3448
13.0792 76.6261
13.2589 223.242
13.4386 126.964
13.6183 233.326
13.7981 100.27
13.9779 73.028
14.1577 76.4658
14.3376 67.1742
14.5175 65.9791
14.6974 67.2803
14.8774 107.474
15.0574 160.309
15.2374 66.2478
15.4175 63.9465
15.5976 63.0392
15.7778 92.4702
15.958 167.461
16.1382 59.8641
16.3185 55.29
16.4988 53.3809
16.6792 52.3326
16.8596 52.5702
17.04 53.5734
17.2205 64.2001
17.401 71.5273
17.5815 56.673
17.7622 59.7511
17.9428 72.1412
18.1237 141.506
18.3044 87.975
18.4852 78.9311
18.666 58.6145
18.8469 56.2224
19.0278 54.7708
19.2088 57.6723
19.3898 75.716
19.5709 52.5533
19.752 51.7164
19.9332 54.7815
20.1144 69.8612
20.2957 63.0084
20.477 52.693
20.6586 48.1834
20.84 47.7538
21.0215 47.0306
21.203 49.3474
21.3846 47.6838
21.5662 47.3524
21.7479 51.2651
21.9297 65.0398
22.1115 55.8028
22.2933 48.923
22.4753 47.1628
22.6572 47.3828
22.8393 50.7522
23.0214 57.0657
23.2037 47.4817
23.3859 49.093
23.5682 56.819
23.7505 47.9621
23.9329 44.0879
24.1154 42.9205
24.2979 42.1606
24.4805 41.9084
24.6631 41.6918
24.8458 41.0062
25.0286 41.7362
25.2114 43.8516
25.3943 44.1161
25.5773 40.0053
25.7605 39.4407
25.9436 39.8684
26.1268 41.1458
26.31 39.061
26.4933 39.7351
26.6767 41.7354
26.8601 39.9102
27.0437 38.1355
27.2272 37.6172
27.4109 37.571
27.5946 37.7154
27.7784 37.1145
27.9623 37.6809
28.1462 38.4981
28.3304 36.5688
28.5145 35.046
28.6987 34.9241
28.8829 34.6892
29.0673 33.8676
29.2517 33.4769
29.4361 33.4132
29.6207 32.4036
29.8053 32.0239
29.99 31.7796
30.1748 31.74
30.3597 31.6237
30.5447 31.5465
30.7297 31.674
30.915 31.0289
31.1002 30.5062
31.2855 30.1187
31.4708 30.3191
31.6563 29.7859
31.8418 29.4921
32.0275 29.381
32.2132 28.8429
32.399 28.2518
32.5848 27.9361
32.7708 27.514
32.9569 27.412
33.143 27.2909
33.3293 26.8929
33.5158 26.479
33.7022 25.9586
33.8887 25.7288
34.0753 25.4241
34.262 25.0911
34.4488 24.7658
34.6357 24.3792
34.8227 24.1018
35.0098 23.8467
35.1969 23.6902
35.3842 23.492
35.5716 23.3296
35.759 23.0219
35.9468 22.6361
36.1345 22.4101
36.3222 22.264
36.5101 22.0025
36.6981 21.7038
36.8861 21.3335
37.0743 21.0656
37.2626 20.7767
37.451 20.5011
37.6395 20.4334
37.8281 20.0539
38.0168 19.7146
38.2056 19.5705
38.3945 19.2567
38.5837 19.1144
38.7728 18.8216
38.9621 18.535
39.1514 18.2487
39.3409 18.0497
39.5304 17.8713
39.7201 17.6881
39.9099 17.5137
40.0999 17.2294
40.2899 17.0263
40.48 16.7541
40.6703 16.5455
40.8607 16.3645
41.0512 16.1636
41.242 15.9094
41.4327 15.7446
41.6236 15.5542
41.8146 15.3367
42.0057 15.1422
42.1969 14.867
42.3882 14.7857
42.5797 14.4747
42.7713 14.3532
42.963 14.1346
43.1549 13.9207
43.3468 13.7515
43.5389 13.5546
43.7312 13.3509
43.9237 13.1799
44.1162 12.9982
44.3088 12.84
44.5016 12.634
44.6945 12.4599
44.8875 12.2537
45.0806 12.1035
45.2739 11.9277
45.4673 11.8241
45.6609 11.6201
45.8546 11.4277
46.0484 11.2897
46.2424 11.1214
46.4365 10.9743
46.631 10.8058
46.8254 10.6772
47.0199 10.461
47.2146 10.3706
47.4095 10.197
47.6044 10.0062
47.7996 9.86346
47.9948 9.7481
48.1902 9.60416
48.3858 9.46472
48.5815 9.2853
48.7774 9.20471
48.9734 9.05364
49.1696 8.91215
49.3661 8.78283
49.5626 8.6114
49.7592 8.49514
49.956 8.37013
50.153 8.27669
50.3501 8.13479
50.5474 7.97515
50.7448 7.90307
50.9424 7.7755
51.1402 7.6492
51.3381 7.52196
51.5362 7.36145
51.7344 7.26878
51.9328 7.15551
52.1316 7.03341
52.3304 6.91844
52.5293 6.81203
52.7284 6.71902
52.9276 6.60174
53.1271 6.49067
53.3267 6.38774
53.5265 6.2485
53.7264 6.15964
53.9266 6.01974
54.1269 5.92663
54.3274 5.8156
54.528 5.69933
54.7289 5.57456
54.9301 5.35891
55.1314 5.26005
55.3328 5.08018
55.5344 4.87625
55.7361 4.7573

File: Ni3Fe_FD1030.xy
TT I
1.27165 7.09238
1.45013 5.71609
1.62863 5.53188
1.80712 4.52578
1.98562 4.14692
2.16411 4.54034
2.34263 4.97137
2.52115 7.7018
2.69965 8.25712
2.87818 8.81033
3.05672 10.5189
3.23527 14.802
3.4138 18.1753
3.59237 21.6065
3.77094 24.2527
3.9495 28.4122
4.12809 32.6442
4.30669 56.9142
4.4853 46.5481
4.6639 52.3625
4.84253 63.5584
5.02118 82.7934
5.19981 228.52
5.37848 222.941
5.55716 96.9803
5.73586 87.5785
5.91455 88.3384
6.09328 4485.26
6.27201 75.9678
6.45075 63.0675
6.62952 57.8344
6.8083 54.4309
6.98711 52.3487
7.16591 51.4439
7.34475 56.0761
7.5236 60.4886
7.70247 52.8245
7.88135 54.5856
8.06026 58.6791
8.23919 65.2644
8.41812 77.8227
8.59709 1064.22
8.77609 94.689
8.9551 82.0739
9.13412 78.8365
9.31318 91.6573
9.49226 80.4251
9.67134 85.8162
9.85047 93.4183
10.0296 336.537
10.2088 447.609
10.388 97.2068
10.5672 502.381
10.7465 86.7893
10.9257 73.1323
11.105 67.7089
11.2844 64.4591
11.4637 61.6008
11.6431 60.4764
11.8225 59.373
12.002 67.6597
12.1814 145.721
12.3609 64.1146
12.5405 61.2322
12.72 63.4507
12.8996 67.2871
13.0792 76.0866
13.2589 223.461
13.4386 127.62
13.6183 233.216
13.7981 100.793
13.9779 73.0902
14.1577 76.6406
14.3376 66.9297
14.5175 65.914
14.6974 67.0891
14.8774 107.564
15.0574 160.648
15.2374 66.1733
15.4175 63.6606
15.5976 62.9959
15.7778 92.3536
15.958 166.999
16.1382 60.0338
16.3185 55.273
16.4988 53.0633
16.6792 52.2497
16.8596 52.7888
17.04 53.4134
17.2205 64.2659
17.401 71.7816
17.5815 56.8847
17.7622 59.9292
17.9428 72.3707
18.1237 141.22
18.3044 87.9801
18.4852 78.9635
18.666 58.6173
18.8469 56.1288
19.0278 54.7343
19.2088 57.4613
19.3898 75.9192
19.5709 52.6422
19.752 51.4585
19.9332 54.7689
20.1144 70.032
20.2957 62.8538
20.477 52.6992
20.6586 48.2522
20.84 47.765
21.0215 47.057
21.203 49.363
21.3846 47.5617
21.5662 47.2728
21.7479 51.4286
21.9297 65.2683
22.1115 55.6157
22.2933 48.941
22.4753 47.3358
22.6572 47.4105
22.8393 50.808
23.0214 57.3179
23.2037 47.5873
23.3859 49.0002
23.5682 56.9904
23.7505 47.9299
23.9329 43.9625
24.1154 42.9753
24.2979 42.1507
24.4805 41.7355
24.6631 41.7443
24.8458 40.9173
25.0286 41.6183
25.2114 43.9925
25.3943 44.1774
25.5773 39.8968
25.7605 39.436
25.9436 39.8153
26.1268 41.1051
26.31 39.2094
26.4933 39.6871
26.6767 41.7536
26.8601 39.9003
27.0437 38.1366
27.2272 37.6909
27.4109 37.673
27.5946 37.7962
27.7784 37.1305
27.9623 37.6651
28.1462 38.3932
28.3304 36.6899
28.5145 35.1631
28.6987 34.8537
28.8829 34.6689
29.0673 33.9595
29.2517 33.5481
29.4361 33.5124
29.6207 32.3021
29.8053 32.0858
29.99 31.8388
30.1748 31.7552
30.3597 31.5552
30.5447 31.4911
30.7297 31.6605
30.915 31.0399
31.1002 30.5632
31.2855 30.2265
31.4708 30.3199
31.6563 29.7931
31.8418 29.6072
32.0275 29.4506
32.2132 28.9026
32.399 28.4266
32.5848 27.8629
32.7708 27.551
32.9569 27.4283
33.143 27.2428
33.3293 26.9308
33.5158 26.4902
33.7022 26.0114
33.8887 25.7959
34.0753 25.4607
34.262 25.1356
34.4488 24.7926
34.6357 24.4811
34.8227 24.1611
35.0098 23.9532
35.1969 23.7134
35.3842 23.5204
35.5716 23.3255
35.759 22.991
35.9468 22.6462
36.1345 22.4622
36.3222 22.2195
36.5101 21.9972
36.6981 21.6445
36.8861 21.3134
37.0743 21.1177
37.2626 20.7756
37.451 20.563
37.6395 20.4479
37.8281 20.128
38.0168 19.773
38.2056 19.5304
38.3945 19.3361
38.5837 19.0606
38.7728 18.8381
38.9621 18.5558
39.1514 18.3304
39.3409 18.0688
39.5304 17.9118
39.7201 17.6782
39.9099 17.4282
40.0999 17.2945
40.2899 17.0288
40.48 16.7498
40.6703 16.5413
40.8607 16.4456
41.0512 16.1486
41.242 15.9432
41.4327 15.7035
41.6236 15.5362
41.8146 15.3646
42.0057 15.1865
42.1969 14.8884
42.3882 14.7551
42.5797 14.5226
42.7713 14.3634
42.963 14.16
43.1549 13.8965
43.3468 13.753
43.5389 13.5869
43.7312 13.343
43.9237 13.2143
44.1162 13.0245
44.3088 12.8231
44.5016 12.6339
44.6945 12.4987
44.8875 12.2697
45.0806 12.1027
45.2739 11.9397
45.4673 11.7718
45.6609 11.6068
45.8546 11.4442
46.0484 11.3004
46.2424 11.1376
46.4365 10.9961
46.631 10.7836
46.8254 10.6488
47.0199 10.4877
47.2146 10.3417
47.4095 10.1953
47.6044 10.036
47.7996 9.87072
47.9948 9.77631
48.1902 9.59223
48.3858 9.47907
48.5815 9.33822
48.7774 9.20439
48.9734 9.04835
49.1696 8.9132
49.3661 8.74924
49.5626 8.63518
49.7592 8.50192
49.956 8.39634
50.153 8.2473
50.3501 8.14798
50.5474 8.04107
50.7448 7.93209
50.9424 7.78861
51.1402 7.66102
51.3381 7.50614
51.5362 7.38366
51.7344 7.29588
51.9328 7.12856
52.1316 7.04426
52.3304 6.93241
52.5293 6.80622
52.7284 6.72812
52.9276 6.56606
53.1271 6.47975
53.3267 6.37669
53.5265 6.26799
53.7264 6.15937
53.9266 6.02796
54.1269 5.92146
54.3274 5.8357
54.528 5.70128
54.7289 5.56717
54.9301 5.34622
55.1314 5.27959
55.3328 5.06033
55.5344 4.84594
55.7361 4.77112