Folder: NiFe_MOF_catalyst_paper/XRD (part 67)

File: Ni3Fe_FD0350.xy
TT I
1.27165 7.38167
1.45013 6.66639
1.62863 5.07229
1.80712 4.67008
1.98562 4.85026
2.16411 4.76843
2.34263 5.1179
2.52115 5.95518
2.69965 6.97208
2.87818 8.5038
3.05672 10.9307
3.23527 14.7647
3.4138 19.1221
3.59237 23.6112
3.77094 26.5139
3.9495 30.1066
4.12809 35.2016
4.30669 131.131
4.4853 57.5874
4.6639 56.9683
4.84253 69.5234
5.02118 91.727
5.19981 603.851
5.37848 222.58
5.55716 106.632
5.73586 96.4556
5.91455 101.671
6.09328 4008.79
6.27201 86.0909
6.45075 69.3982
6.62952 63.6891
6.8083 59.7244
6.98711 56.7701
7.16591 56.5934
7.34475 74.8795
7.5236 55.3358
7.70247 57.3265
7.88135 59.3167
8.06026 63.918
8.23919 71.5449
8.41812 88.0183
8.59709 1184.34
8.77609 104.438
8.9551 91.1503
9.13412 84.754
9.31318 85.8166
9.49226 87.1299
9.67134 97.1118
9.85047 103.727
10.0296 440.281
10.2088 467.303
10.388 109.594
10.5672 485.819
10.7465 89.3574
10.9257 79.5427
11.105 73.6466
11.2844 70.746
11.4637 66.5125
11.6431 65.0892
11.8225 64.1483
12.002 66.3589
12.1814 150.107
12.3609 70.0408
12.5405 66.4513
12.72 70.356
12.8996 73.1474
13.0792 83.0396
13.2589 246.472
13.4386 132.828
13.6183 244.277
13.7981 102.051
13.9779 77.8718
14.1577 74.0611
14.3376 72.6038
14.5175 70.7411
14.6974 73.1655
14.8774 119.672
15.0574 153.785
15.2374 71.9694
15.4175 68.3389
15.5976 68.0416
15.7778 102.97
15.958 162.925
16.1382 63.2401
16.3185 59.8808
16.4988 56.9388
16.6792 55.878
16.8596 56.6611
17.04 57.7088
17.2205 69.123
17.401 73.5057
17.5815 60.9152
17.7622 63.2481
17.9428 79.2918
18.1237 139.572
18.3044 91.7132
18.4852 79.6704
18.666 62.1357
18.8469 59.759
19.0278 58.4143
19.2088 61.8361
19.3898 76.8921
19.5709 55.6932
19.752 54.8655
19.9332 58.1444
20.1144 71.3118
20.2957 64.5973
20.477 55.1876
20.6586 51.0737
20.84 50.2431
21.0215 50.0616
21.203 51.7712
21.3846 50.538
21.5662 50.534
21.7479 54.6462
21.9297 66.0794
22.1115 57.1819
22.2933 51.1956
22.4753 50.2507
22.6572 50.5201
22.8393 53.7487
23.0214 58.9658
23.2037 50.2475
23.3859 51.5628
23.5682 57.6649
23.7505 49.7111
23.9329 46.5778
24.1154 45.3588
24.2979 44.7077
24.4805 44.141
24.6631 44.0617
24.8458 43.5357
25.0286 44.2461
25.2114 45.9312
25.3943 45.9184
25.5773 42.008
25.7605 41.5672
25.9436 42.0822
26.1268 42.8572
26.31 41.3783
26.4933 42.0265
26.6767 43.3468
26.8601 41.506
27.0437 39.9663
27.2272 39.5782
27.4109 39.5438
27.5946 39.5195
27.7784 39.0169
27.9623 39.4437
28.1462 39.911
28.3304 38.2167
28.5145 36.9154
28.6987 36.5752
28.8829 36.4444
29.0673 35.677
29.2517 35.3513
29.4361 35.1272
29.6207 34.0534
29.8053 33.8127
29.99 33.5085
30.1748 33.3131
30.3597 33.2341
30.5447 33.0096
30.7297 33.1286
30.915 32.5369
31.1002 31.9916
31.2855 31.6756
31.4708 31.5676
31.6563 31.2013
31.8418 30.8545
32.0275 30.7156
32.2132 30.1507
32.399 29.738
32.5848 29.3374
32.7708 28.9614
32.9569 28.7932
33.143 28.5244
33.3293 28.1439
33.5158 27.7589
33.7022 27.3373
33.8887 27.0636
34.0753 26.6365
34.262 26.3207
34.4488 25.9576
34.6357 25.6877
34.8227 25.3464
35.0098 25.1231
35.1969 24.8173
35.3842 24.6285
35.5716 24.3679
35.759 24.1307
35.9468 23.7055
36.1345 23.5024
36.3222 23.2475
36.5101 23.0148
36.6981 22.7694
36.8861 22.4456
37.0743 22.0039
37.2626 21.8607
37.451 21.6065
37.6395 21.3662
37.8281 21.0191
38.0168 20.7605
38.2056 20.4131
38.3945 20.1497
38.5837 19.9443
38.7728 19.789
38.9621 19.4604
39.1514 19.2169
39.3409 18.9671
39.5304 18.7058
39.7201 18.5234
39.9099 18.3552
40.0999 18.0905
40.2899 17.7808
40.48 17.5665
40.6703 17.3837
40.8607 17.1914
41.0512 16.9466
41.242 16.6599
41.4327 16.5486
41.6236 16.2521
41.8146 16.0656
42.0057 15.8081
42.1969 15.6214
42.3882 15.4181
42.5797 15.2389
42.7713 15.007
42.963 14.7943
43.1549 14.6149
43.3468 14.4021
43.5389 14.2372
43.7312 13.9634
43.9237 13.8431
44.1162 13.618
44.3088 13.4501
44.5016 13.2164
44.6945 13.0583
44.8875 12.8985
45.0806 12.7242
45.2739 12.4704
45.4673 12.3501
45.6609 12.1752
45.8546 12.0079
46.0484 11.8206
46.2424 11.6034
46.4365 11.4937
46.631 11.3239
46.8254 11.1437
47.0199 10.9753
47.2146 10.8387
47.4095 10.6514
47.6044 10.4769
47.7996 10.3725
47.9948 10.2211
48.1902 10.0229
48.3858 9.88309
48.5815 9.77998
48.7774 9.65811
48.9734 9.50855
49.1696 9.33645
49.3661 9.19071
49.5626 9.05906
49.7592 8.94203
49.956 8.78129
50.153 8.64653
50.3501 8.52743
50.5474 8.39795
50.7448 8.28672
50.9424 8.16733
51.1402 7.98916
51.3381 7.86142
51.5362 7.77825
51.7344 7.63309
51.9328 7.45884
52.1316 7.3608
52.3304 7.25086
52.5293 7.1214
52.7284 7.03097
52.9276 6.89631
53.1271 6.77814
53.3267 6.62588
53.5265 6.5344
53.7264 6.40534
53.9266 6.31384
54.1269 6.237
54.3274 6.06578
54.528 5.94625
54.7289 5.7653
54.9301 5.62238
55.1314 5.51813
55.3328 5.26097
55.5344 5.13725
55.7361 4.96681

File: Ni3Fe_FD0351.xy
TT I
1.27165 7.2677
1.45013 6.0115
1.62863 4.98079
1.80712 4.86008
1.98562 4.76815
2.16411 4.94148
2.34263 5.52615
2.52115 5.1612
2.69965 7.35796
2.87818 8.63416
3.05672 11.2186
3.23527 14.8826
3.4138 18.8041
3.59237 23.4648
3.77094 25.8522
3.9495 30.2729
4.12809 35.0394
4.30669 128.461
4.4853 56.6674
4.6639 56.8651
4.84253 69.5846
5.02118 92.2107
5.19981 608.606
5.37848 223.919
5.55716 106.801
5.73586 96.9101
5.91455 101.85
6.09328 4016.92
6.27201 86.1289
6.45075 69.2031
6.62952 64.0302
6.8083 60.1574
6.98711 56.7546
7.16591 56.5828
7.34475 74.3006
7.5236 55.6081
7.70247 57.5703
7.88135 59.275
8.06026 64.2637
8.23919 71.6897
8.41812 88.6869
8.59709 1191.11
8.77609 104.216
8.9551 91.4653
9.13412 84.5055
9.31318 85.6329
9.49226 87.5419
9.67134 97.6766
9.85047 104.156
10.0296 443.229
10.2088 460.579
10.388 110.389
10.5672 485.815
10.7465 89.6951
10.9257 79.6942
11.105 73.4573
11.2844 70.753
11.4637 66.559
11.6431 65.0253
11.8225 64.0201
12.002 66.2449
12.1814 150.757
12.3609 70.1
12.5405 66.3733
12.72 70.5466
12.8996 73.368
13.0792 83.1966
13.2589 247.612
13.4386 132.207
13.6183 245.399
13.7981 102.103
13.9779 78.2206
14.1577 74.0962
14.3376 72.8889
14.5175 70.747
14.6974 73.0042
14.8774 120.277
15.0574 153.593
15.2374 71.8749
15.4175 68.2355
15.5976 68.1526
15.7778 103.387
15.958 161.648
16.1382 63.6584
16.3185 59.7248
16.4988 57.2467
16.6792 56.0121
16.8596 56.6175
17.04 57.805
17.2205 69.1848
17.401 73.3378
17.5815 60.9279
17.7622 63.4326
17.9428 79.0507
18.1237 140.126
18.3044 91.8166
18.4852 79.2924
18.666 62.1202
18.8469 59.6962
19.0278 58.4811
19.2088 61.9988
19.3898 76.7872
19.5709 55.787
19.752 54.9915
19.9332 58.5532
20.1144 71.3433
20.2957 64.2811
20.477 55.1013
20.6586 51.0155
20.84 50.3627
21.0215 50.251
21.203 51.9443
21.3846 50.357
21.5662 50.7326
21.7479 54.7124
21.9297 66.1521
22.1115 57.0878
22.2933 51.1139
22.4753 50.2058
22.6572 50.4839
22.8393 53.7262
23.0214 58.7751
23.2037 50.2679
23.3859 51.4767
23.5682 57.5505
23.7505 49.5814
23.9329 46.5914
24.1154 45.3332
24.2979 44.7699
24.4805 44.0948
24.6631 43.9828
24.8458 43.4661
25.0286 44.2356
25.2114 45.9452
25.3943 45.7677
25.5773 42.1606
25.7605 41.6704
25.9436 42.0877
26.1268 42.827
26.31 41.2406
26.4933 41.9808
26.6767 43.3784
26.8601 41.5453
27.0437 40.0886
27.2272 39.6778
27.4109 39.4648
27.5946 39.554
27.7784 38.9792
27.9623 39.5293
28.1462 39.8099
28.3304 38.1952
28.5145 36.9833
28.6987 36.5268
28.8829 36.3858
29.0673 35.6859
29.2517 35.3347
29.4361 35.0595
29.6207 34.1035
29.8053 33.8756
29.99 33.4359
30.1748 33.2874
30.3597 33.1893
30.5447 33.0216
30.7297 33.049
30.915 32.4492
31.1002 31.9647
31.2855 31.6191
31.4708 31.7262
31.6563 31.1583
31.8418 30.9738
32.0275 30.7032
32.2132 30.2394
32.399 29.706
32.5848 29.2662
32.7708 28.9156
32.9569 28.7294
33.143 28.4928
33.3293 28.1218
33.5158 27.7632
33.7022 27.3341
33.8887 26.987
34.0753 26.7036
34.262 26.3343
34.4488 25.9566
34.6357 25.5816
34.8227 25.4036
35.0098 25.1448
35.1969 24.8409
35.3842 24.6799
35.5716 24.3591
35.759 24.1102
35.9468 23.7362
36.1345 23.5652
36.3222 23.2174
36.5101 22.9852
36.6981 22.7041
36.8861 22.4358
37.0743 22.0949
37.2626 21.8174
37.451 21.5729
37.6395 21.3522
37.8281 21.0188
38.0168 20.7041
38.2056 20.4943
38.3945 20.2709
38.5837 19.9181
38.7728 19.7246
38.9621 19.4534
39.1514 19.1726
39.3409 18.9675
39.5304 18.6734
39.7201 18.5628
39.9099 18.2933
40.0999 18.0811
40.2899 17.8286
40.48 17.5624
40.6703 17.3357
40.8607 17.1994
41.0512 16.9537
41.242 16.6909
41.4327 16.4884
41.6236 16.2606
41.8146 16.0586
42.0057 15.8307
42.1969 15.6188
42.3882 15.4583
42.5797 15.202
42.7713 15.0405
42.963 14.7638
43.1549 14.5417
43.3468 14.3973
43.5389 14.2143
43.7312 13.946
43.9237 13.8151
44.1162 13.6098
44.3088 13.4696
44.5016 13.238
44.6945 13.0809
44.8875 12.8806
45.0806 12.6955
45.2739 12.5051
45.4673 12.3486
45.6609 12.1889
45.8546 11.9717
46.0484 11.8349
46.2424 11.6539
46.4365 11.4882
46.631 11.2867
46.8254 11.1299
47.0199 10.9679
47.2146 10.8388
47.4095 10.6464
47.6044 10.4802
47.7996 10.2853
47.9948 10.1785
48.1902 10.0826
48.3858 9.89384
48.5815 9.74318
48.7774 9.62841
48.9734 9.50818
49.1696 9.30461
49.3661 9.18817
49.5626 9.04955
49.7592 8.94578
49.956 8.80797
50.153 8.654
50.3501 8.50276
50.5474 8.40117
50.7448 8.27022
50.9424 8.1504
51.1402 8.01003
51.3381 7.84081
51.5362 7.74982
51.7344 7.60242
51.9328 7.50385
52.1316 7.32721
52.3304 7.25374
52.5293 7.12991
52.7284 7.01869
52.9276 6.88115
53.1271 6.77383
53.3267 6.66928
53.5265 6.517
53.7264 6.40988
53.9266 6.31963
54.1269 6.21734
54.3274 6.07803
54.528 5.92458
54.7289 5.76782
54.9301 5.58565
55.1314 5.50127
55.3328 5.22543
55.5344 5.07412
55.7361 4.91176

File: Ni3Fe_FD0353.xy
TT I
1.27165 7.47911
1.45013 5.61491
1.62863 6.0895
1.80712 5.14216
1.98562 5.06866
2.16411 4.30018
2.34263 5.74874
2.52115 5.97189
2.69965 6.64687
2.87818 8.67989
3.05672 10.3939
3.23527 14.8212
3.4138 18.4887
3.59237 23.0806
3.77094 26.2389
3.9495 30.0829
4.12809 34.9108
4.30669 127.097
4.4853 56.9806
4.6639 56.7825
4.84253 69.6664
5.02118 91.851
5.19981 606.531
5.37848 221.495
5.55716 106.703
5.73586 96.7369
5.91455 101.511
6.09328 3989.53
6.27201 85.3762
6.45075 69.48
6.62952 63.8036
6.8083 59.3444
6.98711 56.662
7.16591 56.4616
7.34475 74.1958
7.5236 55.6899
7.70247 57.0522
7.88135 59.3075
8.06026 63.8946
8.23919 71.5276
8.41812 87.798
8.59709 1184.41
8.77609 104.133
8.9551 91.497
9.13412 84.3184
9.31318 86.0257
9.49226 87.2532
9.67134 97.115
9.85047 103.568
10.0296 442.288
10.2088 467.823
10.388 110.26
10.5672 487.732
10.7465 89.3791
10.9257 79.4392
11.105 73.4978
11.2844 70.8704
11.4637 66.5043
11.6431 65.2879
11.8225 64.0905
12.002 66.3218
12.1814 150.622
12.3609 70.1212
12.5405 66.0894
12.72 70.3952
12.8996 72.8255
13.0792 82.9248
13.2589 246.617
13.4386 132.889
13.6183 244.594
13.7981 102.352
13.9779 78.0283
14.1577 74.0433
14.3376 72.4827
14.5175 71.0296
14.6974 72.8252
14.8774 119.989
15.0574 153.805
15.2374 72.0503
15.4175 68.2188
15.5976 68.0737
15.7778 102.804
15.958 161.819
16.1382 63.5475
16.3185 59.5985
16.4988 57.1703
16.6792 55.8438
16.8596 56.4162
17.04 57.9392
17.2205 69.2002
17.401 73.4881
17.5815 60.9425
17.7622 63.1134
17.9428 78.9329
18.1237 139.829
18.3044 91.7255
18.4852 79.5433
18.666 62.2544
18.8469 59.743
19.0278 58.4282
19.2088 61.7833
19.3898 76.9345
19.5709 55.7778
19.752 54.7666
19.9332 58.6044
20.1144 71.5559
20.2957 64.5193
20.477 54.8161
20.6586 51.0268
20.84 50.1859
21.0215 50.0948
21.203 51.9859
21.3846 50.3657
21.5662 50.5403
21.7479 54.6977
21.9297 66.1988
22.1115 57.0927
22.2933 51.4694
22.4753 50.1725
22.6572 50.6592
22.8393 53.5955
23.0214 58.9505
23.2037 50.2174
23.3859 51.6328
23.5682 57.6001
23.7505 49.7486
23.9329 46.533
24.1154 45.3092
24.2979 44.7411
24.4805 44.1296
24.6631 43.9588
24.8458 43.4435
25.0286 44.0224
25.2114 45.8823
25.3943 45.8114
25.5773 42.3078
25.7605 41.703
25.9436 41.8645
26.1268 42.758
26.31 41.3032
26.4933 41.897
26.6767 43.2685
26.8601 41.5546
27.0437 40.0017
27.2272 39.7295
27.4109 39.498
27.5946 39.3914
27.7784 39.0374
27.9623 39.558
28.1462 39.7473
28.3304 38.1445
28.5145 36.9358
28.6987 36.5765
28.8829 36.3326
29.0673 35.6621
29.2517 35.2638
29.4361 35.0559
29.6207 34.0939
29.8053 33.8666
29.99 33.4411
30.1748 33.2504
30.3597 33.1628
30.5447 33.0649
30.7297 33.1245
30.915 32.4219
31.1002 32.0252
31.2855 31.7044
31.4708 31.6359
31.6563 31.2618
31.8418 30.8914
32.0275 30.7337
32.2132 30.2726
32.399 29.7762
32.5848 29.1981
32.7708 28.9594
32.9569 28.7461
33.143 28.5369
33.3293 28.1554
33.5158 27.7454
33.7022 27.2394
33.8887 27.0671
34.0753 26.7207
34.262 26.3356
34.4488 25.9842
34.6357 25.6041
34.8227 25.3593
35.0098 25.1447
35.1969 24.9177
35.3842 24.5849
35.5716 24.4739
35.759 24.0325
35.9468 23.7665
36.1345 23.5072
36.3222 23.2403
36.5101 22.9938
36.6981 22.7092
36.8861 22.395
37.0743 22.1241
37.2626 21.8099
37.451 21.5358
37.6395 21.4326
37.8281 21.061
38.0168 20.7662
38.2056 20.4825
38.3945 20.1817
38.5837 19.9771
38.7728 19.6948
38.9621 19.4919
39.1514 19.2621
39.3409 18.9295
39.5304 18.7439
39.7201 18.5837
39.9099 18.3159
40.0999 18.0445
40.2899 17.7847
40.48 17.5537
40.6703 17.3568
40.8607 17.2212
41.0512 16.9861
41.242 16.6822
41.4327 16.514
41.6236 16.2369
41.8146 16.049
42.0057 15.7865
42.1969 15.6452
42.3882 15.4222
42.5797 15.171
42.7713 15.0517
42.963 14.7802
43.1549 14.5841
43.3468 14.3484
43.5389 14.2152
43.7312 13.993
43.9237 13.7916
44.1162 13.6054
44.3088 13.4037
44.5016 13.1678
44.6945 13.0702
44.8875 12.9066
45.0806 12.7105
45.2739 12.5065
45.4673 12.3406
45.6609 12.1816
45.8546 11.9936
46.0484 11.8127
46.2424 11.6559
46.4365 11.5021
46.631 11.314
46.8254 11.1159
47.0199 10.997
47.2146 10.8132
47.4095 10.6516
47.6044 10.4651
47.7996 10.3292
47.9948 10.1918
48.1902 10.0364
48.3858 9.88221
48.5815 9.76428
48.7774 9.62046
48.9734 9.49537
49.1696 9.34481
49.3661 9.22128
49.5626 9.01468
49.7592 8.88046
49.956 8.78014
50.153 8.6477
50.3501 8.473
50.5474 8.40303
50.7448 8.23595
50.9424 8.11976
51.1402 7.99777
51.3381 7.83093
51.5362 7.71936
51.7344 7.61559
51.9328 7.49581
52.1316 7.38515
52.3304 7.23113
52.5293 7.12263
52.7284 6.99911
52.9276 6.88599
53.1271 6.77497
53.3267 6.68613
53.5265 6.53565
53.7264 6.423
53.9266 6.35087
54.1269 6.16194
54.3274 6.08574
54.528 5.91776
54.7289 5.78958
54.9301 5.58379
55.1314 5.49292
55.3328 5.27353
55.5344 5.11468
55.7361 4.92496

File: Ni3Fe_FD0355.xy
TT I
1.27165 7.49061
1.45013 6.4023
1.62863 5.53176
1.80712 4.89793
1.98562 4.75529
2.16411 4.51342
2.34263 5.23759
2.52115 6.78754
2.69965 7.45336
2.87818 8.70612
3.05672 11.2759
3.23527 15.0733
3.4138 18.57
3.59237 23.6332
3.77094 26.0027
3.9495 30.2424
4.12809 35.2659
4.30669 124.146
4.4853 56.6639
4.6639 57.2012
4.84253 69.7915
5.02118 92.167
5.19981 611.944
5.37848 220.835
5.55716 106.664
5.73586 96.6757
5.91455 101.532
6.09328 3975.04
6.27201 85.3505
6.45075 69.2453
6.62952 63.86
6.8083 59.6507
6.98711 57.2329
7.16591 56.4593
7.34475 73.3381
7.5236 55.6138
7.70247 57.7156
7.88135 59.0652
8.06026 63.9341
8.23919 71.56
8.41812 88.0708
8.59709 1190.62
8.77609 104.401
8.9551 91.2734
9.13412 85.0575
9.31318 85.5513
9.49226 87.6188
9.67134 97.269
9.85047 103.657
10.0296 443.01
10.2088 459.685
10.388 110.179
10.5672 489.942
10.7465 89.8597
10.9257 79.6471
11.105 73.8281
11.2844 70.7257
11.4637 66.6791
11.6431 64.987
11.8225 64.0188
12.002 66.5815
12.1814 150.972
12.3609 70.1758
12.5405 66.3394
12.72 70.1712
12.8996 73.4638
13.0792 83.3003
13.2589 247.09
13.4386 133.101
13.6183 244.662
13.7981 102.024
13.9779 78.1046
14.1577 74.0843
14.3376 72.7264
14.5175 71.1415
14.6974 73.099
14.8774 120.138
15.0574 153.126
15.2374 71.8703
15.4175 68.3511
15.5976 68.2134
15.7778 103.361
15.958 161.866
16.1382 63.3495
16.3185 59.844
16.4988 57.0347
16.6792 56.0625
16.8596 56.5807
17.04 57.8709
17.2205 69.3994
17.401 73.5586
17.5815 60.9239
17.7622 63.269
17.9428 79.1198
18.1237 139.824
18.3044 91.7489
18.4852 79.2703
18.666 62.1352
18.8469 59.6204
19.0278 58.4669
19.2088 61.9663
19.3898 76.8198
19.5709 55.9518
19.752 54.9668
19.9332 58.4908
20.1144 71.4338
20.2957 64.5804
20.477 55.1651
20.6586 51.0936
20.84 50.2078
21.0215 50.1778
21.203 52.1885
21.3846 50.463
21.5662 50.5569
21.7479 54.6737
21.9297 66.1015
22.1115 57.1492
22.2933 51.2553
22.4753 50.1278
22.6572 50.6382
22.8393 53.8827
23.0214 58.8618
23.2037 50.398
23.3859 51.6792
23.5682 57.6922
23.7505 49.6963
23.9329 46.534
24.1154 45.4245
24.2979 44.725
24.4805 44.0689
24.6631 44.1785
24.8458 43.5585
25.0286 44.1666
25.2114 46.0721
25.3943 45.9426
25.5773 42.0506
25.7605 41.6654
25.9436 42.1581
26.1268 42.7933
26.31 41.3511
26.4933 42.0673
26.6767 43.3262
26.8601 41.583
27.0437 39.9543
27.2272 39.7194
27.4109 39.646
27.5946 39.6148
27.7784 38.9652
27.9623 39.4608
28.1462 39.9092
28.3304 38.1502
28.5145 37.0177
28.6987 36.5713
28.8829 36.3403
29.0673 35.5788
29.2517 35.2592
29.4361 35.078
29.6207 34.0813
29.8053 33.7762
29.99 33.523
30.1748 33.3561
30.3597 33.2465
30.5447 33.0485
30.7297 33.1552
30.915 32.5278
31.1002 31.9453
31.2855 31.7446
31.4708 31.6871
31.6563 31.1577
31.8418 31.0388
32.0275 30.7399
32.2132 30.0788
32.399 29.7531
32.5848 29.3177
32.7708 28.9723
32.9569 28.8235
33.143 28.5199
33.3293 28.1847
33.5158 27.79
33.7022 27.3172
33.8887 26.9859
34.0753 26.6883
34.262 26.3474
34.4488 26.03
34.6357 25.7448
34.8227 25.3674
35.0098 25.2332
35.1969 24.8841
35.3842 24.7678
35.5716 24.4161
35.759 24.1368
35.9468 23.6548
36.1345 23.4977
36.3222 23.3222
36.5101 23.0852
36.6981 22.6415
36.8861 22.4508
37.0743 22.1069
37.2626 21.8436
37.451 21.5624
37.6395 21.375
37.8281 21.0119
38.0168 20.7373
38.2056 20.5237
38.3945 20.2027
38.5837 19.9571
38.7728 19.6962
38.9621 19.459
39.1514 19.2517
39.3409 18.9554
39.5304 18.7938
39.7201 18.546
39.9099 18.3656
40.0999 18.0632
40.2899 17.8334
40.48 17.6272
40.6703 17.3628
40.8607 17.2385
41.0512 16.9903
41.242 16.6713
41.4327 16.5377
41.6236 16.2603
41.8146 16.0902
42.0057 15.8534
42.1969 15.668
42.3882 15.4786
42.5797 15.219
42.7713 15.0194
42.963 14.8008
43.1549 14.623
43.3468 14.3939
43.5389 14.1849
43.7312 13.986
43.9237 13.8065
44.1162 13.6176
44.3088 13.3668
44.5016 13.2361
44.6945 13.0466
44.8875 12.8749
45.0806 12.685
45.2739 12.5226
45.4673 12.3328
45.6609 12.1583
45.8546 12.0072
46.0484 11.7838
46.2424 11.677
46.4365 11.4965
46.631 11.3102
46.8254 11.1351
47.0199 10.953
47.2146 10.8074
47.4095 10.6748
47.6044 10.4655
47.7996 10.3625
47.9948 10.1933
48.1902 10.0762
48.3858 9.895
48.5815 9.76752
48.7774 9.65156
48.9734 9.47536
49.1696 9.36274
49.3661 9.18795
49.5626 9.0328
49.7592 8.92356
49.956 8.75469
50.153 8.65435
50.3501 8.52782
50.5474 8.40373
50.7448 8.27735
50.9424 8.125
51.1402 8.00351
51.3381 7.87832
51.5362 7.73641
51.7344 7.64038
51.9328 7.47899
52.1316 7.35917
52.3304 7.23627
52.5293 7.10977
52.7284 7.00947
52.9276 6.89757
53.1271 6.79773
53.3267 6.62403
53.5265 6.5421
53.7264 6.38964
53.9266 6.33558
54.1269 6.19049
54.3274 6.05035
54.528 5.95259
54.7289 5.78478
54.9301 5.61434
55.1314 5.50138
55.3328 5.29031
55.5344 5.10327
55.7361 4.96617

File: Ni3Fe_FD0356.xy
TT I
1.27165 7.49452
1.45013 6.76135
1.62863 5.17553
1.80712 4.64134
1.98562 5.03384
2.16411 4.40937
2.34263 4.81841
2.52115 6.06647
2.69965 7.13732
2.87818 8.07089
3.05672 11.2819
3.23527 14.8938
3.4138 18.9666
3.59237 23.4846
3.77094 26.3388
3.9495 30.0506
4.12809 34.866
4.30669 122.765
4.4853 56.1381
4.6639 56.8898
4.84253 70.0281
5.02118 91.8761
5.19981 611.587
5.37848 221.528
5.55716 106.722
5.73586 96.9626
5.91455 101.72
6.09328 3969.8
6.27201 85.343
6.45075 69.4103
6.62952 63.4966
6.8083 59.7159
6.98711 56.9193
7.16591 56.2316
7.34475 72.9415
7.5236 55.8341
7.70247 57.3325
7.88135 59.2373
8.06026 63.9919
8.23919 71.3119
8.41812 88.1554
8.59709 1190.78
8.77609 103.902
8.9551 90.8395
9.13412 84.4978
9.31318 85.8147
9.49226 87.2042
9.67134 96.9479
9.85047 104.18
10.0296 443.458
10.2088 458.659
10.388 110.247
10.5672 489.955
10.7465 89.6142
10.9257 79.568
11.105 73.6314
11.2844 70.6396
11.4637 66.6155
11.6431 65.1687
11.8225 64.3384
12.002 66.3892
12.1814 151.072
12.3609 70.2051
12.5405 66.0416
12.72 70.0411
12.8996 73.5371
13.0792 83.0936
13.2589 246.687
13.4386 132.244
13.6183 245.278
13.7981 102.448
13.9779 78.162
14.1577 73.9872
14.3376 72.5444
14.5175 71.1116
14.6974 72.757
14.8774 120.313
15.0574 152.488
15.2374 71.876
15.4175 68.4251
15.5976 68.108
15.7778 103.568
15.958 162.058
16.1382 63.5588
16.3185 59.693
16.4988 56.8647
16.6792 55.9682
16.8596 56.4581
17.04 57.9108
17.2205 69.2902
17.401 73.322
17.5815 61.09
17.7622 63.3155
17.9428 79.0798
18.1237 140.058
18.3044 91.8863
18.4852 79.333
18.666 61.9897
18.8469 59.9023
19.0278 58.3992
19.2088 61.6735
19.3898 76.9682
19.5709 55.883
19.752 54.8855
19.9332 58.7157
20.1144 71.4575
20.2957 64.5505
20.477 54.9361
20.6586 51.2496
20.84 50.2792
21.0215 50.1562
21.203 51.8918
21.3846 50.4403
21.5662 50.6364
21.7479 54.7792
21.9297 66.1825
22.1115 57.1781
22.2933 51.5314
22.4753 50.2545
22.6572 50.6121
22.8393 53.7524
23.0214 58.822
23.2037 50.3081
23.3859 51.6662
23.5682 57.7239
23.7505 49.7398
23.9329 46.5483
24.1154 45.4606
24.2979 44.6517
24.4805 44.2083
24.6631 44.0411
24.8458 43.6049
25.0286 44.2321
25.2114 45.9823
25.3943 45.8615
25.5773 42.1346
25.7605 41.5853
25.9436 42.1372
26.1268 42.8571
26.31 41.2608
26.4933 41.9854
26.6767 43.4035
26.8601 41.6648
27.0437 39.9725
27.2272 39.6349
27.4109 39.5023
27.5946 39.5448
27.7784 39.041
27.9623 39.4543
28.1462 39.8078
28.3304 38.2115
28.5145 36.9957
28.6987 36.5448
28.8829 36.2564
29.0673 35.6428
29.2517 35.2091
29.4361 35.0446
29.6207 34.07
29.8053 33.7858
29.99 33.4951
30.1748 33.2819
30.3597 33.1308
30.5447 33.1213
30.7297 33.116
30.915 32.4458
31.1002 31.9723
31.2855 31.7455
31.4708 31.6391
31.6563 31.2197
31.8418 30.9241
32.0275 30.8412
32.2132 30.1455
32.399 29.7546
32.5848 29.2702
32.7708 28.9093
32.9569 28.8017
33.143 28.527
33.3293 28.1122
33.5158 27.7584
33.7022 27.29
33.8887 26.9816
34.0753 26.7074
34.262 26.4123
34.4488 25.9557
34.6357 25.6949
34.8227 25.2672
35.0098 25.1213
35.1969 24.8912
35.3842 24.6539
35.5716 24.4416
35.759 24.1002
35.9468 23.7196
36.1345 23.4844
36.3222 23.246
36.5101 22.9693
36.6981 22.6454
36.8861 22.4296
37.0743 22.0445
37.2626 21.8637
37.451 21.5494
37.6395 21.4393
37.8281 21.0569
38.0168 20.7306
38.2056 20.4382
38.3945 20.2284
38.5837 19.9438
38.7728 19.7334
38.9621 19.4002
39.1514 19.1763
39.3409 18.9769
39.5304 18.7726
39.7201 18.5169
39.9099 18.3226
40.0999 18.0148
40.2899 17.8082
40.48 17.5336
40.6703 17.4122
40.8607 17.1981
41.0512 16.9103
41.242 16.7019
41.4327 16.489
41.6236 16.243
41.8146 16.0611
42.0057 15.8086
42.1969 15.6365
42.3882 15.4348
42.5797 15.2233
42.7713 14.9947
42.963 14.7834
43.1549 14.6013
43.3468 14.4536
43.5389 14.1866
43.7312 14.0046
43.9237 13.8417
44.1162 13.5731
44.3088 13.4555
44.5016 13.2483
44.6945 13.0434
44.8875 12.8746
45.0806 12.6608
45.2739 12.5142
45.4673 12.3372
45.6609 12.2143
45.8546 11.9624
46.0484 11.8582
46.2424 11.6055
46.4365 11.4683
46.631 11.2946
46.8254 11.1321
47.0199 10.9665
47.2146 10.8592
47.4095 10.673
47.6044 10.4937
47.7996 10.339
47.9948 10.2073
48.1902 10.0773
48.3858 9.86984
48.5815 9.76567
48.7774 9.64264
48.9734 9.50638
49.1696 9.3447
49.3661 9.19379
49.5626 9.0562
49.7592 8.94183
49.956 8.77932
50.153 8.63431
50.3501 8.49808
50.5474 8.40397
50.7448 8.22367
50.9424 8.12931
51.1402 7.99181
51.3381 7.84923
51.5362 7.76955
51.7344 7.60912
51.9328 7.49154
52.1316 7.37723
52.3304 7.25975
52.5293 7.14044
52.7284 7.00215
52.9276 6.90136
53.1271 6.81315
53.3267 6.63656
53.5265 6.51729
53.7264 6.46549
53.9266 6.3375
54.1269 6.17787
54.3274 6.10482
54.528 5.93851
54.7289 5.73655
54.9301 5.58791
55.1314 5.48928
55.3328 5.3149
55.5344 5.06639
55.7361 4.93991