Folder: NiFe_MOF_catalyst_paper/XRD (part 89)

File: Ni3Fe_FD0479.xy
TT I
1.27165 7.87426
1.45013 6.08144
1.62863 5.59531
1.80712 5.2884
1.98562 4.35851
2.16411 4.61142
2.34263 5.15463
2.52115 6.52559
2.69965 7.69275
2.87818 8.62447
3.05672 10.9051
3.23527 15.1731
3.4138 19.0238
3.59237 23.1145
3.77094 26.2853
3.9495 29.9703
4.12809 34.7614
4.30669 111.879
4.4853 55.0382
4.6639 56.4717
4.84253 69.1089
5.02118 89.926
5.19981 536.71
5.37848 208.198
5.55716 105.026
5.73586 95.0656
5.91455 99.4884
6.09328 4250.95
6.27201 83.3222
6.45075 69.3456
6.62952 63.564
6.8083 59.3258
6.98711 56.3671
7.16591 56.0811
7.34475 69.951
7.5236 55.1143
7.70247 57.014
7.88135 58.3367
8.06026 63.3087
8.23919 70.8921
8.41812 86.5605
8.59709 1240.18
8.77609 101.528
8.9551 90.5951
9.13412 83.6837
9.31318 85.1491
9.49226 86.4677
9.67134 96.0967
9.85047 102.698
10.0296 413.393
10.2088 403.795
10.388 108.287
10.5672 500.143
10.7465 87.9706
10.9257 78.775
11.105 72.6338
11.2844 69.6302
11.4637 65.9284
11.6431 64.6012
11.8225 63.5271
12.002 65.8114
12.1814 156.12
12.3609 68.5632
12.5405 65.4931
12.72 69.4694
12.8996 72.4206
13.0792 82.1664
13.2589 252.115
13.4386 125.154
13.6183 255.576
13.7981 97.5848
13.9779 76.9358
14.1577 73.2528
14.3376 71.307
14.5175 70.2128
14.6974 71.9429
14.8774 118.612
15.0574 148.599
15.2374 70.8281
15.4175 67.7827
15.5976 67.0441
15.7778 101.519
15.958 154.517
16.1382 62.5453
16.3185 58.8022
16.4988 56.396
16.6792 55.5837
16.8596 55.8611
17.04 57.245
17.2205 68.7119
17.401 71.505
17.5815 59.9857
17.7622 62.5552
17.9428 77.2103
18.1237 140.611
18.3044 92.2978
18.4852 77.8928
18.666 61.3241
18.8469 58.8779
19.0278 57.6527
19.2088 60.7618
19.3898 76.5872
19.5709 54.9631
19.752 54.1807
19.9332 57.8946
20.1144 70.7681
20.2957 64.2682
20.477 54.0992
20.6586 50.3958
20.84 49.6168
21.0215 49.3116
21.203 51.5667
21.3846 49.6904
21.5662 49.9739
21.7479 54.0486
21.9297 65.5272
22.1115 56.5253
22.2933 50.6328
22.4753 49.5573
22.6572 49.8963
22.8393 53.129
23.0214 57.9898
23.2037 49.5026
23.3859 50.744
23.5682 57.3038
23.7505 48.9735
23.9329 45.9332
24.1154 44.8552
24.2979 43.9416
24.4805 43.5116
24.6631 43.4058
24.8458 42.8056
25.0286 43.7799
25.2114 45.3725
25.3943 45.0941
25.5773 41.5878
25.7605 41.0975
25.9436 41.6082
26.1268 42.283
26.31 40.812
26.4933 41.4697
26.6767 42.7498
26.8601 41.0779
27.0437 39.5273
27.2272 39.0391
27.4109 38.8526
27.5946 39.0412
27.7784 38.4963
27.9623 38.9609
28.1462 39.4259
28.3304 37.6027
28.5145 36.4401
28.6987 36.1926
28.8829 35.9428
29.0673 35.1513
29.2517 34.7588
29.4361 34.6594
29.6207 33.6678
29.8053 33.3944
29.99 33.0652
30.1748 32.8483
30.3597 32.7724
30.5447 32.6355
30.7297 32.6663
30.915 32.255
31.1002 31.5381
31.2855 31.3284
31.4708 31.309
31.6563 30.8085
31.8418 30.5254
32.0275 30.3589
32.2132 29.8372
32.399 29.3802
32.5848 28.9336
32.7708 28.6032
32.9569 28.4219
33.143 28.2609
33.3293 27.8184
33.5158 27.4242
33.7022 26.8446
33.8887 26.7502
34.0753 26.4633
34.262 26.043
34.4488 25.7002
34.6357 25.324
34.8227 24.9943
35.0098 24.9248
35.1969 24.5024
35.3842 24.3599
35.5716 24.0858
35.759 23.8056
35.9468 23.4848
36.1345 23.1992
36.3222 23.0201
36.5101 22.7891
36.6981 22.4788
36.8861 22.1717
37.0743 21.8589
37.2626 21.5798
37.451 21.267
37.6395 21.1135
37.8281 20.7167
38.0168 20.45
38.2056 20.2374
38.3945 19.8822
38.5837 19.7316
38.7728 19.4945
38.9621 19.2593
39.1514 18.9834
39.3409 18.7525
39.5304 18.5136
39.7201 18.3489
39.9099 18.1557
40.0999 17.8545
40.2899 17.5798
40.48 17.2999
40.6703 17.1462
40.8607 16.9579
41.0512 16.7289
41.242 16.498
41.4327 16.3079
41.6236 16.0113
41.8146 15.8581
42.0057 15.6589
42.1969 15.401
42.3882 15.2356
42.5797 15.0448
42.7713 14.8385
42.963 14.6236
43.1549 14.4281
43.3468 14.1905
43.5389 13.9896
43.7312 13.7923
43.9237 13.6716
44.1162 13.4177
44.3088 13.3178
44.5016 13.0561
44.6945 12.888
44.8875 12.6486
45.0806 12.5688
45.2739 12.3376
45.4673 12.213
45.6609 12.005
45.8546 11.8529
46.0484 11.6884
46.2424 11.5175
46.4365 11.3562
46.631 11.1671
46.8254 10.9977
47.0199 10.8572
47.2146 10.7119
47.4095 10.5287
47.6044 10.3569
47.7996 10.2184
47.9948 10.0603
48.1902 9.92611
48.3858 9.74477
48.5815 9.63126
48.7774 9.52791
48.9734 9.33597
49.1696 9.20308
49.3661 9.0867
49.5626 8.88625
49.7592 8.82232
49.956 8.66904
50.153 8.55189
50.3501 8.39812
50.5474 8.28974
50.7448 8.15313
50.9424 8.02282
51.1402 7.89646
51.3381 7.74896
51.5362 7.64768
51.7344 7.52306
51.9328 7.3917
52.1316 7.25924
52.3304 7.19708
52.5293 7.00391
52.7284 6.92274
52.9276 6.79128
53.1271 6.6852
53.3267 6.58917
53.5265 6.48121
53.7264 6.36688
53.9266 6.23675
54.1269 6.1079
54.3274 5.95998
54.528 5.89671
54.7289 5.72829
54.9301 5.56982
55.1314 5.45705
55.3328 5.22222
55.5344 4.99575
55.7361 4.86119

File: Ni3Fe_FD0481.xy
TT I
1.27165 7.99695
1.45013 6.57714
1.62863 4.73941
1.80712 4.90295
1.98562 4.85284
2.16411 4.81146
2.34263 5.23516
2.52115 6.97034
2.69965 7.53556
2.87818 8.6541
3.05672 11.0899
3.23527 15.1455
3.4138 18.9448
3.59237 23.3459
3.77094 25.8823
3.9495 29.8006
4.12809 34.6647
4.30669 108.47
4.4853 55.2713
4.6639 56.3021
4.84253 69.0681
5.02118 89.5821
5.19981 539.463
5.37848 209.157
5.55716 104.748
5.73586 95.1054
5.91455 98.84
6.09328 4250.76
6.27201 83.443
6.45075 69.5845
6.62952 62.9428
6.8083 59.4549
6.98711 56.1597
7.16591 55.9731
7.34475 69.3291
7.5236 54.7239
7.70247 56.9817
7.88135 58.2908
8.06026 63.2657
8.23919 70.5774
8.41812 86.4998
8.59709 1240.18
8.77609 101.329
8.9551 90.5634
9.13412 84.0452
9.31318 85.7118
9.49226 86.5424
9.67134 96.066
9.85047 102.565
10.0296 414.157
10.2088 404.047
10.388 108.389
10.5672 500.824
10.7465 87.7487
10.9257 78.7618
11.105 72.5333
11.2844 69.7932
11.4637 65.5716
11.6431 64.3926
11.8225 63.6654
12.002 65.6298
12.1814 155.854
12.3609 68.5894
12.5405 65.6919
12.72 69.107
12.8996 72.5811
13.0792 82.4239
13.2589 252.538
13.4386 125.446
13.6183 254.77
13.7981 97.792
13.9779 77.145
14.1577 73.0025
14.3376 71.4281
14.5175 70.1049
14.6974 72.0141
14.8774 118.779
15.0574 148.828
15.2374 71.0806
15.4175 67.5178
15.5976 67.2697
15.7778 101.613
15.958 153.844
16.1382 62.4942
16.3185 58.7613
16.4988 56.4161
16.6792 55.3058
16.8596 55.5538
17.04 57.192
17.2205 68.8285
17.401 71.5403
17.5815 60.1443
17.7622 62.3258
17.9428 77.3284
18.1237 140.661
18.3044 92.3045
18.4852 77.8072
18.666 61.387
18.8469 58.9436
19.0278 57.7664
19.2088 60.8389
19.3898 76.6336
19.5709 54.7987
19.752 54.2531
19.9332 57.3866
20.1144 70.6579
20.2957 64.295
20.477 53.9756
20.6586 50.4606
20.84 49.5794
21.0215 49.5457
21.203 51.4514
21.3846 49.5847
21.5662 49.8712
21.7479 53.9576
21.9297 65.4219
22.1115 56.5386
22.2933 50.5725
22.4753 49.5467
22.6572 50.0547
22.8393 53.0525
23.0214 57.8486
23.2037 49.4023
23.3859 50.7985
23.5682 57.4197
23.7505 48.8941
23.9329 45.7903
24.1154 44.6928
24.2979 44.0009
24.4805 43.5332
24.6631 43.3573
24.8458 42.7619
25.0286 43.7408
25.2114 45.2912
25.3943 45.2766
25.5773 41.5464
25.7605 41.0815
25.9436 41.5102
26.1268 42.382
26.31 40.7559
26.4933 41.4011
26.6767 42.7309
26.8601 41.0371
27.0437 39.5319
27.2272 39.2213
27.4109 38.9756
27.5946 38.9899
27.7784 38.4748
27.9623 39.0321
28.1462 39.3497
28.3304 37.6799
28.5145 36.5417
28.6987 36.111
28.8829 35.993
29.0673 35.1247
29.2517 34.8162
29.4361 34.5944
29.6207 33.6193
29.8053 33.264
29.99 33.0359
30.1748 32.9158
30.3597 32.7454
30.5447 32.669
30.7297 32.6108
30.915 32.0853
31.1002 31.6365
31.2855 31.4001
31.4708 31.3081
31.6563 30.8649
31.8418 30.5086
32.0275 30.3553
32.2132 29.7385
32.399 29.3175
32.5848 28.903
32.7708 28.5839
32.9569 28.5028
33.143 28.1602
33.3293 27.8201
33.5158 27.3895
33.7022 26.9434
33.8887 26.674
34.0753 26.3411
34.262 26.0039
34.4488 25.6216
34.6357 25.3781
34.8227 25.051
35.0098 24.8902
35.1969 24.5745
35.3842 24.325
35.5716 24.1372
35.759 23.8678
35.9468 23.4271
36.1345 23.1607
36.3222 22.9461
36.5101 22.7364
36.6981 22.4156
36.8861 22.183
37.0743 21.8294
37.2626 21.5194
37.451 21.3314
37.6395 21.1249
37.8281 20.79
38.0168 20.4763
38.2056 20.2278
38.3945 19.9339
38.5837 19.6892
38.7728 19.5201
38.9621 19.2638
39.1514 18.847
39.3409 18.7235
39.5304 18.5124
39.7201 18.2439
39.9099 18.0779
40.0999 17.9125
40.2899 17.601
40.48 17.4062
40.6703 17.1469
40.8607 16.9501
41.0512 16.7583
41.242 16.5127
41.4327 16.2992
41.6236 16.0257
41.8146 15.8575
42.0057 15.6076
42.1969 15.4276
42.3882 15.2688
42.5797 15.0371
42.7713 14.8046
42.963 14.6326
43.1549 14.3815
43.3468 14.1824
43.5389 13.9854
43.7312 13.7903
43.9237 13.6423
44.1162 13.4263
44.3088 13.2751
44.5016 13.0334
44.6945 12.928
44.8875 12.7193
45.0806 12.537
45.2739 12.3586
45.4673 12.18
45.6609 12.0057
45.8546 11.8621
46.0484 11.6762
46.2424 11.4886
46.4365 11.334
46.631 11.1389
46.8254 11.0097
47.0199 10.8426
47.2146 10.6452
47.4095 10.5112
47.6044 10.3915
47.7996 10.2029
47.9948 10.0863
48.1902 9.94446
48.3858 9.74532
48.5815 9.63452
48.7774 9.51787
48.9734 9.38014
49.1696 9.23403
49.3661 9.05458
49.5626 8.93211
49.7592 8.78449
49.956 8.68235
50.153 8.57576
50.3501 8.37114
50.5474 8.28792
50.7448 8.17542
50.9424 8.02364
51.1402 7.90786
51.3381 7.78296
51.5362 7.65788
51.7344 7.4996
51.9328 7.39064
52.1316 7.24175
52.3304 7.13366
52.5293 7.05628
52.7284 6.94338
52.9276 6.78153
53.1271 6.6711
53.3267 6.58656
53.5265 6.47241
53.7264 6.31695
53.9266 6.25419
54.1269 6.16142
54.3274 6.05001
54.528 5.85111
54.7289 5.73929
54.9301 5.52131
55.1314 5.48645
55.3328 5.19479
55.5344 5.0218
55.7361 4.87862

File: Ni3Fe_FD0482.xy
TT I
1.27165 7.42848
1.45013 6.59703
1.62863 5.23002
1.80712 4.66414
1.98562 5.25395
2.16411 4.85765
2.34263 5.51225
2.52115 6.59424
2.69965 7.79571
2.87818 8.86867
3.05672 10.9347
3.23527 14.943
3.4138 18.7849
3.59237 23.338
3.77094 25.8769
3.9495 29.8928
4.12809 34.8714
4.30669 107.909
4.4853 54.8161
4.6639 56.5127
4.84253 69.3981
5.02118 90.2658
5.19981 540.627
5.37848 207.358
5.55716 104.984
5.73586 95.0455
5.91455 99.5747
6.09328 4232.59
6.27201 82.9059
6.45075 69.8975
6.62952 63.334
6.8083 59.7744
6.98711 56.3429
7.16591 56.2322
7.34475 69.4773
7.5236 55.1705
7.70247 57.4257
7.88135 58.8343
8.06026 63.5315
8.23919 70.9952
8.41812 86.8208
8.59709 1245.43
8.77609 101.703
8.9551 90.368
9.13412 84.075
9.31318 85.7076
9.49226 86.3408
9.67134 96.2622
9.85047 102.915
10.0296 414.403
10.2088 399.748
10.388 108.619
10.5672 501.36
10.7465 87.7751
10.9257 78.9624
11.105 72.5424
11.2844 69.7072
11.4637 66.0911
11.6431 64.5826
11.8225 63.6118
12.002 65.9042
12.1814 156.474
12.3609 68.3359
12.5405 65.7664
12.72 69.1932
12.8996 72.4167
13.0792 82.5799
13.2589 253.252
13.4386 125.45
13.6183 255.592
13.7981 97.6871
13.9779 77.0263
14.1577 73.0215
14.3376 71.6161
14.5175 70.3406
14.6974 71.865
14.8774 118.761
15.0574 148.709
15.2374 70.6444
15.4175 67.7279
15.5976 67.4992
15.7778 101.744
15.958 154.388
16.1382 62.4411
16.3185 58.7856
16.4988 56.3025
16.6792 55.2054
16.8596 55.8434
17.04 57.3106
17.2205 68.7338
17.401 71.774
17.5815 60.3367
17.7622 62.4736
17.9428 77.41
18.1237 140.453
18.3044 92.3979
18.4852 77.7906
18.666 61.2149
18.8469 58.9838
19.0278 57.8364
19.2088 60.8523
19.3898 76.5519
19.5709 55.1127
19.752 54.1327
19.9332 57.6882
20.1144 70.5181
20.2957 64.4345
20.477 54.1507
20.6586 50.3688
20.84 49.5391
21.0215 49.4896
21.203 51.6505
21.3846 49.7566
21.5662 49.9615
21.7479 53.9372
21.9297 65.422
22.1115 56.3176
22.2933 50.4618
22.4753 49.6249
22.6572 49.8228
22.8393 53.0675
23.0214 57.9357
23.2037 49.6073
23.3859 50.9804
23.5682 57.403
23.7505 48.917
23.9329 45.8823
24.1154 44.7581
24.2979 44.0507
24.4805 43.6857
24.6631 43.578
24.8458 42.9348
25.0286 43.611
25.2114 45.4314
25.3943 45.2188
25.5773 41.5256
25.7605 41.0779
25.9436 41.6204
26.1268 42.3422
26.31 40.6625
26.4933 41.3581
26.6767 42.7796
26.8601 40.9767
27.0437 39.5493
27.2272 39.0726
27.4109 39.1146
27.5946 38.9658
27.7784 38.532
27.9623 38.9615
28.1462 39.4017
28.3304 37.711
28.5145 36.4989
28.6987 36.1035
28.8829 35.9544
29.0673 35.1658
29.2517 34.8908
29.4361 34.639
29.6207 33.6311
29.8053 33.3671
29.99 32.9994
30.1748 32.934
30.3597 32.6634
30.5447 32.6979
30.7297 32.7138
30.915 32.0253
31.1002 31.6291
31.2855 31.3968
31.4708 31.3348
31.6563 30.8062
31.8418 30.5698
32.0275 30.2785
32.2132 29.9009
32.399 29.4021
32.5848 28.9545
32.7708 28.5259
32.9569 28.4474
33.143 28.2012
33.3293 27.7354
33.5158 27.4736
33.7022 27.0051
33.8887 26.6252
34.0753 26.3075
34.262 25.9865
34.4488 25.6525
34.6357 25.3385
34.8227 25.0407
35.0098 24.7933
35.1969 24.5426
35.3842 24.3549
35.5716 24.139
35.759 23.7261
35.9468 23.4062
36.1345 23.1986
36.3222 22.9504
36.5101 22.753
36.6981 22.4748
36.8861 22.1086
37.0743 21.8446
37.2626 21.5301
37.451 21.2644
37.6395 21.147
37.8281 20.7649
38.0168 20.4613
38.2056 20.2676
38.3945 19.9966
38.5837 19.7498
38.7728 19.5098
38.9621 19.254
39.1514 18.957
39.3409 18.7188
39.5304 18.4631
39.7201 18.3263
39.9099 18.0906
40.0999 17.8267
40.2899 17.6362
40.48 17.3443
40.6703 17.1575
40.8607 16.9594
41.0512 16.7631
41.242 16.4865
41.4327 16.2287
41.6236 16.0828
41.8146 15.9204
42.0057 15.6943
42.1969 15.4156
42.3882 15.2364
42.5797 15.0424
42.7713 14.8364
42.963 14.584
43.1549 14.4228
43.3468 14.2046
43.5389 13.9938
43.7312 13.8241
43.9237 13.6257
44.1162 13.4507
44.3088 13.2666
44.5016 13.0218
44.6945 12.8613
44.8875 12.6912
45.0806 12.516
45.2739 12.3473
45.4673 12.2023
45.6609 11.9741
45.8546 11.8667
46.0484 11.6535
46.2424 11.4726
46.4365 11.3613
46.631 11.1734
46.8254 11.0018
47.0199 10.8516
47.2146 10.741
47.4095 10.5132
47.6044 10.3705
47.7996 10.2212
47.9948 10.049
48.1902 9.90693
48.3858 9.76008
48.5815 9.67275
48.7774 9.5521
48.9734 9.3744
49.1696 9.20119
49.3661 9.07856
49.5626 8.94489
49.7592 8.79208
49.956 8.67807
50.153 8.55825
50.3501 8.41518
50.5474 8.29589
50.7448 8.14799
50.9424 8.03005
51.1402 7.92629
51.3381 7.77404
51.5362 7.66988
51.7344 7.52912
51.9328 7.42277
52.1316 7.2808
52.3304 7.15086
52.5293 7.01613
52.7284 6.93697
52.9276 6.81044
53.1271 6.71222
53.3267 6.58039
53.5265 6.47958
53.7264 6.33842
53.9266 6.22754
54.1269 6.13799
54.3274 5.99461
54.528 5.90075
54.7289 5.75088
54.9301 5.59684
55.1314 5.47394
55.3328 5.18764
55.5344 5.03289
55.7361 4.91057

File: Ni3Fe_FD0483.xy
TT I
1.27165 7.32763
1.45013 6.65084
1.62863 5.46796
1.80712 4.74506
1.98562 4.66149
2.16411 4.68529
2.34263 4.49339
2.52115 6.98771
2.69965 7.33126
2.87818 8.4457
3.05672 10.4437
3.23527 15.1462
3.4138 18.7749
3.59237 23.3736
3.77094 25.6871
3.9495 29.7943
4.12809 34.874
4.30669 106.958
4.4853 54.3555
4.6639 56.4379
4.84253 69.1475
5.02118 90.4131
5.19981 542.003
5.37848 207.432
5.55716 105.401
5.73586 95.2821
5.91455 99.1965
6.09328 4249.91
6.27201 83.264
6.45075 69.5077
6.62952 63.4287
6.8083 59.4737
6.98711 56.4508
7.16591 56.888
7.34475 69.0746
7.5236 54.7042
7.70247 57.3286
7.88135 58.5978
8.06026 63.4264
8.23919 70.5159
8.41812 86.1307
8.59709 1246.4
8.77609 101.531
8.9551 90.2572
9.13412 83.9731
9.31318 85.5808
9.49226 86.1646
9.67134 96.0544
9.85047 103.289
10.0296 414.638
10.2088 397.1
10.388 108.608
10.5672 499.613
10.7465 88.1437
10.9257 78.9297
11.105 72.5468
11.2844 69.7466
11.4637 65.8913
11.6431 64.3602
11.8225 63.6928
12.002 65.9096
12.1814 156.1
12.3609 68.2917
12.5405 65.6441
12.72 69.0346
12.8996 72.5356
13.0792 82.3246
13.2589 252.982
13.4386 125.064
13.6183 255.183
13.7981 97.4301
13.9779 77.149
14.1577 73.3213
14.3376 71.5911
14.5175 70.1702
14.6974 72.0727
14.8774 118.863
15.0574 148.113
15.2374 70.6549
15.4175 67.5884
15.5976 67.4045
15.7778 101.796
15.958 153.584
16.1382 62.4707
16.3185 58.7197
16.4988 56.182
16.6792 55.1571
16.8596 55.7907
17.04 57.183
17.2205 68.6665
17.401 71.353
17.5815 60.1756
17.7622 62.4204
17.9428 77.345
18.1237 140.6
18.3044 92.3184
18.4852 77.7478
18.666 61.4338
18.8469 58.9277
19.0278 57.7978
19.2088 60.884
19.3898 76.6157
19.5709 54.8829
19.752 54.3094
19.9332 57.6446
20.1144 70.6905
20.2957 64.2083
20.477 53.9417
20.6586 50.5624
20.84 49.705
21.0215 49.4193
21.203 51.4219
21.3846 49.588
21.5662 49.8225
21.7479 54.0385
21.9297 65.3866
22.1115 56.5413
22.2933 50.5393
22.4753 49.4138
22.6572 49.8997
22.8393 52.9272
23.0214 57.5778
23.2037 49.6159
23.3859 50.8521
23.5682 57.3858
23.7505 48.9309
23.9329 45.9752
24.1154 44.926
24.2979 43.9801
24.4805 43.5172
24.6631 43.4396
24.8458 42.8836
25.0286 43.583
25.2114 45.3583
25.3943 45.2258
25.5773 41.5506
25.7605 41.0119
25.9436 41.5661
26.1268 42.3733
26.31 40.803
26.4933 41.5308
26.6767 42.8564
26.8601 41.022
27.0437 39.4835
27.2272 39.0345
27.4109 38.9764
27.5946 38.8393
27.7784 38.4335
27.9623 38.9431
28.1462 39.4177
28.3304 37.7299
28.5145 36.4889
28.6987 36.1227
28.8829 35.8664
29.0673 35.1834
29.2517 34.9064
29.4361 34.5855
29.6207 33.6436
29.8053 33.407
29.99 33.0681
30.1748 32.9213
30.3597 32.7582
30.5447 32.6923
30.7297 32.7238
30.915 31.997
31.1002 31.5719
31.2855 31.3281
31.4708 31.2945
31.6563 30.8045
31.8418 30.6555
32.0275 30.3832
32.2132 29.7979
32.399 29.3104
32.5848 28.8782
32.7708 28.6256
32.9569 28.4423
33.143 28.2508
33.3293 27.7885
33.5158 27.4493
33.7022 26.9072
33.8887 26.6865
34.0753 26.389
34.262 25.9923
34.4488 25.7346
34.6357 25.3045
34.8227 25.0328
35.0098 24.8784
35.1969 24.4913
35.3842 24.3454
35.5716 24.1329
35.759 23.7906
35.9468 23.3885
36.1345 23.2686
36.3222 22.9879
36.5101 22.7503
36.6981 22.4177
36.8861 22.1204
37.0743 21.7937
37.2626 21.5593
37.451 21.3577
37.6395 21.1445
37.8281 20.7857
38.0168 20.5003
38.2056 20.1755
38.3945 19.9237
38.5837 19.7415
38.7728 19.5308
38.9621 19.2202
39.1514 18.8927
39.3409 18.7387
39.5304 18.4937
39.7201 18.3115
39.9099 18.0697
40.0999 17.8419
40.2899 17.6036
40.48 17.3497
40.6703 17.1498
40.8607 17.0345
41.0512 16.7875
41.242 16.4974
41.4327 16.2825
41.6236 16.0413
41.8146 15.9165
42.0057 15.6268
42.1969 15.3874
42.3882 15.2276
42.5797 14.9982
42.7713 14.8066
42.963 14.6226
43.1549 14.4007
43.3468 14.1801
43.5389 14.0159
43.7312 13.8431
43.9237 13.6213
44.1162 13.4792
44.3088 13.3025
44.5016 13.0546
44.6945 12.9277
44.8875 12.7162
45.0806 12.5279
45.2739 12.3471
45.4673 12.1993
45.6609 11.9732
45.8546 11.8471
46.0484 11.6691
46.2424 11.5019
46.4365 11.3345
46.631 11.2024
46.8254 10.9734
47.0199 10.8519
47.2146 10.6683
47.4095 10.5159
47.6044 10.3549
47.7996 10.2001
47.9948 10.0799
48.1902 9.95062
48.3858 9.77866
48.5815 9.67304
48.7774 9.50067
48.9734 9.38899
49.1696 9.21288
49.3661 9.08171
49.5626 8.8996
49.7592 8.7858
49.956 8.6964
50.153 8.55673
50.3501 8.39807
50.5474 8.2907
50.7448 8.16459
50.9424 7.99939
51.1402 7.91635
51.3381 7.7815
51.5362 7.64604
51.7344 7.53919
51.9328 7.40404
52.1316 7.28448
52.3304 7.1364
52.5293 7.04983
52.7284 6.9366
52.9276 6.80737
53.1271 6.69039
53.3267 6.58902
53.5265 6.49227
53.7264 6.32982
53.9266 6.23557
54.1269 6.13793
54.3274 6.03197
54.528 5.88493
54.7289 5.75553
54.9301 5.54851
55.1314 5.39808
55.3328 5.19193
55.5344 5.08356
55.7361 4.8853

File: Ni3Fe_FD0484.xy
TT I
1.27165 7.38943
1.45013 6.6767
1.62863 5.32008
1.80712 5.15414
1.98562 5.0527
2.16411 4.33018
2.34263 5.15392
2.52115 6.27004
2.69965 6.93278
2.87818 7.9912
3.05672 11.1437
3.23527 14.9139
3.4138 18.8379
3.59237 23.0409
3.77094 25.9698
3.9495 29.6694
4.12809 34.5444
4.30669 106.958
4.4853 54.6777
4.6639 56.4605
4.84253 69.0882
5.02118 90.3178
5.19981 538.41
5.37848 208.084
5.55716 104.872
5.73586 95.1808
5.91455 99.2052
6.09328 4269.37
6.27201 83.2168
6.45075 69.7742
6.62952 63.179
6.8083 59.5293
6.98711 56.221
7.16591 56.5794
7.34475 68.9797
7.5236 54.7846
7.70247 56.7933
7.88135 58.3682
8.06026 63.6006
8.23919 70.6965
8.41812 86.2115
8.59709 1240.84
8.77609 101.629
8.9551 90.2774
9.13412 84.0483
9.31318 85.2357
9.49226 86.133
9.67134 96.1904
9.85047 102.924
10.0296 412.751
10.2088 403.821
10.388 108.708
10.5672 498.473
10.7465 87.7337
10.9257 79.0915
11.105 72.6811
11.2844 69.6007
11.4637 65.5248
11.6431 64.2567
11.8225 63.4357
12.002 65.6883
12.1814 156.112
12.3609 68.1924
12.5405 65.7529
12.72 68.9269
12.8996 72.7254
13.0792 82.2355
13.2589 253.032
13.4386 125.398
13.6183 254.169
13.7981 97.6905
13.9779 76.9119
14.1577 73.3056
14.3376 71.4651
14.5175 69.8656
14.6974 71.627
14.8774 118.812
15.0574 149.038
15.2374 70.8252
15.4175 67.4343
15.5976 67.1323
15.7778 101.318
15.958 154.001
16.1382 62.5596
16.3185 58.7754
16.4988 56.1028
16.6792 55.3611
16.8596 55.9157
17.04 57.1528
17.2205 68.6143
17.401 71.4157
17.5815 60.2487
17.7622 62.346
17.9428 76.96
18.1237 141.126
18.3044 92.1567
18.4852 77.8298
18.666 61.1417
18.8469 58.8676
19.0278 57.8433
19.2088 60.7343
19.3898 76.3123
19.5709 54.9604
19.752 54.2807
19.9332 57.5353
20.1144 70.6449
20.2957 64.3099
20.477 53.9216
20.6586 50.2751
20.84 49.4864
21.0215 49.411
21.203 51.5089
21.3846 49.502
21.5662 50.003
21.7479 54.0475
21.9297 65.4226
22.1115 56.3838
22.2933 50.4712
22.4753 49.4355
22.6572 49.7496
22.8393 53.0758
23.0214 58.0001
23.2037 49.6794
23.3859 50.7788
23.5682 57.2447
23.7505 48.6596
23.9329 45.9005
24.1154 44.6382
24.2979 43.8193
24.4805 43.4249
24.6631 43.4842
24.8458 42.9669
25.0286 43.6494
25.2114 45.3746
25.3943 45.3511
25.5773 41.4795
25.7605 41.121
25.9436 41.4576
26.1268 42.3432
26.31 40.8371
26.4933 41.3439
26.6767 42.8527
26.8601 40.8517
27.0437 39.4294
27.2272 39.1227
27.4109 38.9672
27.5946 38.9155
27.7784 38.5601
27.9623 39.0746
28.1462 39.4016
28.3304 37.5484
28.5145 36.3316
28.6987 36.1341
28.8829 35.9076
29.0673 35.1725
29.2517 34.8368
29.4361 34.6224
29.6207 33.4994
29.8053 33.3436
29.99 33.1331
30.1748 32.9077
30.3597 32.6314
30.5447 32.6028
30.7297 32.6581
30.915 32.0253
31.1002 31.6317
31.2855 31.4038
31.4708 31.2654
31.6563 30.727
31.8418 30.6213
32.0275 30.2641
32.2132 29.859
32.399 29.4047
32.5848 28.9042
32.7708 28.5882
32.9569 28.4377
33.143 28.2305
33.3293 27.7679
33.5158 27.4512
33.7022 26.9882
33.8887 26.7085
34.0753 26.3959
34.262 26.0567
34.4488 25.6143
34.6357 25.2795
34.8227 24.968
35.0098 24.8882
35.1969 24.5623
35.3842 24.3375
35.5716 24.0887
35.759 23.8766
35.9468 23.4235
36.1345 23.2021
36.3222 22.9534
36.5101 22.7446
36.6981 22.4487
36.8861 22.0674
37.0743 21.7423
37.2626 21.5634
37.451 21.2596
37.6395 21.1304
37.8281 20.7327
38.0168 20.4665
38.2056 20.1991
38.3945 20.0124
38.5837 19.7099
38.7728 19.4857
38.9621 19.1535
39.1514 18.9201
39.3409 18.7265
39.5304 18.4339
39.7201 18.3516
39.9099 18.1133
40.0999 17.8032
40.2899 17.6552
40.48 17.3176
40.6703 17.1342
40.8607 16.9247
41.0512 16.7317
41.242 16.4425
41.4327 16.2988
41.6236 16.0628
41.8146 15.8554
42.0057 15.6358
42.1969 15.4208
42.3882 15.2224
42.5797 15.0407
42.7713 14.8176
42.963 14.6251
43.1549 14.3945
43.3468 14.1492
43.5389 13.9994
43.7312 13.7881
43.9237 13.6537
44.1162 13.4389
44.3088 13.2662
44.5016 13.0644
44.6945 12.8826
44.8875 12.7267
45.0806 12.4824
45.2739 12.3431
45.4673 12.2016
45.6609 11.9562
45.8546 11.8605
46.0484 11.6607
46.2424 11.505
46.4365 11.3367
46.631 11.1436
46.8254 10.9359
47.0199 10.8444
47.2146 10.6807
47.4095 10.5199
47.6044 10.3707
47.7996 10.2034
47.9948 10.079
48.1902 9.89802
48.3858 9.78003
48.5815 9.6056
48.7774 9.47159
48.9734 9.35346
49.1696 9.23795
49.3661 9.07921
49.5626 8.91671
49.7592 8.75105
49.956 8.67209
50.153 8.52492
50.3501 8.38049
50.5474 8.25542
50.7448 8.13957
50.9424 8.0364
51.1402 7.86048
51.3381 7.74124
51.5362 7.66074
51.7344 7.50238
51.9328 7.39188
52.1316 7.23459
52.3304 7.16179
52.5293 7.02053
52.7284 6.9264
52.9276 6.80997
53.1271 6.707
53.3267 6.59148
53.5265 6.4491
53.7264 6.39475
53.9266 6.22779
54.1269 6.11062
54.3274 5.99867
54.528 5.87325
54.7289 5.72783
54.9301 5.57812
55.1314 5.42589
55.3328 5.21007
55.5344 5.03054
55.7361 4.93466