Folder: NiFe_MOF_catalyst_paper/XRD (part 125)

File: Ni3Fe_FD0675.xy
TT I
1.27165 7.4615
1.45013 6.57074
1.62863 4.89174
1.80712 4.54976
1.98562 5.06083
2.16411 5.23849
2.34263 5.73778
2.52115 6.71923
2.69965 8.51835
2.87818 8.50082
3.05672 10.7772
3.23527 14.9364
3.4138 19.0074
3.59237 23.4438
3.77094 26.2298
3.9495 29.6532
4.12809 33.9146
4.30669 155.303
4.4853 58.7936
4.6639 55.5525
4.84253 68.0335
5.02118 87.7418
5.19981 391.819
5.37848 182.95
5.55716 101.728
5.73586 92.6594
5.91455 95.5909
6.09328 4548.32
6.27201 81.7499
6.45075 67.3655
6.62952 62.0708
6.8083 58.1948
6.98711 55.4718
7.16591 55.0212
7.34475 78.7747
7.5236 54.3508
7.70247 55.9524
7.88135 57.592
8.06026 62.1873
8.23919 69.3873
8.41812 84.7759
8.59709 1227.35
8.77609 98.6089
8.9551 89.5834
9.13412 81.9356
9.31318 82.8474
9.49226 84.7723
9.67134 95.4456
9.85047 100.391
10.0296 362.07
10.2088 370.825
10.388 104.649
10.5672 514.092
10.7465 86.2442
10.9257 77.6678
11.105 71.2139
11.2844 69.2128
11.4637 64.8507
11.6431 63.2778
11.8225 62.4443
12.002 63.7547
12.1814 153.885
12.3609 68.5581
12.5405 64.366
12.72 68.8365
12.8996 71.1104
13.0792 79.5168
13.2589 247.234
13.4386 120.466
13.6183 255.11
13.7981 93.4856
13.9779 75.6157
14.1577 72.0004
14.3376 70.6631
14.5175 68.5692
14.6974 70.379
14.8774 112.578
15.0574 141.028
15.2374 69.7812
15.4175 66.403
15.5976 65.7753
15.7778 96.3243
15.958 151.585
16.1382 61.9534
16.3185 57.985
16.4988 55.3868
16.6792 54.4266
16.8596 54.99
17.04 55.7855
17.2205 67.0649
17.401 69.8771
17.5815 59.0155
17.7622 61.126
17.9428 74.2667
18.1237 142.447
18.3044 91.1063
18.4852 75.529
18.666 60.2239
18.8469 57.857
19.0278 56.5451
19.2088 59.4533
19.3898 76.4463
19.5709 54.0114
19.752 53.1926
19.9332 56.2506
20.1144 69.8249
20.2957 64.257
20.477 52.9132
20.6586 49.6097
20.84 48.7376
21.0215 48.5353
21.203 50.907
21.3846 48.5757
21.5662 48.8379
21.7479 52.8365
21.9297 64.9057
22.1115 56.14
22.2933 49.5894
22.4753 48.5712
22.6572 48.9004
22.8393 52.258
23.0214 57.1923
23.2037 48.5846
23.3859 49.6903
23.5682 57.2056
23.7505 47.9223
23.9329 44.9896
24.1154 44.0977
24.2979 43.3201
24.4805 42.9468
24.6631 42.6411
24.8458 42.2142
25.0286 42.8963
25.2114 44.628
25.3943 44.4957
25.5773 40.8076
25.7605 40.3746
25.9436 40.715
26.1268 41.6182
26.31 39.9723
26.4933 40.5692
26.6767 42.0667
26.8601 40.3713
27.0437 38.7987
27.2272 38.4873
27.4109 38.3956
27.5946 38.2726
27.7784 37.7681
27.9623 38.487
28.1462 38.6937
28.3304 36.9173
28.5145 35.9017
28.6987 35.5957
28.8829 35.2705
29.0673 34.5652
29.2517 34.2258
29.4361 34.0974
29.6207 33.1349
29.8053 32.7998
29.99 32.5116
30.1748 32.4816
30.3597 32.1816
30.5447 32.1437
30.7297 32.1602
30.915 31.5918
31.1002 31.1058
31.2855 30.7906
31.4708 30.7966
31.6563 30.3453
31.8418 30.1251
32.0275 29.8504
32.2132 29.3063
32.399 28.8743
32.5848 28.4178
32.7708 28.093
32.9569 27.9407
33.143 27.8862
33.3293 27.3845
33.5158 26.9249
33.7022 26.5282
33.8887 26.3041
34.0753 25.9581
34.262 25.5858
34.4488 25.3125
34.6357 24.959
34.8227 24.6997
35.0098 24.3951
35.1969 24.2167
35.3842 23.8837
35.5716 23.6934
35.759 23.3923
35.9468 23.1094
36.1345 22.8235
36.3222 22.6461
36.5101 22.3347
36.6981 22.0962
36.8861 21.7707
37.0743 21.4996
37.2626 21.2213
37.451 20.9588
37.6395 20.8111
37.8281 20.4911
38.0168 20.1415
38.2056 19.9409
38.3945 19.6182
38.5837 19.4828
38.7728 19.1847
38.9621 18.8599
39.1514 18.6634
39.3409 18.414
39.5304 18.1831
39.7201 18.0325
39.9099 17.8583
40.0999 17.5981
40.2899 17.3382
40.48 17.0333
40.6703 16.9546
40.8607 16.7168
41.0512 16.4971
41.242 16.2033
41.4327 16.039
41.6236 15.7977
41.8146 15.5751
42.0057 15.3822
42.1969 15.1776
42.3882 15.0319
42.5797 14.8104
42.7713 14.6197
42.963 14.3921
43.1549 14.2001
43.3468 13.9745
43.5389 13.8705
43.7312 13.6267
43.9237 13.4599
44.1162 13.2726
44.3088 13.0874
44.5016 12.8344
44.6945 12.6799
44.8875 12.5279
45.0806 12.3363
45.2739 12.1414
45.4673 12.0187
45.6609 11.8278
45.8546 11.6396
46.0484 11.4941
46.2424 11.332
46.4365 11.1844
46.631 11.0002
46.8254 10.8716
47.0199 10.6664
47.2146 10.5572
47.4095 10.3873
47.6044 10.2128
47.7996 10.0651
47.9948 9.9263
48.1902 9.74673
48.3858 9.66665
48.5815 9.48309
48.7774 9.35671
48.9734 9.21205
49.1696 9.07372
49.3661 8.96095
49.5626 8.77542
49.7592 8.68392
49.956 8.53503
50.153 8.43244
50.3501 8.32097
50.5474 8.15618
50.7448 8.0158
50.9424 7.89825
51.1402 7.76281
51.3381 7.63495
51.5362 7.50731
51.7344 7.38961
51.9328 7.30932
52.1316 7.17523
52.3304 7.03271
52.5293 6.92301
52.7284 6.79588
52.9276 6.71068
53.1271 6.66356
53.3267 6.44991
53.5265 6.41863
53.7264 6.27783
53.9266 6.12041
54.1269 6.0591
54.3274 5.96456
54.528 5.8169
54.7289 5.60865
54.9301 5.44054
55.1314 5.34933
55.3328 5.13187
55.5344 4.93645
55.7361 4.83023

File: Ni3Fe_FD0676.xy
TT I
1.27165 7.30635
1.45013 6.07938
1.62863 4.61701
1.80712 4.77169
1.98562 4.60993
2.16411 4.36834
2.34263 4.86113
2.52115 6.90687
2.69965 7.49963
2.87818 8.86199
3.05672 11.0876
3.23527 14.8855
3.4138 18.9827
3.59237 23.672
3.77094 25.9574
3.9495 29.2648
4.12809 34.0865
4.30669 151.962
4.4853 58.7967
4.6639 55.7315
4.84253 67.6659
5.02118 87.7765
5.19981 395.961
5.37848 183.774
5.55716 102.032
5.73586 92.7958
5.91455 95.366
6.09328 4562.32
6.27201 81.7281
6.45075 67.3529
6.62952 62.3447
6.8083 58.3371
6.98711 55.4142
7.16591 55.3803
7.34475 78.2216
7.5236 54.6033
7.70247 56.017
7.88135 57.5713
8.06026 62.5747
8.23919 69.6759
8.41812 84.8013
8.59709 1237.69
8.77609 98.2126
8.9551 89.4935
9.13412 82.0562
9.31318 82.9534
9.49226 84.8256
9.67134 95.8805
9.85047 100.489
10.0296 363.783
10.2088 367.083
10.388 104.587
10.5672 511.758
10.7465 85.7764
10.9257 78.0057
11.105 71.6413
11.2844 69.0493
11.4637 64.5911
11.6431 63.2531
11.8225 62.4916
12.002 63.8344
12.1814 154.218
12.3609 68.3503
12.5405 64.5908
12.72 68.8538
12.8996 70.9416
13.0792 79.5259
13.2589 248.261
13.4386 120.249
13.6183 255.08
13.7981 93.3973
13.9779 75.6075
14.1577 72.2032
14.3376 70.9807
14.5175 68.8863
14.6974 70.5554
14.8774 112.943
15.0574 140.442
15.2374 70.0765
15.4175 66.488
15.5976 65.842
15.7778 96.9101
15.958 151.135
16.1382 61.7283
16.3185 58.1987
16.4988 55.3262
16.6792 54.2374
16.8596 55.0916
17.04 56.0016
17.2205 67.1953
17.401 69.6393
17.5815 59.3877
17.7622 61.3204
17.9428 74.2932
18.1237 142.629
18.3044 91.2767
18.4852 75.2713
18.666 60.2274
18.8469 57.93
19.0278 56.8134
19.2088 59.5057
19.3898 76.4148
19.5709 53.9497
19.752 53.3074
19.9332 56.2741
20.1144 70.0539
20.2957 64.0328
20.477 53.1038
20.6586 49.6195
20.84 48.6929
21.0215 48.6658
21.203 51.0653
21.3846 48.8691
21.5662 48.976
21.7479 52.8441
21.9297 64.8054
22.1115 56.0705
22.2933 49.6346
22.4753 48.5438
22.6572 48.8496
22.8393 52.3037
23.0214 57.0654
23.2037 48.5958
23.3859 49.6858
23.5682 57.1997
23.7505 47.9447
23.9329 45.0831
24.1154 44.1121
24.2979 43.3582
24.4805 42.8947
24.6631 42.5739
24.8458 42.1905
25.0286 42.8336
25.2114 44.6798
25.3943 44.5053
25.5773 40.814
25.7605 40.2974
25.9436 40.7904
26.1268 41.6246
26.31 40.0622
26.4933 40.7106
26.6767 42.0545
26.8601 40.4411
27.0437 38.6705
27.2272 38.5126
27.4109 38.3219
27.5946 38.416
27.7784 37.8912
27.9623 38.4099
28.1462 38.7848
28.3304 37.0966
28.5145 35.936
28.6987 35.5251
28.8829 35.3895
29.0673 34.5958
29.2517 34.3171
29.4361 34.1919
29.6207 33.0784
29.8053 32.7571
29.99 32.5903
30.1748 32.4123
30.3597 32.2111
30.5447 32.1488
30.7297 32.1713
30.915 31.5777
31.1002 31.1268
31.2855 30.8305
31.4708 30.7978
31.6563 30.3021
31.8418 30.0869
32.0275 29.8804
32.2132 29.3199
32.399 28.8616
32.5848 28.4659
32.7708 28.0757
32.9569 27.9304
33.143 27.7464
33.3293 27.3117
33.5158 27.0488
33.7022 26.4822
33.8887 26.3396
34.0753 25.9602
34.262 25.6205
34.4488 25.2949
34.6357 24.9414
34.8227 24.6615
35.0098 24.4815
35.1969 24.1554
35.3842 24.0004
35.5716 23.7044
35.759 23.3463
35.9468 23.0399
36.1345 22.8355
36.3222 22.5943
36.5101 22.3934
36.6981 22.031
36.8861 21.7491
37.0743 21.474
37.2626 21.2692
37.451 20.9822
37.6395 20.8002
37.8281 20.468
38.0168 20.2053
38.2056 19.9328
38.3945 19.6328
38.5837 19.3695
38.7728 19.1903
38.9621 18.9524
39.1514 18.6948
39.3409 18.402
39.5304 18.2316
39.7201 17.9768
39.9099 17.7855
40.0999 17.5345
40.2899 17.3009
40.48 17.0755
40.6703 16.8911
40.8607 16.6615
41.0512 16.4161
41.242 16.1866
41.4327 15.9674
41.6236 15.8131
41.8146 15.6107
42.0057 15.38
42.1969 15.1364
42.3882 14.9672
42.5797 14.8235
42.7713 14.6187
42.963 14.3871
43.1549 14.1636
43.3468 14.0139
43.5389 13.8033
43.7312 13.597
43.9237 13.4396
44.1162 13.2892
44.3088 13.0779
44.5016 12.8826
44.6945 12.723
44.8875 12.5009
45.0806 12.38
45.2739 12.1715
45.4673 12.0244
45.6609 11.8163
45.8546 11.6685
46.0484 11.4897
46.2424 11.382
46.4365 11.1892
46.631 11.0088
46.8254 10.8623
47.0199 10.6498
47.2146 10.5593
47.4095 10.3884
47.6044 10.1967
47.7996 10.049
47.9948 9.93717
48.1902 9.76617
48.3858 9.61881
48.5815 9.49334
48.7774 9.37537
48.9734 9.18814
49.1696 9.08458
49.3661 8.92998
49.5626 8.77997
49.7592 8.68092
49.956 8.5547
50.153 8.40932
50.3501 8.25315
50.5474 8.13328
50.7448 8.05498
50.9424 7.89236
51.1402 7.79504
51.3381 7.58632
51.5362 7.53653
51.7344 7.39157
51.9328 7.27338
52.1316 7.18383
52.3304 7.06174
52.5293 6.94096
52.7284 6.81623
52.9276 6.70591
53.1271 6.55231
53.3267 6.46018
53.5265 6.3939
53.7264 6.25544
53.9266 6.1714
54.1269 6.03374
54.3274 5.95018
54.528 5.79856
54.7289 5.59776
54.9301 5.44942
55.1314 5.36388
55.3328 5.16356
55.5344 4.93885
55.7361 4.83444

File: Ni3Fe_FD0677.xy
TT I
1.27165 7.45842
1.45013 5.44956
1.62863 5.09176
1.80712 4.95589
1.98562 5.11128
2.16411 4.92476
2.34263 5.42877
2.52115 6.77562
2.69965 7.85881
2.87818 8.739
3.05672 11.1084
3.23527 14.995
3.4138 18.7408
3.59237 23.2974
3.77094 26.0419
3.9495 29.794
4.12809 34.9549
4.30669 149.651
4.4853 58.2223
4.6639 55.6753
4.84253 68.0645
5.02118 87.6069
5.19981 400.605
5.37848 184.202
5.55716 102.175
5.73586 92.8081
5.91455 95.3507
6.09328 4523.56
6.27201 81.5236
6.45075 67.6068
6.62952 62.6633
6.8083 58.3922
6.98711 55.6638
7.16591 55.2306
7.34475 77.4133
7.5236 54.815
7.70247 56.048
7.88135 57.6778
8.06026 62.5356
8.23919 69.5941
8.41812 85.3649
8.59709 1226.78
8.77609 98.1719
8.9551 89.7786
9.13412 82.2419
9.31318 82.8195
9.49226 84.7368
9.67134 95.9037
9.85047 100.339
10.0296 365.741
10.2088 366.764
10.388 104.832
10.5672 511.255
10.7465 86.3374
10.9257 77.788
11.105 71.6092
11.2844 69.4311
11.4637 64.7228
11.6431 63.5125
11.8225 62.5175
12.002 64.2382
12.1814 155.544
12.3609 68.3432
12.5405 64.4076
12.72 68.7163
12.8996 71.2093
13.0792 79.8584
13.2589 249.064
13.4386 119.918
13.6183 255.654
13.7981 93.0937
13.9779 75.7216
14.1577 72.0124
14.3376 70.8669
14.5175 68.8896
14.6974 70.5542
14.8774 113.22
15.0574 139.59
15.2374 70.0107
15.4175 66.353
15.5976 65.9672
15.7778 96.8036
15.958 150.144
16.1382 61.8476
16.3185 58.3281
16.4988 55.2996
16.6792 54.3554
16.8596 55.0775
17.04 55.8591
17.2205 67.3137
17.401 69.5202
17.5815 59.2746
17.7622 61.2502
17.9428 74.0542
18.1237 142.672
18.3044 91.2468
18.4852 75.3363
18.666 60.1083
18.8469 57.9049
19.0278 56.8589
19.2088 59.474
19.3898 76.3862
19.5709 54.1288
19.752 53.2563
19.9332 56.3181
20.1144 69.9361
20.2957 64.195
20.477 52.9531
20.6586 49.4941
20.84 48.9097
21.0215 48.6167
21.203 50.8411
21.3846 48.52
21.5662 48.7282
21.7479 52.7744
21.9297 64.6726
22.1115 56.188
22.2933 49.5771
22.4753 48.7838
22.6572 48.9206
22.8393 52.1156
23.0214 56.9633
23.2037 48.7495
23.3859 49.7859
23.5682 57.2736
23.7505 47.6854
23.9329 45.1103
24.1154 44.1024
24.2979 43.2767
24.4805 42.8798
24.6631 42.6228
24.8458 42.16
25.0286 42.7238
25.2114 44.636
25.3943 44.4804
25.5773 40.8755
25.7605 40.4133
25.9436 40.7476
26.1268 41.6866
26.31 40.0451
26.4933 40.6688
26.6767 42.0354
26.8601 40.4038
27.0437 38.8511
27.2272 38.3997
27.4109 38.4485
27.5946 38.3379
27.7784 37.9565
27.9623 38.2773
28.1462 38.6326
28.3304 36.9716
28.5145 35.8111
28.6987 35.612
28.8829 35.2547
29.0673 34.5668
29.2517 34.2213
29.4361 34.1144
29.6207 33.1815
29.8053 32.8552
29.99 32.4757
30.1748 32.3948
30.3597 32.1912
30.5447 32.1449
30.7297 32.2035
30.915 31.5333
31.1002 31.1716
31.2855 30.8068
31.4708 30.8227
31.6563 30.2603
31.8418 30.0912
32.0275 29.8387
32.2132 29.2749
32.399 28.9157
32.5848 28.3947
32.7708 28.1585
32.9569 28.0032
33.143 27.8637
33.3293 27.315
33.5158 26.9934
33.7022 26.4795
33.8887 26.2246
34.0753 26.0358
34.262 25.6194
34.4488 25.2335
34.6357 24.8869
34.8227 24.6639
35.0098 24.4308
35.1969 24.1194
35.3842 24.0096
35.5716 23.7578
35.759 23.4713
35.9468 23.1286
36.1345 22.8888
36.3222 22.695
36.5101 22.393
36.6981 22.0859
36.8861 21.7927
37.0743 21.4501
37.2626 21.2712
37.451 20.957
37.6395 20.8725
37.8281 20.4729
38.0168 20.2334
38.2056 19.8912
38.3945 19.6083
38.5837 19.4983
38.7728 19.1329
38.9621 18.9189
39.1514 18.6905
39.3409 18.4349
39.5304 18.2059
39.7201 17.9654
39.9099 17.7757
40.0999 17.4899
40.2899 17.3285
40.48 17.1072
40.6703 16.8905
40.8607 16.6943
41.0512 16.4682
41.242 16.1945
41.4327 15.9973
41.6236 15.812
41.8146 15.5963
42.0057 15.3807
42.1969 15.1459
42.3882 15.0456
42.5797 14.8052
42.7713 14.5839
42.963 14.4075
43.1549 14.2015
43.3468 14.0132
43.5389 13.8251
43.7312 13.6134
43.9237 13.4555
44.1162 13.2316
44.3088 13.0686
44.5016 12.83
44.6945 12.7245
44.8875 12.5258
45.0806 12.316
45.2739 12.1756
45.4673 12.0393
45.6609 11.8627
45.8546 11.6767
46.0484 11.5151
46.2424 11.3347
46.4365 11.1957
46.631 11.0081
46.8254 10.8402
47.0199 10.6819
47.2146 10.5491
47.4095 10.3681
47.6044 10.2295
47.7996 10.0869
47.9948 9.90417
48.1902 9.78846
48.3858 9.62598
48.5815 9.51356
48.7774 9.39219
48.9734 9.21719
49.1696 9.11434
49.3661 8.92572
49.5626 8.79873
49.7592 8.66266
49.956 8.56543
50.153 8.42822
50.3501 8.24607
50.5474 8.15303
50.7448 8.04541
50.9424 7.91516
51.1402 7.78594
51.3381 7.69929
51.5362 7.51831
51.7344 7.40463
51.9328 7.2808
52.1316 7.11656
52.3304 7.04735
52.5293 6.92
52.7284 6.79899
52.9276 6.69952
53.1271 6.62634
53.3267 6.46864
53.5265 6.37825
53.7264 6.26645
53.9266 6.19718
54.1269 6.0336
54.3274 5.94666
54.528 5.78482
54.7289 5.61019
54.9301 5.47695
55.1314 5.34404
55.3328 5.14458
55.5344 4.96966
55.7361 4.80829

File: Ni3Fe_FD0678.xy
TT I
1.27165 7.35489
1.45013 6.2947
1.62863 4.96295
1.80712 4.78351
1.98562 4.49386
2.16411 4.65589
2.34263 5.07224
2.52115 7.30494
2.69965 7.57809
2.87818 8.16831
3.05672 11.3603
3.23527 15.2535
3.4138 18.9715
3.59237 23.196
3.77094 25.8002
3.9495 29.3091
4.12809 34.6236
4.30669 148.158
4.4853 57.9264
4.6639 55.5019
4.84253 67.3335
5.02118 87.3302
5.19981 399.315
5.37848 184.541
5.55716 101.978
5.73586 92.828
5.91455 95.1693
6.09328 4548.73
6.27201 81.5795
6.45075 67.2991
6.62952 62.265
6.8083 58.538
6.98711 55.7832
7.16591 55.2518
7.34475 77.0918
7.5236 54.5181
7.70247 56.0482
7.88135 57.3093
8.06026 62.1101
8.23919 69.8678
8.41812 85.2476
8.59709 1237.48
8.77609 98.2667
8.9551 89.3122
9.13412 82.3997
9.31318 82.9889
9.49226 84.3719
9.67134 95.7451
9.85047 100.485
10.0296 364.901
10.2088 367.298
10.388 104.914
10.5672 510.924
10.7465 86.4219
10.9257 77.6224
11.105 71.5501
11.2844 69.2217
11.4637 64.583
11.6431 63.2772
11.8225 62.3167
12.002 64.1306
12.1814 154.01
12.3609 68.1719
12.5405 64.3799
12.72 68.612
12.8996 70.8428
13.0792 79.6352
13.2589 248.653
13.4386 120.28
13.6183 255.127
13.7981 93.2905
13.9779 75.7322
14.1577 72.1999
14.3376 70.7601
14.5175 68.6457
14.6974 70.5668
14.8774 113.273
15.0574 140.691
15.2374 70.016
15.4175 66.4769
15.5976 66.0225
15.7778 96.5657
15.958 150.961
16.1382 61.9426
16.3185 58.0309
16.4988 55.3975
16.6792 54.1838
16.8596 54.9038
17.04 55.8321
17.2205 67.3727
17.401 69.883
17.5815 59.2219
17.7622 61.2856
17.9428 74.4719
18.1237 142.595
18.3044 91.3637
18.4852 75.5907
18.666 60.3206
18.8469 57.7959
19.0278 56.8158
19.2088 59.4896
19.3898 76.2706
19.5709 54.0529
19.752 53.2495
19.9332 56.3168
20.1144 69.8705
20.2957 64.1247
20.477 52.9477
20.6586 49.5253
20.84 48.8782
21.0215 48.6206
21.203 50.9845
21.3846 48.7969
21.5662 48.9482
21.7479 52.9366
21.9297 64.7258
22.1115 56.091
22.2933 49.6326
22.4753 48.721
22.6572 48.8093
22.8393 52.1664
23.0214 57.1656
23.2037 48.702
23.3859 49.8363
23.5682 57.2472
23.7505 47.7813
23.9329 45.232
24.1154 44.0402
24.2979 43.4801
24.4805 42.9186
24.6631 42.7062
24.8458 42.2897
25.0286 42.9911
25.2114 44.6654
25.3943 44.4571
25.5773 40.8036
25.7605 40.3763
25.9436 40.8054
26.1268 41.6854
26.31 39.9749
26.4933 40.839
26.6767 42.1781
26.8601 40.4109
27.0437 38.8052
27.2272 38.5331
27.4109 38.2645
27.5946 38.2947
27.7784 37.9682
27.9623 38.5086
28.1462 38.7419
28.3304 36.9591
28.5145 35.8692
28.6987 35.5868
28.8829 35.3732
29.0673 34.6355
29.2517 34.3618
29.4361 34.0718
29.6207 33.1778
29.8053 32.8375
29.99 32.468
30.1748 32.3579
30.3597 32.1685
30.5447 32.2258
30.7297 32.2548
30.915 31.5422
31.1002 31.0581
31.2855 30.7975
31.4708 30.8424
31.6563 30.3939
31.8418 30.1399
32.0275 29.9615
32.2132 29.3755
32.399 28.9504
32.5848 28.512
32.7708 28.1378
32.9569 27.8972
33.143 27.7724
33.3293 27.3156
33.5158 26.9979
33.7022 26.5958
33.8887 26.2549
34.0753 25.9118
34.262 25.7293
34.4488 25.2114
34.6357 24.9407
34.8227 24.5902
35.0098 24.4687
35.1969 24.1643
35.3842 23.9419
35.5716 23.782
35.759 23.4896
35.9468 23.1159
36.1345 22.8724
36.3222 22.6356
36.5101 22.355
36.6981 22.1161
36.8861 21.7778
37.0743 21.3677
37.2626 21.1877
37.451 20.9354
37.6395 20.7962
37.8281 20.4034
38.0168 20.2208
38.2056 19.929
38.3945 19.6132
38.5837 19.4185
38.7728 19.2355
38.9621 18.8642
39.1514 18.6238
39.3409 18.4704
39.5304 18.1789
39.7201 17.9842
39.9099 17.8096
40.0999 17.5763
40.2899 17.2996
40.48 17.0908
40.6703 16.8921
40.8607 16.6975
41.0512 16.5759
41.242 16.2694
41.4327 16.0297
41.6236 15.831
41.8146 15.5955
42.0057 15.4453
42.1969 15.149
42.3882 15.0074
42.5797 14.7657
42.7713 14.6375
42.963 14.4495
43.1549 14.2285
43.3468 14.0476
43.5389 13.7809
43.7312 13.6445
43.9237 13.4182
44.1162 13.272
44.3088 13.0754
44.5016 12.865
44.6945 12.702
44.8875 12.5749
45.0806 12.3743
45.2739 12.1912
45.4673 11.9571
45.6609 11.808
45.8546 11.6898
46.0484 11.5155
46.2424 11.3381
46.4365 11.1565
46.631 11.0056
46.8254 10.8451
47.0199 10.6676
47.2146 10.5083
47.4095 10.3455
47.6044 10.2269
47.7996 10.0357
47.9948 9.96245
48.1902 9.77391
48.3858 9.65479
48.5815 9.52969
48.7774 9.34004
48.9734 9.21088
49.1696 9.09114
49.3661 8.95087
49.5626 8.77769
49.7592 8.70369
49.956 8.54922
50.153 8.43478
50.3501 8.30205
50.5474 8.17424
50.7448 8.02406
50.9424 7.94811
51.1402 7.77375
51.3381 7.69367
51.5362 7.51932
51.7344 7.41381
51.9328 7.29852
52.1316 7.15385
52.3304 7.06368
52.5293 6.93066
52.7284 6.83969
52.9276 6.72819
53.1271 6.58368
53.3267 6.53433
53.5265 6.37733
53.7264 6.26407
53.9266 6.15569
54.1269 6.05266
54.3274 5.90692
54.528 5.79498
54.7289 5.65363
54.9301 5.48078
55.1314 5.35623
55.3328 5.15668
55.5344 4.96568
55.7361 4.79796

File: Ni3Fe_FD0679.xy
TT I
1.27165 7.27699
1.45013 6.17462
1.62863 5.22471
1.80712 5.09179
1.98562 4.97232
2.16411 4.67782
2.34263 5.85099
2.52115 6.48343
2.69965 8.36115
2.87818 8.92484
3.05672 11.0206
3.23527 14.9208
3.4138 18.595
3.59237 23.2395
3.77094 25.8805
3.9495 29.6393
4.12809 34.1486
4.30669 145.32
4.4853 57.5906
4.6639 55.5072
4.84253 67.8886
5.02118 88.0199
5.19981 402.514
5.37848 185.031
5.55716 102.405
5.73586 92.7771
5.91455 95.1764
6.09328 4523.86
6.27201 81.6345
6.45075 67.4988
6.62952 62.3356
6.8083 58.4704
6.98711 55.7039
7.16591 55.3062
7.34475 76.5427
7.5236 54.5833
7.70247 55.7746
7.88135 57.7432
8.06026 62.3851
8.23919 69.4693
8.41812 84.5768
8.59709 1227.54
8.77609 98.346
8.9551 89.7866
9.13412 81.9013
9.31318 83.4637
9.49226 84.4775
9.67134 95.8088
9.85047 100.352
10.0296 365.257
10.2088 365.43
10.388 104.511
10.5672 512.023
10.7465 86.1402
10.9257 77.6828
11.105 71.4895
11.2844 69.1196
11.4637 64.6454
11.6431 63.361
11.8225 62.4504
12.002 63.779
12.1814 155.59
12.3609 68.1934
12.5405 64.4983
12.72 68.61
12.8996 70.842
13.0792 79.8134
13.2589 249.201
13.4386 120.313
13.6183 255.049
13.7981 93.4479
13.9779 75.7476
14.1577 71.9624
14.3376 70.9133
14.5175 68.6201
14.6974 70.4101
14.8774 113.109
15.0574 140.277
15.2374 70.101
15.4175 66.2403
15.5976 65.9716
15.7778 96.6117
15.958 150.36
16.1382 61.8559
16.3185 58.2098
16.4988 55.3821
16.6792 54.3025
16.8596 54.9558
17.04 55.7479
17.2205 67.2965
17.401 69.7735
17.5815 59.1094
17.7622 61.4278
17.9428 74.2424
18.1237 142.739
18.3044 91.5222
18.4852 75.3903
18.666 60.3761
18.8469 57.8772
19.0278 56.8565
19.2088 59.4138
19.3898 76.3504
19.5709 53.9071
19.752 53.4349
19.9332 56.2055
20.1144 69.896
20.2957 64.0351
20.477 53.0535
20.6586 49.5895
20.84 48.7847
21.0215 48.643
21.203 50.8562
21.3846 48.7666
21.5662 49.0869
21.7479 52.8228
21.9297 64.5173
22.1115 56.0962
22.2933 49.5437
22.4753 48.8103
22.6572 48.8203
22.8393 52.001
23.0214 57.1132
23.2037 48.711
23.3859 49.8965
23.5682 57.3047
23.7505 47.9237
23.9329 45.0966
24.1154 44.1167
24.2979 43.2648
24.4805 42.7841
24.6631 42.7028
24.8458 42.1575
25.0286 42.8925
25.2114 44.6036
25.3943 44.4034
25.5773 40.7743
25.7605 40.298
25.9436 40.7145
26.1268 41.6491
26.31 39.9681
26.4933 40.8272
26.6767 42.1112
26.8601 40.4472
27.0437 38.8233
27.2272 38.498
27.4109 38.4188
27.5946 38.2917
27.7784 37.8645
27.9623 38.4516
28.1462 38.7313
28.3304 37.0714
28.5145 35.8631
28.6987 35.4823
28.8829 35.4258
29.0673 34.6801
29.2517 34.3762
29.4361 34.067
29.6207 33.2262
29.8053 32.922
29.99 32.6051
30.1748 32.3707
30.3597 32.1428
30.5447 32.1217
30.7297 32.1342
30.915 31.5833
31.1002 31.0084
31.2855 30.8328
31.4708 30.8667
31.6563 30.3527
31.8418 30.1519
32.0275 29.956
32.2132 29.4448
32.399 28.9034
32.5848 28.4228
32.7708 28.0827
32.9569 27.9608
33.143 27.8046
33.3293 27.3491
33.5158 27.0029
33.7022 26.521
33.8887 26.3149
34.0753 25.9518
34.262 25.5628
34.4488 25.2344
34.6357 24.8885
34.8227 24.6162
35.0098 24.5364
35.1969 24.1414
35.3842 24.0168
35.5716 23.7661
35.759 23.5591
35.9468 23.0701
36.1345 22.8768
36.3222 22.6038
36.5101 22.3534
36.6981 22.065
36.8861 21.8324
37.0743 21.4668
37.2626 21.2308
37.451 20.9769
37.6395 20.8004
37.8281 20.4446
38.0168 20.1387
38.2056 19.9291
38.3945 19.6214
38.5837 19.3827
38.7728 19.1435
38.9621 18.8818
39.1514 18.6651
39.3409 18.3803
39.5304 18.2126
39.7201 18.0502
39.9099 17.7711
40.0999 17.5381
40.2899 17.3559
40.48 17.0876
40.6703 16.8248
40.8607 16.7141
41.0512 16.4327
41.242 16.2227
41.4327 16.053
41.6236 15.8003
41.8146 15.5988
42.0057 15.4303
42.1969 15.1751
42.3882 15.0289
42.5797 14.7498
42.7713 14.5953
42.963 14.4134
43.1549 14.1647
43.3468 13.9612
43.5389 13.7867
43.7312 13.5851
43.9237 13.4378
44.1162 13.2645
44.3088 13.0263
44.5016 12.8431
44.6945 12.7249
44.8875 12.5091
45.0806 12.3478
45.2739 12.2
45.4673 12.0457
45.6609 11.8196
45.8546 11.6984
46.0484 11.4932
46.2424 11.3362
46.4365 11.1926
46.631 11.0019
46.8254 10.8504
47.0199 10.687
47.2146 10.5349
47.4095 10.3574
47.6044 10.2068
47.7996 10.0546
47.9948 9.8952
48.1902 9.78318
48.3858 9.62425
48.5815 9.50319
48.7774 9.37513
48.9734 9.22058
49.1696 9.11742
49.3661 8.95094
49.5626 8.79008
49.7592 8.68868
49.956 8.55504
50.153 8.4136
50.3501 8.27229
50.5474 8.17143
50.7448 8.03367
50.9424 7.9092
51.1402 7.78734
51.3381 7.69814
51.5362 7.55887
51.7344 7.43102
51.9328 7.29939
52.1316 7.19054
52.3304 7.04948
52.5293 6.92587
52.7284 6.82939
52.9276 6.66846
53.1271 6.56502
53.3267 6.47497
53.5265 6.34904
53.7264 6.25402
53.9266 6.14355
54.1269 6.04088
54.3274 5.92164
54.528 5.8466
54.7289 5.63201
54.9301 5.44471
55.1314 5.34834
55.3328 5.09336
55.5344 4.99188
55.7361 4.86268