Folder: NiFe_MOF_catalyst_paper/XRD (part 97)

File: Ni3Fe_FD0523.xy
TT I
1.27165 7.96306
1.45013 6.50878
1.62863 5.5914
1.80712 4.83016
1.98562 4.71963
2.16411 5.19885
2.34263 4.94055
2.52115 7.31594
2.69965 7.86796
2.87818 8.71204
3.05672 11.1068
3.23527 15.0001
3.4138 19.0594
3.59237 24.5601
3.77094 26.6064
3.9495 30.4236
4.12809 35.4238
4.30669 256.508
4.4853 70.3065
4.6639 56.0347
4.84253 67.4476
5.02118 87.3285
5.19981 378.889
5.37848 204.93
5.55716 103.351
5.73586 93.3541
5.91455 95.6104
6.09328 4131.49
6.27201 85.4929
6.45075 68.268
6.62952 64.0789
6.8083 60.2357
6.98711 56.8589
7.16591 56.3149
7.34475 101.159
7.5236 55.7732
7.70247 57.0319
7.88135 58.5525
8.06026 62.9748
8.23919 70.3514
8.41812 86.6576
8.59709 1122.87
8.77609 102.449
8.9551 94.2511
9.13412 82.8864
9.31318 83.299
9.49226 85.4062
9.67134 101.335
9.85047 100.677
10.0296 342.533
10.2088 454.871
10.388 106.457
10.5672 494.859
10.7465 87.5831
10.9257 79.653
11.105 72.7562
11.2844 72.1092
11.4637 65.8557
11.6431 64.4632
11.8225 63.3982
12.002 64.4163
12.1814 149.052
12.3609 72.8663
12.5405 65.2272
12.72 71.6891
12.8996 71.544
13.0792 79.4836
13.2589 229.701
13.4386 131.57
13.6183 236.849
13.7981 103.052
13.9779 76.9435
14.1577 73.5021
14.3376 73.0768
14.5175 69.638
14.6974 71.3414
14.8774 109.483
15.0574 157.207
15.2374 72.4215
15.4175 67.1868
15.5976 66.4047
15.7778 94.5276
15.958 163.807
16.1382 64.3187
16.3185 59.7627
16.4988 56.3777
16.6792 55.1544
16.8596 56.0994
17.04 56.4432
17.2205 66.8965
17.401 72.8354
17.5815 59.9945
17.7622 62.1119
17.9428 74.0019
18.1237 138.049
18.3044 90.0197
18.4852 80.8667
18.666 61.2366
18.8469 58.5483
19.0278 57.841
19.2088 60.2455
19.3898 76.7496
19.5709 54.9805
19.752 53.9666
19.9332 56.8326
20.1144 70.324
20.2957 63.8448
20.477 54.8667
20.6586 50.2489
20.84 49.524
21.0215 49.1868
21.203 51.2605
21.3846 49.7574
21.5662 49.4474
21.7479 53.0927
21.9297 64.7601
22.1115 56.4296
22.2933 50.7282
22.4753 49.5318
22.6572 49.4372
22.8393 52.4291
23.0214 58.1745
23.2037 49.4599
23.3859 50.2565
23.5682 57.1128
23.7505 49.3163
23.9329 45.7632
24.1154 44.8189
24.2979 44.0657
24.4805 43.4845
24.6631 43.3455
24.8458 42.9263
25.0286 43.3969
25.2114 45.1712
25.3943 45.19
25.5773 41.4694
25.7605 41.0664
25.9436 41.46
26.1268 42.2085
26.31 40.601
26.4933 41.2441
26.6767 42.5474
26.8601 40.9985
27.0437 39.4032
27.2272 39.0761
27.4109 38.8162
27.5946 39.0787
27.7784 38.3517
27.9623 38.7757
28.1462 39.3908
28.3304 37.7178
28.5145 36.4283
28.6987 35.989
28.8829 35.8773
29.0673 35.1155
29.2517 34.8591
29.4361 34.6316
29.6207 33.5677
29.8053 33.3982
29.99 33.0038
30.1748 32.8573
30.3597 32.6515
30.5447 32.557
30.7297 32.5102
30.915 32.0247
31.1002 31.5873
31.2855 31.2392
31.4708 31.2808
31.6563 30.8903
31.8418 30.5676
32.0275 30.2415
32.2132 29.7443
32.399 29.2936
32.5848 28.9301
32.7708 28.5054
32.9569 28.3724
33.143 28.1476
33.3293 27.6822
33.5158 27.376
33.7022 26.8392
33.8887 26.6734
34.0753 26.3259
34.262 25.9933
34.4488 25.6431
34.6357 25.3295
34.8227 25.072
35.0098 24.7693
35.1969 24.5095
35.3842 24.3318
35.5716 24.1667
35.759 23.7449
35.9468 23.3713
36.1345 23.1504
36.3222 22.9075
36.5101 22.7491
36.6981 22.4653
36.8861 22.0885
37.0743 21.7327
37.2626 21.537
37.451 21.2221
37.6395 21.0402
37.8281 20.8068
38.0168 20.459
38.2056 20.2041
38.3945 19.9787
38.5837 19.6331
38.7728 19.4778
38.9621 19.2333
39.1514 18.9465
39.3409 18.7178
39.5304 18.4043
39.7201 18.3027
39.9099 18.0803
40.0999 17.825
40.2899 17.6029
40.48 17.2554
40.6703 17.1506
40.8607 16.9458
41.0512 16.7592
41.242 16.486
41.4327 16.3051
41.6236 16.0373
41.8146 15.8865
42.0057 15.5984
42.1969 15.427
42.3882 15.2472
42.5797 14.9959
42.7713 14.8119
42.963 14.6462
43.1549 14.4415
43.3468 14.174
43.5389 13.9525
43.7312 13.786
43.9237 13.65
44.1162 13.4598
44.3088 13.2261
44.5016 13.0462
44.6945 12.9282
44.8875 12.7233
45.0806 12.4574
45.2739 12.3664
45.4673 12.1456
45.6609 12.0181
45.8546 11.8401
46.0484 11.6629
46.2424 11.4891
46.4365 11.3496
46.631 11.1824
46.8254 11.0058
47.0199 10.8431
47.2146 10.6801
47.4095 10.5085
47.6044 10.3689
47.7996 10.2118
47.9948 10.0528
48.1902 9.934
48.3858 9.80307
48.5815 9.63968
48.7774 9.50818
48.9734 9.34477
49.1696 9.21165
49.3661 9.06259
49.5626 8.95543
49.7592 8.80268
49.956 8.72083
50.153 8.51348
50.3501 8.41159
50.5474 8.27063
50.7448 8.14371
50.9424 8.01743
51.1402 7.90949
51.3381 7.76215
51.5362 7.63105
51.7344 7.51661
51.9328 7.39459
52.1316 7.2661
52.3304 7.16339
52.5293 7.06864
52.7284 6.93435
52.9276 6.80763
53.1271 6.73908
53.3267 6.59627
53.5265 6.45643
53.7264 6.35662
53.9266 6.25187
54.1269 6.1176
54.3274 6.01182
54.528 5.88057
54.7289 5.67023
54.9301 5.57541
55.1314 5.39903
55.3328 5.19887
55.5344 5.02627
55.7361 4.88765

File: Ni3Fe_FD0526.xy
TT I
1.27165 7.51783
1.45013 6.58415
1.62863 5.40806
1.80712 5.69686
1.98562 5.65295
2.16411 5.27531
2.34263 4.56335
2.52115 6.83852
2.69965 7.53725
2.87818 8.46338
3.05672 11.3553
3.23527 15.285
3.4138 19.1036
3.59237 24.2952
3.77094 26.4679
3.9495 30.348
4.12809 35.5655
4.30669 265.807
4.4853 70.6991
4.6639 55.6812
4.84253 67.2435
5.02118 87.7124
5.19981 373.746
5.37848 206.011
5.55716 103.637
5.73586 93.2172
5.91455 94.9814
6.09328 4103.83
6.27201 85.0858
6.45075 68.2066
6.62952 64.02
6.8083 59.5378
6.98711 56.6092
7.16591 56.4859
7.34475 103.462
7.5236 55.1355
7.70247 56.8463
7.88135 58.3096
8.06026 62.6017
8.23919 70.005
8.41812 85.8934
8.59709 1096.28
8.77609 101.897
8.9551 93.8183
9.13412 82.1919
9.31318 82.966
9.49226 84.8966
9.67134 101.392
9.85047 100.842
10.0296 337.066
10.2088 465.476
10.388 106.058
10.5672 493.46
10.7465 87.7049
10.9257 79.5973
11.105 72.4217
11.2844 71.8063
11.4637 65.6002
11.6431 64.1696
11.8225 63.198
12.002 64.1252
12.1814 147.274
12.3609 73.4609
12.5405 65.1428
12.72 71.5571
12.8996 71.684
13.0792 79.2747
13.2589 226.023
13.4386 132.613
13.6183 235.359
13.7981 103.692
13.9779 76.447
14.1577 73.4737
14.3376 72.8354
14.5175 69.3874
14.6974 71.0152
14.8774 108.778
15.0574 159.046
15.2374 72.5125
15.4175 67.0266
15.5976 66.3725
15.7778 94.0234
15.958 165.123
16.1382 64.0505
16.3185 59.5672
16.4988 56.1952
16.6792 55.0251
16.8596 55.9507
17.04 56.0996
17.2205 66.6088
17.401 73.1402
17.5815 59.8287
17.7622 61.9387
17.9428 73.9668
18.1237 137.362
18.3044 89.6421
18.4852 80.9737
18.666 61.1686
18.8469 58.7166
19.0278 57.5156
19.2088 60.052
19.3898 76.7255
19.5709 54.9061
19.752 53.7352
19.9332 56.727
20.1144 70.1391
20.2957 63.8026
20.477 54.9003
20.6586 50.2829
20.84 49.4413
21.0215 49.1833
21.203 51.1403
21.3846 49.8847
21.5662 49.3732
21.7479 52.8871
21.9297 65.1296
22.1115 56.5063
22.2933 50.5465
22.4753 49.4901
22.6572 49.2999
22.8393 52.2616
23.0214 58.377
23.2037 49.3877
23.3859 50.1437
23.5682 57.0707
23.7505 49.2892
23.9329 45.6724
24.1154 44.7621
24.2979 43.9507
24.4805 43.303
24.6631 43.2305
24.8458 42.6688
25.0286 43.3787
25.2114 45.1587
25.3943 45.298
25.5773 41.4273
25.7605 40.8899
25.9436 41.2704
26.1268 42.1362
26.31 40.591
26.4933 41.1074
26.6767 42.6003
26.8601 40.9185
27.0437 39.4048
27.2272 39.0613
27.4109 38.848
27.5946 38.8712
27.7784 38.3455
27.9623 38.9022
28.1462 39.2263
28.3304 37.7982
28.5145 36.4471
28.6987 35.9819
28.8829 35.8036
29.0673 35.0208
29.2517 34.7281
29.4361 34.5407
29.6207 33.5518
29.8053 33.229
29.99 33.0544
30.1748 32.8442
30.3597 32.6933
30.5447 32.5746
30.7297 32.5601
30.915 32.1068
31.1002 31.4766
31.2855 31.2514
31.4708 31.1252
31.6563 30.7027
31.8418 30.5026
32.0275 30.3393
32.2132 29.7371
32.399 29.2248
32.5848 28.8204
32.7708 28.464
32.9569 28.3016
33.143 28.1986
33.3293 27.741
33.5158 27.3384
33.7022 26.9119
33.8887 26.6089
34.0753 26.3099
34.262 25.9882
34.4488 25.6013
34.6357 25.3137
34.8227 24.9224
35.0098 24.7486
35.1969 24.5133
35.3842 24.3503
35.5716 24.0729
35.759 23.7582
35.9468 23.3555
36.1345 23.1216
36.3222 22.9635
36.5101 22.6015
36.6981 22.4175
36.8861 22.047
37.0743 21.7548
37.2626 21.5078
37.451 21.2166
37.6395 21.0242
37.8281 20.6847
38.0168 20.4549
38.2056 20.2321
38.3945 19.952
38.5837 19.6937
38.7728 19.435
38.9621 19.2815
39.1514 18.9305
39.3409 18.7298
39.5304 18.4745
39.7201 18.2607
39.9099 18.0643
40.0999 17.837
40.2899 17.5851
40.48 17.3664
40.6703 17.1828
40.8607 16.9324
41.0512 16.7338
41.242 16.4671
41.4327 16.2652
41.6236 16.0324
41.8146 15.855
42.0057 15.6304
42.1969 15.4232
42.3882 15.2316
42.5797 15.0072
42.7713 14.7868
42.963 14.5887
43.1549 14.3991
43.3468 14.2082
43.5389 13.9774
43.7312 13.7943
43.9237 13.6314
44.1162 13.4469
44.3088 13.2271
44.5016 13.0258
44.6945 12.8731
44.8875 12.6995
45.0806 12.5226
45.2739 12.3313
45.4673 12.1872
45.6609 11.9777
45.8546 11.8557
46.0484 11.651
46.2424 11.516
46.4365 11.3446
46.631 11.1336
46.8254 11.0119
47.0199 10.8184
47.2146 10.6726
47.4095 10.4931
47.6044 10.3693
47.7996 10.247
47.9948 10.0885
48.1902 9.89591
48.3858 9.81631
48.5815 9.66111
48.7774 9.52066
48.9734 9.38391
49.1696 9.22769
49.3661 9.04217
49.5626 8.91409
49.7592 8.7764
49.956 8.66216
50.153 8.54718
50.3501 8.40155
50.5474 8.29509
50.7448 8.14337
50.9424 8.03411
51.1402 7.8996
51.3381 7.74674
51.5362 7.6319
51.7344 7.52516
51.9328 7.38262
52.1316 7.26974
52.3304 7.17325
52.5293 7.06214
52.7284 6.92399
52.9276 6.83701
53.1271 6.7133
53.3267 6.5906
53.5265 6.44493
53.7264 6.3232
53.9266 6.23091
54.1269 6.15127
54.3274 5.98993
54.528 5.86823
54.7289 5.70926
54.9301 5.55176
55.1314 5.42155
55.3328 5.24725
55.5344 5.02774
55.7361 4.9084

File: Ni3Fe_FD0527.xy
TT I
1.27165 7.23365
1.45013 5.94715
1.62863 5.64032
1.80712 4.91182
1.98562 5.45841
2.16411 5.19226
2.34263 5.0949
2.52115 6.5541
2.69965 8.13239
2.87818 8.4025
3.05672 11.3236
3.23527 15.5509
3.4138 19.1671
3.59237 24.2426
3.77094 26.4527
3.9495 30.3939
4.12809 35.2583
4.30669 267.303
4.4853 71.4035
4.6639 56.0432
4.84253 67.9654
5.02118 87.3234
5.19981 375.203
5.37848 205.832
5.55716 103.439
5.73586 93.3021
5.91455 95.177
6.09328 4116.21
6.27201 85.7162
6.45075 68.352
6.62952 63.7389
6.8083 59.5823
6.98711 56.699
7.16591 56.2901
7.34475 103.05
7.5236 56.073
7.70247 56.9063
7.88135 58.4694
8.06026 62.7032
8.23919 69.9276
8.41812 86.3322
8.59709 1100.75
8.77609 102.319
8.9551 94.4541
9.13412 82.9128
9.31318 83.3947
9.49226 85.2
9.67134 101.993
9.85047 100.753
10.0296 337.105
10.2088 461.754
10.388 106.565
10.5672 494.615
10.7465 87.6955
10.9257 79.7161
11.105 72.4699
11.2844 72.2323
11.4637 65.7467
11.6431 64.4425
11.8225 63.2387
12.002 64.2553
12.1814 147.154
12.3609 73.3194
12.5405 65.4483
12.72 71.5448
12.8996 71.4931
13.0792 79.1956
13.2589 226.57
13.4386 132.078
13.6183 235.408
13.7981 103.464
13.9779 76.6132
14.1577 73.285
14.3376 72.9321
14.5175 69.5829
14.6974 71.2599
14.8774 108.835
15.0574 158.634
15.2374 72.3943
15.4175 67.0598
15.5976 66.4303
15.7778 93.8175
15.958 164.385
16.1382 63.8611
16.3185 59.7749
16.4988 56.2456
16.6792 55.0036
16.8596 55.9991
17.04 56.489
17.2205 66.4821
17.401 73.1265
17.5815 59.7905
17.7622 61.9776
17.9428 73.8669
18.1237 137.046
18.3044 89.6601
18.4852 80.7372
18.666 61.124
18.8469 58.7066
19.0278 57.5868
19.2088 60.3198
19.3898 76.779
19.5709 54.8817
19.752 53.8251
19.9332 56.7184
20.1144 70.1804
20.2957 63.5482
20.477 54.7916
20.6586 50.4266
20.84 49.3376
21.0215 49.1318
21.203 51.1438
21.3846 49.8001
21.5662 49.0856
21.7479 52.8055
21.9297 64.9995
22.1115 56.5632
22.2933 50.75
22.4753 49.6035
22.6572 49.3403
22.8393 52.236
23.0214 58.3617
23.2037 49.37
23.3859 50.3621
23.5682 56.9322
23.7505 49.2913
23.9329 45.8184
24.1154 44.6455
24.2979 44.0396
24.4805 43.3301
24.6631 43.3804
24.8458 42.6039
25.0286 43.3305
25.2114 45.0303
25.3943 45.2021
25.5773 41.4157
25.7605 40.9579
25.9436 41.2127
26.1268 42.1511
26.31 40.5271
26.4933 41.2203
26.6767 42.4986
26.8601 41.0273
27.0437 39.3701
27.2272 39.1109
27.4109 38.8176
27.5946 38.9027
27.7784 38.2628
27.9623 38.5967
28.1462 39.3462
28.3304 37.5417
28.5145 36.4091
28.6987 36.1198
28.8829 35.7792
29.0673 35.0753
29.2517 34.7152
29.4361 34.554
29.6207 33.4552
29.8053 33.3554
29.99 32.9745
30.1748 32.9369
30.3597 32.7238
30.5447 32.5678
30.7297 32.5628
30.915 32.0485
31.1002 31.4909
31.2855 31.241
31.4708 31.1171
31.6563 30.7431
31.8418 30.4815
32.0275 30.2325
32.2132 29.8131
32.399 29.2481
32.5848 28.9123
32.7708 28.4881
32.9569 28.4389
33.143 28.0842
33.3293 27.7457
33.5158 27.3348
33.7022 26.8456
33.8887 26.6022
34.0753 26.359
34.262 25.9189
34.4488 25.5339
34.6357 25.2307
34.8227 25.0114
35.0098 24.7998
35.1969 24.4706
35.3842 24.3107
35.5716 24.0804
35.759 23.78
35.9468 23.4014
36.1345 23.1303
36.3222 22.9858
36.5101 22.6714
36.6981 22.3751
36.8861 22.0682
37.0743 21.7308
37.2626 21.5104
37.451 21.2359
37.6395 21.0585
37.8281 20.7379
38.0168 20.4374
38.2056 20.1986
38.3945 19.8905
38.5837 19.7009
38.7728 19.4593
38.9621 19.2465
39.1514 18.9488
39.3409 18.6767
39.5304 18.4096
39.7201 18.2934
39.9099 18.0187
40.0999 17.7293
40.2899 17.5981
40.48 17.3487
40.6703 17.1412
40.8607 16.9619
41.0512 16.7344
41.242 16.375
41.4327 16.3074
41.6236 16.0133
41.8146 15.8667
42.0057 15.6406
42.1969 15.4234
42.3882 15.2405
42.5797 14.9864
42.7713 14.7891
42.963 14.5991
43.1549 14.3852
43.3468 14.2411
43.5389 13.9919
43.7312 13.784
43.9237 13.632
44.1162 13.4326
44.3088 13.2629
44.5016 13.0647
44.6945 12.8855
44.8875 12.7325
45.0806 12.5335
45.2739 12.3574
45.4673 12.1606
45.6609 11.9665
45.8546 11.8443
46.0484 11.6928
46.2424 11.5091
46.4365 11.3811
46.631 11.1592
46.8254 11.0042
47.0199 10.8335
47.2146 10.6904
47.4095 10.4752
47.6044 10.3763
47.7996 10.211
47.9948 10.0812
48.1902 9.92473
48.3858 9.75155
48.5815 9.62563
48.7774 9.53404
48.9734 9.32317
49.1696 9.20968
49.3661 9.10601
49.5626 8.92415
49.7592 8.79389
49.956 8.66036
50.153 8.5561
50.3501 8.40517
50.5474 8.32612
50.7448 8.16801
50.9424 8.01774
51.1402 7.93457
51.3381 7.76563
51.5362 7.64921
51.7344 7.54439
51.9328 7.39093
52.1316 7.26673
52.3304 7.17147
52.5293 7.06063
52.7284 6.94852
52.9276 6.83536
53.1271 6.70218
53.3267 6.62133
53.5265 6.45119
53.7264 6.34123
53.9266 6.22703
54.1269 6.11689
54.3274 6.05248
54.528 5.92664
54.7289 5.69806
54.9301 5.55159
55.1314 5.40808
55.3328 5.24265
55.5344 5.0437
55.7361 4.90335

File: Ni3Fe_FD0528.xy
TT I
1.27165 7.12341
1.45013 6.27022
1.62863 5.51287
1.80712 4.77236
1.98562 4.645
2.16411 4.98555
2.34263 5.65254
2.52115 7.23632
2.69965 7.90047
2.87818 8.06405
3.05672 10.6224
3.23527 14.8118
3.4138 19.04
3.59237 24.3196
3.77094 26.6211
3.9495 30.1545
4.12809 35.0434
4.30669 270.709
4.4853 71.1593
4.6639 55.777
4.84253 67.3573
5.02118 87.4422
5.19981 371.164
5.37848 205.934
5.55716 102.893
5.73586 92.9476
5.91455 94.954
6.09328 4134.69
6.27201 85.5244
6.45075 68.1004
6.62952 63.825
6.8083 59.5788
6.98711 56.5094
7.16591 55.9604
7.34475 103.724
7.5236 55.6046
7.70247 56.7988
7.88135 58.3899
8.06026 62.8537
8.23919 70.3085
8.41812 86.5167
8.59709 1101.18
8.77609 102.401
8.9551 93.8979
9.13412 82.4387
9.31318 83.0808
9.49226 84.9367
9.67134 101.388
9.85047 100.905
10.0296 334.488
10.2088 465.961
10.388 106.108
10.5672 491.683
10.7465 87.6547
10.9257 79.6707
11.105 72.6807
11.2844 72.2047
11.4637 65.704
11.6431 64.3324
11.8225 63.0484
12.002 64.1921
12.1814 146.616
12.3609 73.1082
12.5405 65.2272
12.72 71.8589
12.8996 71.7294
13.0792 79.0749
13.2589 225.851
13.4386 132.253
13.6183 237.401
13.7981 103.715
13.9779 76.4412
14.1577 73.4692
14.3376 72.9071
14.5175 69.2539
14.6974 71.0729
14.8774 108.568
15.0574 159.078
15.2374 72.3409
15.4175 66.9977
15.5976 66.2389
15.7778 94.0852
15.958 164.783
16.1382 64.0756
16.3185 59.5209
16.4988 56.2221
16.6792 55.165
16.8596 55.9719
17.04 56.2588
17.2205 66.5499
17.401 73.447
17.5815 59.7198
17.7622 61.7777
17.9428 73.5928
18.1237 137.39
18.3044 89.4183
18.4852 81.2762
18.666 61.0422
18.8469 58.7627
19.0278 57.5331
19.2088 59.9989
19.3898 76.5782
19.5709 55.0663
19.752 53.9743
19.9332 56.585
20.1144 70.3198
20.2957 63.7868
20.477 54.7738
20.6586 50.3591
20.84 49.4396
21.0215 49.1226
21.203 51.2621
21.3846 49.7793
21.5662 49.2315
21.7479 52.7307
21.9297 65.1445
22.1115 56.3925
22.2933 50.8196
22.4753 49.4631
22.6572 49.3285
22.8393 52.1567
23.0214 58.4412
23.2037 49.3583
23.3859 50.201
23.5682 56.9139
23.7505 49.1546
23.9329 45.541
24.1154 44.6263
24.2979 44.0953
24.4805 43.2884
24.6631 43.3124
24.8458 42.7493
25.0286 43.2474
25.2114 45.0371
25.3943 45.4115
25.5773 41.3564
25.7605 40.8645
25.9436 41.1828
26.1268 42.1544
26.31 40.6519
26.4933 41.0565
26.6767 42.44
26.8601 40.9733
27.0437 39.302
27.2272 39.0262
27.4109 38.7677
27.5946 38.8745
27.7784 38.3425
27.9623 38.7698
28.1462 39.3179
28.3304 37.6513
28.5145 36.3778
28.6987 36.1357
28.8829 35.7761
29.0673 35.0241
29.2517 34.7166
29.4361 34.5964
29.6207 33.5132
29.8053 33.212
29.99 32.8487
30.1748 32.8135
30.3597 32.5957
30.5447 32.5186
30.7297 32.5094
30.915 31.9458
31.1002 31.4186
31.2855 31.2816
31.4708 31.1659
31.6563 30.754
31.8418 30.4836
32.0275 30.312
32.2132 29.5271
32.399 29.2478
32.5848 28.6676
32.7708 28.4155
32.9569 28.2874
33.143 28.0315
33.3293 27.7498
33.5158 27.3107
33.7022 26.9089
33.8887 26.6637
34.0753 26.2932
34.262 25.9225
34.4488 25.6696
34.6357 25.2402
34.8227 24.9575
35.0098 24.7262
35.1969 24.4064
35.3842 24.239
35.5716 24.0081
35.759 23.6691
35.9468 23.4029
36.1345 23.1377
36.3222 22.9868
36.5101 22.623
36.6981 22.407
36.8861 22.0729
37.0743 21.7557
37.2626 21.5288
37.451 21.2506
37.6395 21.0404
37.8281 20.7397
38.0168 20.4524
38.2056 20.1826
38.3945 19.9056
38.5837 19.6583
38.7728 19.449
38.9621 19.1321
39.1514 18.8832
39.3409 18.6491
39.5304 18.4872
39.7201 18.2861
39.9099 18.002
40.0999 17.8193
40.2899 17.6129
40.48 17.3069
40.6703 17.1488
40.8607 16.926
41.0512 16.6992
41.242 16.442
41.4327 16.2872
41.6236 15.9907
41.8146 15.8414
42.0057 15.606
42.1969 15.3597
42.3882 15.1882
42.5797 15.0126
42.7713 14.8098
42.963 14.6098
43.1549 14.3665
43.3468 14.2178
43.5389 14.0172
43.7312 13.7901
43.9237 13.6092
44.1162 13.4191
44.3088 13.207
44.5016 13.0433
44.6945 12.9139
44.8875 12.7454
45.0806 12.5505
45.2739 12.3541
45.4673 12.1922
45.6609 11.9996
45.8546 11.8419
46.0484 11.6629
46.2424 11.5054
46.4365 11.3604
46.631 11.1102
46.8254 10.9606
47.0199 10.8251
47.2146 10.7047
47.4095 10.5045
47.6044 10.3752
47.7996 10.2073
47.9948 10.0729
48.1902 9.91159
48.3858 9.81788
48.5815 9.66854
48.7774 9.49827
48.9734 9.3378
49.1696 9.20909
49.3661 9.08773
49.5626 8.95253
49.7592 8.82428
49.956 8.70827
50.153 8.55624
50.3501 8.38668
50.5474 8.33312
50.7448 8.1917
50.9424 8.02154
51.1402 7.92464
51.3381 7.73169
51.5362 7.63385
51.7344 7.55942
51.9328 7.39256
52.1316 7.25294
52.3304 7.1623
52.5293 7.00871
52.7284 6.91866
52.9276 6.824
53.1271 6.66968
53.3267 6.58236
53.5265 6.41782
53.7264 6.35129
53.9266 6.26704
54.1269 6.10811
54.3274 6.04511
54.528 5.8971
54.7289 5.73298
54.9301 5.60201
55.1314 5.42776
55.3328 5.19864
55.5344 5.06824
55.7361 4.9209

File: Ni3Fe_FD0529.xy
TT I
1.27165 7.46262
1.45013 6.83377
1.62863 5.14773
1.80712 4.79278
1.98562 4.87076
2.16411 5.20695
2.34263 5.18725
2.52115 6.33877
2.69965 8.2898
2.87818 8.4273
3.05672 11.4136
3.23527 15.1325
3.4138 19.3304
3.59237 24.603
3.77094 26.654
3.9495 30.4056
4.12809 35.0157
4.30669 271.767
4.4853 71.2515
4.6639 55.6507
4.84253 67.9537
5.02118 87.3029
5.19981 374.143
5.37848 205.952
5.55716 103.101
5.73586 93.293
5.91455 95.2522
6.09328 4135.08
6.27201 85.4325
6.45075 68.4027
6.62952 63.7575
6.8083 59.5872
6.98711 56.8618
7.16591 56.4152
7.34475 104.235
7.5236 55.6253
7.70247 57.0183
7.88135 58.5959
8.06026 62.9904
8.23919 70.1024
8.41812 86.521
8.59709 1101.92
8.77609 102.262
8.9551 94.1184
9.13412 82.6571
9.31318 83.3991
9.49226 85.2194
9.67134 102.183
9.85047 100.656
10.0296 334.625
10.2088 464.861
10.388 106.245
10.5672 494.409
10.7465 87.8721
10.9257 79.9602
11.105 72.8892
11.2844 72.113
11.4637 65.8842
11.6431 64.6328
11.8225 63.2201
12.002 64.1903
12.1814 146.899
12.3609 73.3433
12.5405 65.5018
12.72 72.0375
12.8996 71.8262
13.0792 79.4517
13.2589 226.486
13.4386 131.839
13.6183 237.185
13.7981 103.322
13.9779 76.7308
14.1577 73.4664
14.3376 72.9965
14.5175 69.3265
14.6974 71.2441
14.8774 108.941
15.0574 158.918
15.2374 72.7916
15.4175 67.2343
15.5976 66.498
15.7778 94.0807
15.958 164.589
16.1382 64.3425
16.3185 59.7382
16.4988 56.3878
16.6792 55.1916
16.8596 55.8874
17.04 56.5695
17.2205 66.231
17.401 73.4988
17.5815 60.0163
17.7622 61.9395
17.9428 74.0991
18.1237 137.638
18.3044 89.8916
18.4852 81.1558
18.666 61.2013
18.8469 58.8254
19.0278 57.7542
19.2088 60.1963
19.3898 76.9014
19.5709 55.0112
19.752 54.0736
19.9332 56.8441
20.1144 70.4208
20.2957 63.8198
20.477 54.713
20.6586 50.4696
20.84 49.3499
21.0215 49.2274
21.203 51.0883
21.3846 49.7269
21.5662 49.2455
21.7479 52.9374
21.9297 64.9622
22.1115 56.4762
22.2933 50.8117
22.4753 49.6971
22.6572 49.4071
22.8393 52.1962
23.0214 58.2622
23.2037 49.4059
23.3859 50.2331
23.5682 56.9201
23.7505 49.2499
23.9329 45.7243
24.1154 44.6138
24.2979 43.8755
24.4805 43.3898
24.6631 43.4712
24.8458 42.7402
25.0286 43.1191
25.2114 45.1168
25.3943 45.2702
25.5773 41.4469
25.7605 40.9412
25.9436 41.3637
26.1268 42.337
26.31 40.6162
26.4933 41.1295
26.6767 42.6039
26.8601 40.9522
27.0437 39.3197
27.2272 39.0086
27.4109 38.8384
27.5946 38.9676
27.7784 38.2768
27.9623 38.9181
28.1462 39.2341
28.3304 37.7457
28.5145 36.3501
28.6987 35.9983
28.8829 35.912
29.0673 35.0379
29.2517 34.7624
29.4361 34.5554
29.6207 33.6642
29.8053 33.265
29.99 32.9959
30.1748 32.8609
30.3597 32.7007
30.5447 32.463
30.7297 32.5997
30.915 32.02
31.1002 31.4985
31.2855 31.3138
31.4708 31.1174
31.6563 30.6571
31.8418 30.4126
32.0275 30.3465
32.2132 29.7824
32.399 29.2664
32.5848 28.8414
32.7708 28.5157
32.9569 28.3903
33.143 28.1811
33.3293 27.7474
33.5158 27.4001
33.7022 26.9598
33.8887 26.66
34.0753 26.4182
34.262 25.9669
34.4488 25.5958
34.6357 25.2871
34.8227 24.9699
35.0098 24.8656
35.1969 24.5041
35.3842 24.271
35.5716 24.0551
35.759 23.7696
35.9468 23.3526
36.1345 23.186
36.3222 22.9259
36.5101 22.699
36.6981 22.4233
36.8861 22.0452
37.0743 21.7519
37.2626 21.4235
37.451 21.2788
37.6395 21.1158
37.8281 20.7262
38.0168 20.4855
38.2056 20.2268
38.3945 19.8952
38.5837 19.6981
38.7728 19.4526
38.9621 19.2349
39.1514 18.949
39.3409 18.6941
39.5304 18.462
39.7201 18.2982
39.9099 18.12
40.0999 17.8125
40.2899 17.6043
40.48 17.3405
40.6703 17.1221
40.8607 16.9471
41.0512 16.6861
41.242 16.4641
41.4327 16.2876
41.6236 16.0299
41.8146 15.8682
42.0057 15.6155
42.1969 15.3958
42.3882 15.2196
42.5797 15.0577
42.7713 14.8095
42.963 14.5905
43.1549 14.3942
43.3468 14.2206
43.5389 13.9994
43.7312 13.8325
43.9237 13.6151
44.1162 13.4336
44.3088 13.2612
44.5016 13.0426
44.6945 12.9338
44.8875 12.7296
45.0806 12.5313
45.2739 12.3655
45.4673 12.1531
45.6609 12.0129
45.8546 11.8808
46.0484 11.6765
46.2424 11.5625
46.4365 11.3561
46.631 11.1795
46.8254 11.0215
47.0199 10.8557
47.2146 10.6941
47.4095 10.548
47.6044 10.3813
47.7996 10.2161
47.9948 10.0088
48.1902 9.91772
48.3858 9.75418
48.5815 9.66253
48.7774 9.50785
48.9734 9.37839
49.1696 9.25167
49.3661 9.06666
49.5626 8.93691
49.7592 8.79727
49.956 8.68182
50.153 8.53961
50.3501 8.40526
50.5474 8.27299
50.7448 8.16875
50.9424 8.05424
51.1402 7.87757
51.3381 7.76739
51.5362 7.6846
51.7344 7.49091
51.9328 7.38914
52.1316 7.27771
52.3304 7.17343
52.5293 7.03933
52.7284 6.93749
52.9276 6.79936
53.1271 6.69787
53.3267 6.59097
53.5265 6.44624
53.7264 6.36349
53.9266 6.21972
54.1269 6.13399
54.3274 5.99602
54.528 5.84985
54.7289 5.7132
54.9301 5.55782
55.1314 5.43219
55.3328 5.17368
55.5344 5.04905
55.7361 4.86356