Folder: NiFe_MOF_catalyst_paper/XRD (part 145)

File: Ni3Fe_FD0788.xy
TT I
1.27165 6.91152
1.45013 6.87347
1.62863 4.95804
1.80712 4.74046
1.98562 4.73117
2.16411 4.41379
2.34263 5.5411
2.52115 6.80291
2.69965 8.79432
2.87818 8.83062
3.05672 11.0386
3.23527 15.1818
3.4138 18.5716
3.59237 23.5702
3.77094 25.9441
3.9495 29.3153
4.12809 34.4942
4.30669 157.004
4.4853 58.9493
4.6639 55.3402
4.84253 66.6314
5.02118 86.0897
5.19981 354.131
5.37848 178.244
5.55716 100.498
5.73586 91.2727
5.91455 93.348
6.09328 4526.88
6.27201 80.1319
6.45075 66.6089
6.62952 61.7041
6.8083 57.9839
6.98711 55.3358
7.16591 54.476
7.34475 78.2918
7.5236 53.6952
7.70247 55.4078
7.88135 57.1323
8.06026 61.8002
8.23919 69.0134
8.41812 83.8622
8.59709 1209.34
8.77609 96.9068
8.9551 89.2045
9.13412 81.2363
9.31318 82.2889
9.49226 83.9533
9.67134 95.0313
9.85047 98.7164
10.0296 341.091
10.2088 347.313
10.388 103.411
10.5672 532.451
10.7465 85.0456
10.9257 77.3999
11.105 70.8139
11.2844 68.6961
11.4637 63.8013
11.6431 62.7313
11.8225 61.8232
12.002 63.1295
12.1814 157.567
12.3609 67.7271
12.5405 63.5957
12.72 68.0956
12.8996 70.1498
13.0792 78.5733
13.2589 244.63
13.4386 117.419
13.6183 254.695
13.7981 92.727
13.9779 74.8172
14.1577 71.3642
14.3376 70.2092
14.5175 68.1222
14.6974 69.512
14.8774 110.401
15.0574 141.982
15.2374 69.3113
15.4175 65.6315
15.5976 65.4381
15.7778 94.0606
15.958 147.904
16.1382 61.3902
16.3185 57.4379
16.4988 54.8406
16.6792 53.9103
16.8596 54.3913
17.04 55.2536
17.2205 66.6521
17.401 68.9231
17.5815 58.5571
17.7622 60.8168
17.9428 73.0874
18.1237 141.694
18.3044 90.7189
18.4852 74.443
18.666 59.5814
18.8469 57.4449
19.0278 56.2244
19.2088 58.6971
19.3898 76.0079
19.5709 53.6758
19.752 52.8923
19.9332 55.6628
20.1144 69.705
20.2957 64.036
20.477 52.3677
20.6586 48.9786
20.84 48.263
21.0215 48.1079
21.203 50.5453
21.3846 48.1303
21.5662 48.1808
21.7479 52.1503
21.9297 64.0284
22.1115 55.6478
22.2933 49.1398
22.4753 48.3742
22.6572 48.4743
22.8393 51.6187
23.0214 56.6077
23.2037 48.3177
23.3859 49.2733
23.5682 56.9887
23.7505 47.4699
23.9329 44.7449
24.1154 43.5928
24.2979 42.8918
24.4805 42.4071
24.6631 42.3566
24.8458 41.7699
25.0286 42.5622
25.2114 44.2003
25.3943 44.2353
25.5773 40.5334
25.7605 40.068
25.9436 40.5243
26.1268 41.2959
26.31 39.6759
26.4933 40.325
26.6767 41.7979
26.8601 40.0008
27.0437 38.4474
27.2272 38.2885
27.4109 37.9211
27.5946 37.9397
27.7784 37.4824
27.9623 38.0118
28.1462 38.4921
28.3304 36.6742
28.5145 35.6167
28.6987 35.2949
28.8829 35.0531
29.0673 34.3248
29.2517 34.0813
29.4361 33.9202
29.6207 32.7337
29.8053 32.5946
29.99 32.2888
30.1748 32.1225
30.3597 31.9705
30.5447 31.8549
30.7297 31.9403
30.915 31.2536
31.1002 30.8067
31.2855 30.4579
31.4708 30.6001
31.6563 30.0367
31.8418 29.8105
32.0275 29.6178
32.2132 28.9864
32.399 28.6369
32.5848 28.2493
32.7708 27.9193
32.9569 27.7173
33.143 27.5237
33.3293 27.0791
33.5158 26.74
33.7022 26.3226
33.8887 25.9957
34.0753 25.7099
34.262 25.3509
34.4488 25.0015
34.6357 24.7768
34.8227 24.4229
35.0098 24.2493
35.1969 23.961
35.3842 23.7391
35.5716 23.5135
35.759 23.2801
35.9468 22.8867
36.1345 22.6595
36.3222 22.446
36.5101 22.1973
36.6981 21.8514
36.8861 21.594
37.0743 21.3597
37.2626 21.0371
37.451 20.7079
37.6395 20.6042
37.8281 20.2553
38.0168 20.0363
38.2056 19.7797
38.3945 19.4488
38.5837 19.2071
38.7728 19.0296
38.9621 18.7217
39.1514 18.56
39.3409 18.2264
39.5304 18.0419
39.7201 17.8162
39.9099 17.6564
40.0999 17.3756
40.2899 17.1825
40.48 16.8981
40.6703 16.6701
40.8607 16.5504
41.0512 16.3985
41.242 16.0742
41.4327 15.8777
41.6236 15.6665
41.8146 15.5284
42.0057 15.2823
42.1969 15.0245
42.3882 14.9029
42.5797 14.6277
42.7713 14.4777
42.963 14.2789
43.1549 14.158
43.3468 13.8501
43.5389 13.6708
43.7312 13.5049
43.9237 13.3057
44.1162 13.1355
44.3088 12.9831
44.5016 12.7655
44.6945 12.6016
44.8875 12.3962
45.0806 12.2356
45.2739 12.0515
45.4673 11.8934
45.6609 11.7145
45.8546 11.6373
46.0484 11.4005
46.2424 11.247
46.4365 11.0886
46.631 10.9056
46.8254 10.7743
47.0199 10.6021
47.2146 10.4784
47.4095 10.3214
47.6044 10.139
47.7996 10.0004
47.9948 9.8586
48.1902 9.6843
48.3858 9.58049
48.5815 9.44022
48.7774 9.34482
48.9734 9.18187
49.1696 8.9957
49.3661 8.86503
49.5626 8.74582
49.7592 8.60442
49.956 8.50275
50.153 8.36022
50.3501 8.19027
50.5474 8.09506
50.7448 7.99894
50.9424 7.88947
51.1402 7.69931
51.3381 7.5878
51.5362 7.47168
51.7344 7.33361
51.9328 7.20671
52.1316 7.06974
52.3304 6.98404
52.5293 6.86655
52.7284 6.77952
52.9276 6.64119
53.1271 6.56145
53.3267 6.44821
53.5265 6.35031
53.7264 6.2196
53.9266 6.12237
54.1269 6.00717
54.3274 5.88241
54.528 5.67649
54.7289 5.59994
54.9301 5.4505
55.1314 5.33758
55.3328 5.06878
55.5344 4.93568
55.7361 4.80507

File: Ni3Fe_FD0789.xy
TT I
1.27165 7.25671
1.45013 6.46628
1.62863 5.87647
1.80712 4.93939
1.98562 4.6734
2.16411 4.81472
2.34263 5.6779
2.52115 7.57376
2.69965 7.6791
2.87818 8.76386
3.05672 11.3685
3.23527 14.9598
3.4138 18.5323
3.59237 23.4001
3.77094 25.7985
3.9495 29.6135
4.12809 34.5398
4.30669 154.539
4.4853 59.1079
4.6639 54.7367
4.84253 67.436
5.02118 86.518
5.19981 357.31
5.37848 178.06
5.55716 100.641
5.73586 91.1827
5.91455 93.878
6.09328 4533.66
6.27201 80.0783
6.45075 67.1167
6.62952 61.9577
6.8083 57.8031
6.98711 55.1744
7.16591 54.6853
7.34475 77.6093
7.5236 54.0343
7.70247 55.9009
7.88135 57.0038
8.06026 61.488
8.23919 68.906
8.41812 83.9741
8.59709 1209.71
8.77609 96.816
8.9551 88.9538
9.13412 81.7345
9.31318 81.8761
9.49226 84.052
9.67134 95.1569
9.85047 98.9125
10.0296 342.795
10.2088 345.979
10.388 103.676
10.5672 536.888
10.7465 84.8949
10.9257 77.1858
11.105 70.965
11.2844 68.4934
11.4637 64.3564
11.6431 62.8542
11.8225 61.871
12.002 63.2837
12.1814 157.307
12.3609 67.6113
12.5405 63.6387
12.72 68.2742
12.8996 70.2913
13.0792 78.8579
13.2589 245.282
13.4386 117.584
13.6183 255.229
13.7981 92.2956
13.9779 75.0127
14.1577 71.6721
14.3376 70.06
14.5175 68.1736
14.6974 69.8635
14.8774 110.545
15.0574 141.542
15.2374 69.327
15.4175 65.6965
15.5976 65.1851
15.7778 94.3114
15.958 147.135
16.1382 61.3319
16.3185 57.8529
16.4988 54.7757
16.6792 53.9025
16.8596 54.3158
17.04 55.1801
17.2205 66.8348
17.401 68.9105
17.5815 58.6951
17.7622 60.7543
17.9428 73.0813
18.1237 141.403
18.3044 90.8198
18.4852 74.1581
18.666 59.6174
18.8469 57.4972
19.0278 56.2269
19.2088 58.7603
19.3898 75.8556
19.5709 53.4189
19.752 52.6751
19.9332 55.5835
20.1144 69.6139
20.2957 64.045
20.477 52.3053
20.6586 49.0853
20.84 48.2864
21.0215 48.1032
21.203 50.4691
21.3846 48.4224
21.5662 48.3545
21.7479 52.253
21.9297 64.1713
22.1115 55.8501
22.2933 49.1184
22.4753 48.3098
22.6572 48.3089
22.8393 51.6252
23.0214 56.4401
23.2037 48.2084
23.3859 49.3874
23.5682 56.9605
23.7505 47.449
23.9329 44.8179
24.1154 43.7711
24.2979 42.964
24.4805 42.5292
24.6631 42.2076
24.8458 41.6888
25.0286 42.5967
25.2114 44.3552
25.3943 43.9679
25.5773 40.4928
25.7605 39.8816
25.9436 40.4223
26.1268 41.2554
26.31 39.6584
26.4933 40.2997
26.6767 41.766
26.8601 40.0177
27.0437 38.4943
27.2272 38.0524
27.4109 37.9671
27.5946 37.974
27.7784 37.4548
27.9623 38.1596
28.1462 38.474
28.3304 36.7066
28.5145 35.5218
28.6987 35.3019
28.8829 35.0701
29.0673 34.2721
29.2517 33.9967
29.4361 33.8515
29.6207 32.8336
29.8053 32.537
29.99 32.1496
30.1748 32.17
30.3597 31.9032
30.5447 31.8683
30.7297 31.911
30.915 31.2543
31.1002 30.8453
31.2855 30.6158
31.4708 30.501
31.6563 30.136
31.8418 29.8123
32.0275 29.5809
32.2132 29.0793
32.399 28.6296
32.5848 28.1206
32.7708 27.8583
32.9569 27.7769
33.143 27.4993
33.3293 27.0676
33.5158 26.7714
33.7022 26.293
33.8887 26.1191
34.0753 25.7199
34.262 25.3624
34.4488 25.0258
34.6357 24.6583
34.8227 24.4205
35.0098 24.2457
35.1969 23.9555
35.3842 23.7316
35.5716 23.577
35.759 23.2185
35.9468 22.8766
36.1345 22.6962
36.3222 22.4789
36.5101 22.2697
36.6981 21.89
36.8861 21.5284
37.0743 21.2806
37.2626 20.999
37.451 20.7779
37.6395 20.5823
37.8281 20.2766
38.0168 19.9942
38.2056 19.7488
38.3945 19.493
38.5837 19.2896
38.7728 19.0003
38.9621 18.766
39.1514 18.5198
39.3409 18.2835
39.5304 18.0879
39.7201 17.8224
39.9099 17.6354
40.0999 17.3912
40.2899 17.1188
40.48 16.9939
40.6703 16.7355
40.8607 16.6088
41.0512 16.37
41.242 16.069
41.4327 15.9335
41.6236 15.6662
41.8146 15.496
42.0057 15.2388
42.1969 14.9855
42.3882 14.8715
42.5797 14.6371
42.7713 14.4607
42.963 14.273
43.1549 14.071
43.3468 13.8243
43.5389 13.6697
43.7312 13.468
43.9237 13.3034
44.1162 13.0996
44.3088 12.947
44.5016 12.7111
44.6945 12.6097
44.8875 12.4282
45.0806 12.2535
45.2739 12.0614
45.4673 11.9341
45.6609 11.7299
45.8546 11.5745
46.0484 11.4118
46.2424 11.2753
46.4365 11.0878
46.631 10.8814
46.8254 10.697
47.0199 10.5775
47.2146 10.4619
47.4095 10.271
47.6044 10.1128
47.7996 9.95009
47.9948 9.81135
48.1902 9.67558
48.3858 9.55635
48.5815 9.42701
48.7774 9.2652
48.9734 9.16685
49.1696 9.01682
49.3661 8.86965
49.5626 8.73292
49.7592 8.61514
49.956 8.45893
50.153 8.36269
50.3501 8.18951
50.5474 8.11852
50.7448 7.96858
50.9424 7.83545
51.1402 7.74811
51.3381 7.56977
51.5362 7.46342
51.7344 7.35223
51.9328 7.18235
52.1316 7.11829
52.3304 7.0233
52.5293 6.88811
52.7284 6.73109
52.9276 6.66325
53.1271 6.56586
53.3267 6.4296
53.5265 6.28736
53.7264 6.21231
53.9266 6.09944
54.1269 6.015
54.3274 5.88067
54.528 5.71312
54.7289 5.58154
54.9301 5.44563
55.1314 5.29309
55.3328 5.12821
55.5344 4.96029
55.7361 4.81227

File: Ni3Fe_FD0790.xy
TT I
1.27165 7.37732
1.45013 6.13261
1.62863 5.34413
1.80712 4.71501
1.98562 5.23439
2.16411 5.08136
2.34263 5.53607
2.52115 7.6299
2.69965 8.60525
2.87818 8.96527
3.05672 11.0323
3.23527 15.1587
3.4138 18.2989
3.59237 23.829
3.77094 25.5211
3.9495 29.7899
4.12809 34.5103
4.30669 151.598
4.4853 58.7005
4.6639 55.108
4.84253 67.4073
5.02118 86.4298
5.19981 361.152
5.37848 178.29
5.55716 101.026
5.73586 91.9123
5.91455 93.8964
6.09328 4558.07
6.27201 80.1208
6.45075 67.0653
6.62952 61.9431
6.8083 58.0196
6.98711 54.9402
7.16591 54.4755
7.34475 77.0803
7.5236 53.9785
7.70247 56.0163
7.88135 57.1114
8.06026 61.9845
8.23919 69.1355
8.41812 83.9387
8.59709 1204.11
8.77609 97.1612
8.9551 88.813
9.13412 81.1955
9.31318 82.3513
9.49226 83.8599
9.67134 94.8473
9.85047 99.2476
10.0296 345.046
10.2088 344.657
10.388 103.377
10.5672 538.517
10.7465 85.0484
10.9257 77.1904
11.105 71.1365
11.2844 68.8737
11.4637 64.0471
11.6431 62.984
11.8225 61.8905
12.002 63.3847
12.1814 157.402
12.3609 67.7553
12.5405 63.9527
12.72 68.3388
12.8996 70.5272
13.0792 79.004
13.2589 246.369
13.4386 117.274
13.6183 257.751
13.7981 92.1464
13.9779 74.9169
14.1577 71.3499
14.3376 70.2703
14.5175 68.3795
14.6974 69.8806
14.8774 111.391
15.0574 139.843
15.2374 69.5227
15.4175 65.7237
15.5976 65.2855
15.7778 94.6238
15.958 146.691
16.1382 61.2492
16.3185 57.7409
16.4988 54.7199
16.6792 53.9371
16.8596 54.5138
17.04 55.2397
17.2205 66.9049
17.401 68.6721
17.5815 58.4201
17.7622 60.8857
17.9428 72.9978
18.1237 141.141
18.3044 91.0582
18.4852 74.3333
18.666 59.6355
18.8469 57.5356
19.0278 56.2482
19.2088 58.846
19.3898 75.9984
19.5709 53.5817
19.752 52.8357
19.9332 55.9201
20.1144 69.4208
20.2957 63.7562
20.477 52.6045
20.6586 49.1193
20.84 48.417
21.0215 48.1693
21.203 50.5479
21.3846 48.4403
21.5662 48.4533
21.7479 52.3112
21.9297 64.3476
22.1115 55.7795
22.2933 49.0974
22.4753 48.3371
22.6572 48.4161
22.8393 51.5388
23.0214 56.4411
23.2037 48.327
23.3859 49.4781
23.5682 56.8803
23.7505 47.4791
23.9329 44.778
24.1154 43.5924
24.2979 42.8595
24.4805 42.6044
24.6631 42.3651
24.8458 41.7754
25.0286 42.5575
25.2114 44.0922
25.3943 44.0465
25.5773 40.5089
25.7605 40.1533
25.9436 40.5673
26.1268 41.2868
26.31 39.5471
26.4933 40.3791
26.6767 41.8504
26.8601 39.9664
27.0437 38.62
27.2272 38.2009
27.4109 38.1294
27.5946 38.0667
27.7784 37.674
27.9623 38.1557
28.1462 38.4222
28.3304 36.6565
28.5145 35.5078
28.6987 35.3315
28.8829 35.2243
29.0673 34.2843
29.2517 34.0367
29.4361 33.7456
29.6207 32.8591
29.8053 32.5405
29.99 32.2677
30.1748 32.1575
30.3597 31.9022
30.5447 31.9386
30.7297 31.9996
30.915 31.2505
31.1002 30.8017
31.2855 30.5935
31.4708 30.5025
31.6563 30.06
31.8418 29.8909
32.0275 29.5406
32.2132 29.1137
32.399 28.5251
32.5848 28.1754
32.7708 27.7865
32.9569 27.7333
33.143 27.5157
33.3293 27.0755
33.5158 26.7462
33.7022 26.3469
33.8887 26.0275
34.0753 25.7275
34.262 25.3614
34.4488 25.0248
34.6357 24.709
34.8227 24.447
35.0098 24.1888
35.1969 23.9822
35.3842 23.7584
35.5716 23.5638
35.759 23.1993
35.9468 22.8381
36.1345 22.6671
36.3222 22.4835
36.5101 22.1887
36.6981 21.8776
36.8861 21.6294
37.0743 21.2518
37.2626 21.0418
37.451 20.7738
37.6395 20.604
37.8281 20.3003
38.0168 19.9791
38.2056 19.7533
38.3945 19.4521
38.5837 19.251
38.7728 18.9492
38.9621 18.6419
39.1514 18.5411
39.3409 18.2806
39.5304 18.084
39.7201 17.9021
39.9099 17.6602
40.0999 17.362
40.2899 17.2006
40.48 16.9236
40.6703 16.7821
40.8607 16.5954
41.0512 16.3723
41.242 16.0565
41.4327 15.9061
41.6236 15.6682
41.8146 15.5224
42.0057 15.2974
42.1969 15.1299
42.3882 14.8558
42.5797 14.6875
42.7713 14.4329
42.963 14.2873
43.1549 14.0488
43.3468 13.9053
43.5389 13.7016
43.7312 13.5027
43.9237 13.3452
44.1162 13.1059
44.3088 12.9192
44.5016 12.7795
44.6945 12.6406
44.8875 12.4331
45.0806 12.1976
45.2739 12.0488
45.4673 11.9081
45.6609 11.7034
45.8546 11.5835
46.0484 11.4176
46.2424 11.2296
46.4365 11.1226
46.631 10.8886
46.8254 10.7356
47.0199 10.5946
47.2146 10.4348
47.4095 10.2812
47.6044 10.1138
47.7996 9.9763
47.9948 9.80979
48.1902 9.73089
48.3858 9.58741
48.5815 9.44017
48.7774 9.26511
48.9734 9.15544
49.1696 9.01218
49.3661 8.8962
49.5626 8.69248
49.7592 8.58964
49.956 8.47794
50.153 8.35488
50.3501 8.23598
50.5474 8.0968
50.7448 7.96158
50.9424 7.86173
51.1402 7.70977
51.3381 7.58733
51.5362 7.47777
51.7344 7.36867
51.9328 7.24244
52.1316 7.13203
52.3304 7.00113
52.5293 6.86321
52.7284 6.76606
52.9276 6.60208
53.1271 6.57565
53.3267 6.44772
53.5265 6.31456
53.7264 6.23322
53.9266 6.12487
54.1269 5.99573
54.3274 5.8801
54.528 5.76719
54.7289 5.6237
54.9301 5.41632
55.1314 5.33391
55.3328 5.04526
55.5344 4.92384
55.7361 4.79256

File: Ni3Fe_FD0791.xy
TT I
1.27165 7.12556
1.45013 5.78487
1.62863 5.17708
1.80712 4.96462
1.98562 4.64723
2.16411 5.12099
2.34263 5.33774
2.52115 7.42175
2.69965 8.90018
2.87818 8.32109
3.05672 11.4558
3.23527 14.8695
3.4138 18.9059
3.59237 23.2082
3.77094 25.6524
3.9495 29.7412
4.12809 34.5497
4.30669 148.646
4.4853 58.4098
4.6639 55.0793
4.84253 67.2803
5.02118 86.7278
5.19981 362.007
5.37848 177.955
5.55716 100.894
5.73586 91.6147
5.91455 93.7247
6.09328 4552.9
6.27201 80.2403
6.45075 66.7488
6.62952 61.9151
6.8083 58.4434
6.98711 54.7623
7.16591 54.7683
7.34475 77.0844
7.5236 54.0734
7.70247 56.0665
7.88135 57.1508
8.06026 61.8144
8.23919 68.7804
8.41812 83.9871
8.59709 1205.19
8.77609 97.0906
8.9551 89.0094
9.13412 81.6123
9.31318 82.4047
9.49226 83.9859
9.67134 95.0222
9.85047 99.1994
10.0296 345.131
10.2088 342.217
10.388 103.602
10.5672 536.65
10.7465 85.3525
10.9257 77.1124
11.105 70.82
11.2844 68.8251
11.4637 64.3192
11.6431 62.7618
11.8225 61.8188
12.002 63.4515
12.1814 157.859
12.3609 67.1756
12.5405 63.8457
12.72 68.0908
12.8996 70.56
13.0792 78.8342
13.2589 246.795
13.4386 116.766
13.6183 257.083
13.7981 92.6537
13.9779 75.2109
14.1577 71.2973
14.3376 70.2662
14.5175 68.117
14.6974 69.9012
14.8774 111.596
15.0574 140.39
15.2374 69.1241
15.4175 65.8036
15.5976 65.4848
15.7778 94.6396
15.958 146.814
16.1382 61.2486
16.3185 57.4542
16.4988 54.9548
16.6792 53.7191
16.8596 54.5896
17.04 55.2971
17.2205 66.6819
17.401 68.7839
17.5815 58.6927
17.7622 60.7978
17.9428 72.9744
18.1237 141.095
18.3044 91.0174
18.4852 73.9425
18.666 59.497
18.8469 57.1505
19.0278 56.2914
19.2088 58.6184
19.3898 75.8198
19.5709 53.5918
19.752 52.8083
19.9332 55.662
20.1144 69.5399
20.2957 64.1671
20.477 52.5464
20.6586 49.2553
20.84 48.3182
21.0215 48.1335
21.203 50.5007
21.3846 48.4101
21.5662 48.259
21.7479 52.3689
21.9297 64.3317
22.1115 55.6926
22.2933 49.1281
22.4753 48.1912
22.6572 48.4632
22.8393 51.4965
23.0214 56.5698
23.2037 48.3132
23.3859 49.3222
23.5682 57.1607
23.7505 47.3561
23.9329 44.7877
24.1154 43.7228
24.2979 43.1624
24.4805 42.4766
24.6631 42.3945
24.8458 41.7944
25.0286 42.5406
25.2114 44.2676
25.3943 44.0585
25.5773 40.4693
25.7605 40.0972
25.9436 40.4219
26.1268 41.3265
26.31 39.4974
26.4933 40.3865
26.6767 41.8116
26.8601 40.0171
27.0437 38.3855
27.2272 38.0377
27.4109 38.0797
27.5946 38.1446
27.7784 37.4259
27.9623 38.2118
28.1462 38.3559
28.3304 36.7358
28.5145 35.4632
28.6987 35.2796
28.8829 35.0678
29.0673 34.2753
29.2517 33.9564
29.4361 33.8148
29.6207 32.7566
29.8053 32.5068
29.99 32.248
30.1748 32.1336
30.3597 31.9112
30.5447 31.8431
30.7297 31.8268
30.915 31.2372
31.1002 30.8303
31.2855 30.481
31.4708 30.481
31.6563 30.0179
31.8418 29.851
32.0275 29.6061
32.2132 29.0814
32.399 28.6557
32.5848 28.2927
32.7708 27.8089
32.9569 27.6863
33.143 27.5775
33.3293 27.1484
33.5158 26.7294
33.7022 26.3308
33.8887 26.0657
34.0753 25.713
34.262 25.494
34.4488 25.0769
34.6357 24.7231
34.8227 24.4663
35.0098 24.2727
35.1969 23.9375
35.3842 23.8165
35.5716 23.5171
35.759 23.2583
35.9468 22.8513
36.1345 22.643
36.3222 22.4038
36.5101 22.2321
36.6981 21.9066
36.8861 21.547
37.0743 21.2811
37.2626 21.0683
37.451 20.7515
37.6395 20.6395
37.8281 20.2274
38.0168 19.979
38.2056 19.7688
38.3945 19.4913
38.5837 19.2747
38.7728 19.0154
38.9621 18.7701
39.1514 18.5248
39.3409 18.3116
39.5304 18.0122
39.7201 17.9056
39.9099 17.5671
40.0999 17.4714
40.2899 17.1561
40.48 16.9193
40.6703 16.7661
40.8607 16.5676
41.0512 16.3381
41.242 16.0695
41.4327 15.9107
41.6236 15.6836
41.8146 15.4781
42.0057 15.2683
42.1969 15.043
42.3882 14.8542
42.5797 14.6718
42.7713 14.5024
42.963 14.3125
43.1549 14.1113
43.3468 13.8511
43.5389 13.6725
43.7312 13.4403
43.9237 13.2798
44.1162 13.1041
44.3088 12.9568
44.5016 12.7684
44.6945 12.6072
44.8875 12.376
45.0806 12.2572
45.2739 12.0681
45.4673 11.8901
45.6609 11.7192
45.8546 11.6032
46.0484 11.428
46.2424 11.2543
46.4365 11.1494
46.631 10.9091
46.8254 10.7569
47.0199 10.6059
47.2146 10.4556
47.4095 10.2659
47.6044 10.1498
47.7996 9.98299
47.9948 9.84863
48.1902 9.67972
48.3858 9.56226
48.5815 9.40165
48.7774 9.28557
48.9734 9.16349
49.1696 9.00018
49.3661 8.84469
49.5626 8.73111
49.7592 8.61063
49.956 8.50594
50.153 8.34284
50.3501 8.17588
50.5474 8.11813
50.7448 7.98833
50.9424 7.86042
51.1402 7.75232
51.3381 7.58775
51.5362 7.45952
51.7344 7.34235
51.9328 7.20741
52.1316 7.08633
52.3304 7.0377
52.5293 6.881
52.7284 6.74611
52.9276 6.67437
53.1271 6.58877
53.3267 6.40234
53.5265 6.29305
53.7264 6.23192
53.9266 6.12534
54.1269 6.00903
54.3274 5.88068
54.528 5.73948
54.7289 5.61838
54.9301 5.42407
55.1314 5.35037
55.3328 5.16016
55.5344 4.93507
55.7361 4.77264

File: Ni3Fe_FD0792.xy
TT I
1.27165 7.95044
1.45013 6.18259
1.62863 5.39606
1.80712 4.83146
1.98562 4.64563
2.16411 5.507
2.34263 5.9008
2.52115 7.65159
2.69965 8.4843
2.87818 9.0541
3.05672 10.7947
3.23527 15.1094
3.4138 18.6285
3.59237 23.6635
3.77094 25.7129
3.9495 29.5003
4.12809 34.2898
4.30669 146.674
4.4853 58.3308
4.6639 55.1858
4.84253 67.4127
5.02118 86.149
5.19981 364.175
5.37848 177.969
5.55716 100.566
5.73586 91.2602
5.91455 93.7102
6.09328 4543.24
6.27201 80.265
6.45075 67.1625
6.62952 61.8872
6.8083 57.631
6.98711 55.261
7.16591 54.7776
7.34475 76.5442
7.5236 54.0292
7.70247 55.6719
7.88135 57.3002
8.06026 61.7821
8.23919 68.5509
8.41812 83.4467
8.59709 1213.66
8.77609 97.0009
8.9551 88.7097
9.13412 81.143
9.31318 82.4642
9.49226 83.9131
9.67134 94.7056
9.85047 99.1929
10.0296 342.734
10.2088 341.999
10.388 103.478
10.5672 538.822
10.7465 85.3146
10.9257 76.9964
11.105 71.093
11.2844 68.4201
11.4637 64.079
11.6431 62.8394
11.8225 61.8231
12.002 63.2741
12.1814 157.568
12.3609 67.3658
12.5405 63.7613
12.72 67.815
12.8996 70.185
13.0792 78.9463
13.2589 245.832
13.4386 116.885
13.6183 255.119
13.7981 92.7666
13.9779 75.1324
14.1577 71.1849
14.3376 70.2441
14.5175 68.1239
14.6974 69.6054
14.8774 111.055
15.0574 141.67
15.2374 69.0892
15.4175 65.5224
15.5976 65.2692
15.7778 94.386
15.958 147.165
16.1382 61.0363
16.3185 57.5118
16.4988 54.824
16.6792 53.8833
16.8596 54.3819
17.04 55.4621
17.2205 66.7227
17.401 69.0596
17.5815 58.411
17.7622 60.5978
17.9428 73.222
18.1237 141.557
18.3044 91.1532
18.4852 74.285
18.666 59.645
18.8469 57.1819
19.0278 56.012
19.2088 58.6349
19.3898 76.138
19.5709 53.5049
19.752 52.7894
19.9332 55.7729
20.1144 69.829
20.2957 64.0808
20.477 52.4818
20.6586 49.1533
20.84 48.4115
21.0215 47.9724
21.203 50.3864
21.3846 48.3829
21.5662 48.3802
21.7479 52.3489
21.9297 64.1736
22.1115 55.7795
22.2933 49.0789
22.4753 48.3841
22.6572 48.3458
22.8393 51.6288
23.0214 56.5317
23.2037 48.2795
23.3859 49.2048
23.5682 57.1259
23.7505 47.3433
23.9329 44.7801
24.1154 43.5706
24.2979 42.9146
24.4805 42.5118
24.6631 42.3259
24.8458 41.7186
25.0286 42.4578
25.2114 44.4824
25.3943 44.0909
25.5773 40.514
25.7605 40.0619
25.9436 40.5137
26.1268 41.4358
26.31 39.7518
26.4933 40.333
26.6767 41.7796
26.8601 39.9362
27.0437 38.4326
27.2272 38.0158
27.4109 38.1172
27.5946 38.073
27.7784 37.4738
27.9623 38.1423
28.1462 38.3851
28.3304 36.7861
28.5145 35.5828
28.6987 35.1836
28.8829 35.008
29.0673 34.2255
29.2517 33.9259
29.4361 33.7722
29.6207 32.8017
29.8053 32.5033
29.99 32.139
30.1748 32.1032
30.3597 31.8273
30.5447 31.7974
30.7297 31.8652
30.915 31.2261
31.1002 30.7977
31.2855 30.5692
31.4708 30.6136
31.6563 29.9407
31.8418 29.854
32.0275 29.5486
32.2132 29.0391
32.399 28.582
32.5848 28.2194
32.7708 27.8444
32.9569 27.7344
33.143 27.5418
33.3293 27.0168
33.5158 26.783
33.7022 26.3772
33.8887 25.9853
34.0753 25.745
34.262 25.3964
34.4488 24.9734
34.6357 24.7666
34.8227 24.4483
35.0098 24.2621
35.1969 23.9534
35.3842 23.7256
35.5716 23.5812
35.759 23.2493
35.9468 22.9096
36.1345 22.6471
36.3222 22.4285
36.5101 22.1504
36.6981 21.8878
36.8861 21.5212
37.0743 21.2892
37.2626 21.0983
37.451 20.8065
37.6395 20.5834
37.8281 20.3165
38.0168 19.9957
38.2056 19.7763
38.3945 19.523
38.5837 19.2887
38.7728 18.989
38.9621 18.7573
39.1514 18.5042
39.3409 18.3181
39.5304 18.0113
39.7201 17.9184
39.9099 17.6373
40.0999 17.3888
40.2899 17.159
40.48 16.9542
40.6703 16.8033
40.8607 16.5262
41.0512 16.2917
41.242 16.0757
41.4327 15.8537
41.6236 15.6992
41.8146 15.4816
42.0057 15.3017
42.1969 15.1394
42.3882 14.8566
42.5797 14.6796
42.7713 14.5161
42.963 14.2387
43.1549 14.0468
43.3468 13.8814
43.5389 13.698
43.7312 13.4717
43.9237 13.3146
44.1162 13.1546
44.3088 12.9485
44.5016 12.7621
44.6945 12.6314
44.8875 12.424
45.0806 12.2334
45.2739 12.07
45.4673 11.9239
45.6609 11.7312
45.8546 11.6258
46.0484 11.4173
46.2424 11.2292
46.4365 11.0876
46.631 10.8727
46.8254 10.7391
47.0199 10.5868
47.2146 10.4554
47.4095 10.2914
47.6044 10.1178
47.7996 9.98754
47.9948 9.81848
48.1902 9.67693
48.3858 9.56615
48.5815 9.45178
48.7774 9.28052
48.9734 9.15563
49.1696 9.03163
49.3661 8.85972
49.5626 8.73351
49.7592 8.61445
49.956 8.46728
50.153 8.34741
50.3501 8.22296
50.5474 8.07735
50.7448 7.93826
50.9424 7.83939
51.1402 7.71919
51.3381 7.62122
51.5362 7.46986
51.7344 7.34902
51.9328 7.21987
52.1316 7.08468
52.3304 7.01492
52.5293 6.86813
52.7284 6.77062
52.9276 6.65069
53.1271 6.57714
53.3267 6.44839
53.5265 6.29342
53.7264 6.24536
53.9266 6.11197
54.1269 5.95838
54.3274 5.86032
54.528 5.72985
54.7289 5.61653
54.9301 5.43202
55.1314 5.33995
55.3328 5.07917
55.5344 4.9261
55.7361 4.77872