Folder: NiFe_MOF_catalyst_paper/XRD (part 111)

File: Ni3Fe_FD0602.xy
TT I
1.27165 7.78117
1.45013 6.36057
1.62863 5.41727
1.80712 4.45077
1.98562 4.88348
2.16411 5.07798
2.34263 5.58095
2.52115 6.77729
2.69965 8.27537
2.87818 8.76776
3.05672 10.9216
3.23527 15.0666
3.4138 18.6614
3.59237 23.1664
3.77094 25.9327
3.9495 29.4806
4.12809 34.7631
4.30669 129.3
4.4853 56.7488
4.6639 56.0095
4.84253 68.4525
5.02118 88.7608
5.19981 418.926
5.37848 203.713
5.55716 103.673
5.73586 93.6516
5.91455 97.05
6.09328 4253.43
6.27201 82.9194
6.45075 68.6828
6.62952 63.0885
6.8083 59.1879
6.98711 55.8825
7.16591 56.1847
7.34475 73.0953
7.5236 54.9293
7.70247 56.4885
7.88135 58.1582
8.06026 63.0191
8.23919 69.9126
8.41812 85.8853
8.59709 1235.38
8.77609 101.035
8.9551 89.9061
9.13412 83.447
9.31318 84.4084
9.49226 85.6815
9.67134 96.226
9.85047 101.875
10.0296 375.578
10.2088 422.99
10.388 105.996
10.5672 502.589
10.7465 87.8098
10.9257 78.5437
11.105 72.3028
11.2844 69.7432
11.4637 65.1279
11.6431 63.9311
11.8225 63.3344
12.002 64.606
12.1814 155.015
12.3609 68.9795
12.5405 65.1987
12.72 68.7877
12.8996 71.8723
13.0792 80.5359
13.2589 252.13
13.4386 128.883
13.6183 253.413
13.7981 101.32
13.9779 76.5185
14.1577 72.7798
14.3376 71.2883
14.5175 69.5894
14.6974 71.1533
14.8774 116.169
15.0574 151.464
15.2374 70.7359
15.4175 66.98
15.5976 66.4649
15.7778 98.9468
15.958 154.223
16.1382 62.2364
16.3185 58.6694
16.4988 55.9117
16.6792 54.9997
16.8596 55.5341
17.04 56.4354
17.2205 67.8316
17.401 72.5721
17.5815 59.7139
17.7622 61.7326
17.9428 75.5119
18.1237 138.115
18.3044 92.1795
18.4852 79.0968
18.666 60.9523
18.8469 58.6377
19.0278 57.2468
19.2088 60.3583
19.3898 75.2805
19.5709 54.6768
19.752 53.8987
19.9332 57.0117
20.1144 69.7038
20.2957 63.8865
20.477 54.164
20.6586 50.1921
20.84 49.2668
21.0215 49.008
21.203 51.1213
21.3846 49.1051
21.5662 49.4482
21.7479 53.3149
21.9297 64.646
22.1115 56.1239
22.2933 50.3641
22.4753 49.1217
22.6572 49.2184
22.8393 52.712
23.0214 57.5807
23.2037 49.2775
23.3859 50.4559
23.5682 56.8389
23.7505 48.9387
23.9329 45.4475
24.1154 44.5762
24.2979 43.7117
24.4805 43.3006
24.6631 43.1154
24.8458 42.5654
25.0286 43.3753
25.2114 44.962
25.3943 44.6865
25.5773 41.2422
25.7605 40.8112
25.9436 41.1919
26.1268 42.0038
26.31 40.4619
26.4933 41.2251
26.6767 42.4473
26.8601 40.7674
27.0437 39.1427
27.2272 38.823
27.4109 38.73
27.5946 38.5678
27.7784 38.2297
27.9623 38.8189
28.1462 39.0989
28.3304 37.5163
28.5145 36.1547
28.6987 35.923
28.8829 35.777
29.0673 34.9127
29.2517 34.6462
29.4361 34.3182
29.6207 33.4145
29.8053 33.1335
29.99 32.8282
30.1748 32.8163
30.3597 32.4906
30.5447 32.4168
30.7297 32.4115
30.915 31.8034
31.1002 31.3695
31.2855 31.1298
31.4708 31.0701
31.6563 30.5983
31.8418 30.4137
32.0275 30.0677
32.2132 29.607
32.399 29.1848
32.5848 28.7112
32.7708 28.408
32.9569 28.2325
33.143 28.0229
33.3293 27.5673
33.5158 27.2956
33.7022 26.836
33.8887 26.4881
34.0753 26.2171
34.262 25.8288
34.4488 25.4999
34.6357 25.1619
34.8227 24.8825
35.0098 24.6762
35.1969 24.3568
35.3842 24.1531
35.5716 23.957
35.759 23.7223
35.9468 23.2604
36.1345 22.9707
36.3222 22.7891
36.5101 22.6067
36.6981 22.2576
36.8861 21.9059
37.0743 21.6291
37.2626 21.4344
37.451 21.0794
37.6395 20.9755
37.8281 20.6439
38.0168 20.3276
38.2056 20.1049
38.3945 19.8249
38.5837 19.5873
38.7728 19.303
38.9621 19.0319
39.1514 18.8231
39.3409 18.5615
39.5304 18.3928
39.7201 18.1684
39.9099 17.9775
40.0999 17.7053
40.2899 17.4993
40.48 17.2537
40.6703 17.006
40.8607 16.8459
41.0512 16.6222
41.242 16.3302
41.4327 16.1793
41.6236 15.8981
41.8146 15.7372
42.0057 15.5589
42.1969 15.3032
42.3882 15.1469
42.5797 14.9439
42.7713 14.7304
42.963 14.5391
43.1549 14.3008
43.3468 14.1212
43.5389 13.9115
43.7312 13.7386
43.9237 13.5404
44.1162 13.3193
44.3088 13.1853
44.5016 12.9845
44.6945 12.7803
44.8875 12.6603
45.0806 12.4286
45.2739 12.2693
45.4673 12.1379
45.6609 11.9241
45.8546 11.7963
46.0484 11.6227
46.2424 11.4455
46.4365 11.2749
46.631 11.0904
46.8254 10.9272
47.0199 10.7466
47.2146 10.5993
47.4095 10.4445
47.6044 10.2588
47.7996 10.1599
47.9948 9.98703
48.1902 9.85545
48.3858 9.74857
48.5815 9.61103
48.7774 9.4664
48.9734 9.31373
49.1696 9.13431
49.3661 9.02145
49.5626 8.87263
49.7592 8.77962
49.956 8.60009
50.153 8.49728
50.3501 8.33494
50.5474 8.26262
50.7448 8.10669
50.9424 7.97226
51.1402 7.85442
51.3381 7.71997
51.5362 7.58855
51.7344 7.45568
51.9328 7.36646
52.1316 7.21316
52.3304 7.13981
52.5293 6.96087
52.7284 6.90775
52.9276 6.78413
53.1271 6.66868
53.3267 6.52855
53.5265 6.43613
53.7264 6.31867
53.9266 6.24416
54.1269 6.06513
54.3274 5.94662
54.528 5.80675
54.7289 5.71608
54.9301 5.48841
55.1314 5.38377
55.3328 5.23305
55.5344 5.0118
55.7361 4.85741

File: Ni3Fe_FD0603.xy
TT I
1.27165 7.33434
1.45013 6.19972
1.62863 5.5899
1.80712 5.491
1.98562 5.18644
2.16411 4.40684
2.34263 5.18733
2.52115 5.69813
2.69965 8.0658
2.87818 7.99794
3.05672 11.1158
3.23527 14.7144
3.4138 19.0108
3.59237 23.6745
3.77094 26.121
3.9495 30.0602
4.12809 34.8863
4.30669 141.188
4.4853 58.4504
4.6639 56.0679
4.84253 68.3904
5.02118 88.5802
5.19981 410.114
5.37848 201.139
5.55716 103.587
5.73586 93.6487
5.91455 96.8361
6.09328 4232.43
6.27201 82.9412
6.45075 68.5856
6.62952 63.0077
6.8083 59.0435
6.98711 55.7601
7.16591 55.6403
7.34475 75.881
7.5236 55.0998
7.70247 56.571
7.88135 58.2301
8.06026 62.6971
8.23919 69.7112
8.41812 85.6412
8.59709 1236.73
8.77609 100.973
8.9551 90.2739
9.13412 82.8694
9.31318 83.8304
9.49226 85.6894
9.67134 96.5165
9.85047 101.383
10.0296 370.854
10.2088 423.174
10.388 106.019
10.5672 501.276
10.7465 87.3564
10.9257 78.4737
11.105 72.2877
11.2844 69.7539
11.4637 65.1791
11.6431 64.0697
11.8225 63.0229
12.002 64.4716
12.1814 155.585
12.3609 69.4439
12.5405 65.1251
12.72 69.036
12.8996 71.6479
13.0792 80.1042
13.2589 250.874
13.4386 129.247
13.6183 251.742
13.7981 101.412
13.9779 76.8655
14.1577 72.6707
14.3376 71.179
14.5175 69.3499
14.6974 71.1998
14.8774 115.461
15.0574 151.73
15.2374 70.694
15.4175 67.0517
15.5976 66.3346
15.7778 98.637
15.958 154.374
16.1382 62.3263
16.3185 58.6255
16.4988 55.7874
16.6792 54.9672
16.8596 55.6217
17.04 56.2183
17.2205 67.7788
17.401 72.538
17.5815 59.8784
17.7622 61.5952
17.9428 75.2138
18.1237 137.749
18.3044 92.3289
18.4852 79.4743
18.666 61.0654
18.8469 58.5659
19.0278 57.397
19.2088 60.0423
19.3898 75.5589
19.5709 54.8298
19.752 53.6249
19.9332 56.8559
20.1144 69.5342
20.2957 64.1258
20.477 54.1958
20.6586 50.0468
20.84 49.285
21.0215 48.9403
21.203 51.211
21.3846 49.2744
21.5662 49.2664
21.7479 53.4219
21.9297 64.5324
22.1115 56.0235
22.2933 50.3145
22.4753 48.9802
22.6572 49.1766
22.8393 52.6906
23.0214 57.4024
23.2037 49.27
23.3859 50.4441
23.5682 56.8072
23.7505 48.8786
23.9329 45.6034
24.1154 44.3936
24.2979 43.7605
24.4805 43.2134
24.6631 43.0793
24.8458 42.5689
25.0286 43.2899
25.2114 44.9771
25.3943 44.7924
25.5773 41.3218
25.7605 40.7416
25.9436 41.237
26.1268 42.0005
26.31 40.5261
26.4933 41.1972
26.6767 42.3608
26.8601 40.7554
27.0437 39.1853
27.2272 38.7956
27.4109 38.7559
27.5946 38.6612
27.7784 38.1097
27.9623 38.7077
28.1462 39.021
28.3304 37.4728
28.5145 36.1538
28.6987 35.8239
28.8829 35.6827
29.0673 35.0586
29.2517 34.546
29.4361 34.4105
29.6207 33.3464
29.8053 33.05
29.99 32.8368
30.1748 32.7006
30.3597 32.4655
30.5447 32.4255
30.7297 32.3233
30.915 31.8815
31.1002 31.4093
31.2855 31.1147
31.4708 30.9904
31.6563 30.6268
31.8418 30.4121
32.0275 30.0789
32.2132 29.636
32.399 29.1414
32.5848 28.6984
32.7708 28.4489
32.9569 28.1954
33.143 27.9639
33.3293 27.542
33.5158 27.2169
33.7022 26.8296
33.8887 26.5558
34.0753 26.2188
34.262 25.8564
34.4488 25.4632
34.6357 25.2103
34.8227 24.8887
35.0098 24.7164
35.1969 24.2883
35.3842 24.148
35.5716 24.007
35.759 23.7
35.9468 23.256
36.1345 23.0349
36.3222 22.9009
36.5101 22.6301
36.6981 22.2683
36.8861 21.9244
37.0743 21.5866
37.2626 21.4483
37.451 21.0919
37.6395 21.0047
37.8281 20.5967
38.0168 20.3019
38.2056 20.1515
38.3945 19.8455
38.5837 19.5201
38.7728 19.3964
38.9621 19.0987
39.1514 18.8587
39.3409 18.6029
39.5304 18.4318
39.7201 18.247
39.9099 17.9793
40.0999 17.7239
40.2899 17.5227
40.48 17.2458
40.6703 17.0463
40.8607 16.8384
41.0512 16.6442
41.242 16.3448
41.4327 16.1964
41.6236 15.9878
41.8146 15.769
42.0057 15.5588
42.1969 15.2844
42.3882 15.1417
42.5797 14.9154
42.7713 14.7159
42.963 14.5118
43.1549 14.3286
43.3468 14.0993
43.5389 13.9569
43.7312 13.6911
43.9237 13.5363
44.1162 13.3338
44.3088 13.1859
44.5016 12.9552
44.6945 12.7962
44.8875 12.6208
45.0806 12.4565
45.2739 12.2797
45.4673 12.1008
45.6609 11.9311
45.8546 11.7656
46.0484 11.6126
46.2424 11.4424
46.4365 11.2873
46.631 11.0959
46.8254 10.9448
47.0199 10.7984
47.2146 10.6481
47.4095 10.4547
47.6044 10.2971
47.7996 10.1187
47.9948 10.0053
48.1902 9.8899
48.3858 9.71635
48.5815 9.5661
48.7774 9.46622
48.9734 9.2943
49.1696 9.17181
49.3661 8.99831
49.5626 8.88592
49.7592 8.72283
49.956 8.61067
50.153 8.49112
50.3501 8.3636
50.5474 8.21732
50.7448 8.13595
50.9424 7.97861
51.1402 7.86011
51.3381 7.70413
51.5362 7.62264
51.7344 7.42239
51.9328 7.33916
52.1316 7.22198
52.3304 7.0962
52.5293 6.98565
52.7284 6.84472
52.9276 6.78253
53.1271 6.67679
53.3267 6.53263
53.5265 6.39199
53.7264 6.32385
53.9266 6.21763
54.1269 6.09489
54.3274 5.97358
54.528 5.8486
54.7289 5.68611
54.9301 5.49217
55.1314 5.38638
55.3328 5.16689
55.5344 5.01579
55.7361 4.79098

File: Ni3Fe_FD0604.xy
TT I
1.27165 7.59306
1.45013 6.25109
1.62863 5.09028
1.80712 4.66968
1.98562 5.35685
2.16411 5.03924
2.34263 5.17285
2.52115 6.64378
2.69965 8.48264
2.87818 9.26323
3.05672 10.5333
3.23527 14.5788
3.4138 19.2667
3.59237 24.0402
3.77094 26.5277
3.9495 30.0491
4.12809 34.707
4.30669 150.245
4.4853 59.3498
4.6639 56.0936
4.84253 68.1243
5.02118 88.121
5.19981 403.248
5.37848 199.517
5.55716 103.511
5.73586 93.8902
5.91455 96.3439
6.09328 4246.02
6.27201 83.5103
6.45075 68.0071
6.62952 63.0196
6.8083 59.0175
6.98711 56.0314
7.16591 55.6487
7.34475 78.0318
7.5236 54.7503
7.70247 56.6038
7.88135 58.1378
8.06026 63.176
8.23919 70.2562
8.41812 85.399
8.59709 1235.63
8.77609 101.07
8.9551 90.5799
9.13412 83.2364
9.31318 83.9688
9.49226 85.735
9.67134 97.0576
9.85047 101.43
10.0296 367.648
10.2088 418.367
10.388 105.456
10.5672 500.87
10.7465 87.0285
10.9257 78.7583
11.105 72.3936
11.2844 69.9005
11.4637 65.3686
11.6431 63.9196
11.8225 62.7573
12.002 64.4534
12.1814 155.966
12.3609 69.6624
12.5405 64.9762
12.72 69.2894
12.8996 71.8686
13.0792 80.4105
13.2589 250.529
13.4386 128.818
13.6183 251.702
13.7981 100.934
13.9779 76.5528
14.1577 72.9328
14.3376 71.4382
14.5175 69.5931
14.6974 71.0726
14.8774 115.287
15.0574 151.516
15.2374 71.1167
15.4175 66.802
15.5976 66.3426
15.7778 98.3298
15.958 153.948
16.1382 62.4673
16.3185 58.7465
16.4988 55.9059
16.6792 54.7681
16.8596 55.6885
17.04 56.3391
17.2205 67.7951
17.401 72.5229
17.5815 59.5729
17.7622 61.9418
17.9428 75.2355
18.1237 137.287
18.3044 92.2279
18.4852 79.2017
18.666 60.8123
18.8469 58.5172
19.0278 57.4796
19.2088 60.2024
19.3898 75.4539
19.5709 54.7529
19.752 53.5837
19.9332 56.9767
20.1144 69.5471
20.2957 64.026
20.477 54.4266
20.6586 49.9906
20.84 49.1665
21.0215 49.2213
21.203 51.1842
21.3846 49.3504
21.5662 49.339
21.7479 53.5098
21.9297 64.4378
22.1115 56.3156
22.2933 50.2587
22.4753 49.2407
22.6572 49.3117
22.8393 52.6124
23.0214 57.5501
23.2037 49.2269
23.3859 50.4312
23.5682 56.9536
23.7505 48.806
23.9329 45.6122
24.1154 44.5518
24.2979 43.7926
24.4805 43.3125
24.6631 43.046
24.8458 42.6308
25.0286 43.1522
25.2114 44.9537
25.3943 45.0024
25.5773 41.1862
25.7605 40.7575
25.9436 41.0463
26.1268 41.981
26.31 40.4515
26.4933 41.1274
26.6767 42.4895
26.8601 40.6122
27.0437 39.1705
27.2272 38.8764
27.4109 38.6849
27.5946 38.605
27.7784 38.1697
27.9623 38.7932
28.1462 39.0707
28.3304 37.5167
28.5145 36.1739
28.6987 35.9762
28.8829 35.71
29.0673 35.0441
29.2517 34.5791
29.4361 34.3764
29.6207 33.4139
29.8053 33.1341
29.99 32.7695
30.1748 32.7693
30.3597 32.5589
30.5447 32.3189
30.7297 32.4608
30.915 31.8902
31.1002 31.2756
31.2855 31.0486
31.4708 30.9954
31.6563 30.6389
31.8418 30.35
32.0275 30.1566
32.2132 29.6737
32.399 29.0983
32.5848 28.7137
32.7708 28.3644
32.9569 28.1713
33.143 28.0154
33.3293 27.6831
33.5158 27.3122
33.7022 26.7651
33.8887 26.6059
34.0753 26.1758
34.262 25.9191
34.4488 25.5823
34.6357 25.1096
34.8227 24.88
35.0098 24.7143
35.1969 24.4015
35.3842 24.1591
35.5716 23.939
35.759 23.5854
35.9468 23.2005
36.1345 23.0993
36.3222 22.8341
36.5101 22.613
36.6981 22.3027
36.8861 22.0217
37.0743 21.6523
37.2626 21.4411
37.451 21.1854
37.6395 20.9759
37.8281 20.602
38.0168 20.3805
38.2056 20.0859
38.3945 19.8548
38.5837 19.6129
38.7728 19.3272
38.9621 19.0754
39.1514 18.89
39.3409 18.6043
39.5304 18.4115
39.7201 18.1598
39.9099 18.0176
40.0999 17.7094
40.2899 17.4817
40.48 17.2183
40.6703 17.0732
40.8607 16.8781
41.0512 16.5783
41.242 16.3694
41.4327 16.1936
41.6236 15.9515
41.8146 15.7562
42.0057 15.5462
42.1969 15.3018
42.3882 15.1406
42.5797 14.9152
42.7713 14.7351
42.963 14.5236
43.1549 14.3347
43.3468 14.0856
43.5389 13.9207
43.7312 13.7222
43.9237 13.586
44.1162 13.344
44.3088 13.1763
44.5016 12.9847
44.6945 12.8191
44.8875 12.6158
45.0806 12.4575
45.2739 12.2996
45.4673 12.1518
45.6609 11.9392
45.8546 11.785
46.0484 11.6118
46.2424 11.4315
46.4365 11.2596
46.631 11.1068
46.8254 10.9088
47.0199 10.7124
47.2146 10.6288
47.4095 10.4631
47.6044 10.2773
47.7996 10.158
47.9948 9.99328
48.1902 9.91318
48.3858 9.70293
48.5815 9.60128
48.7774 9.45948
48.9734 9.31172
49.1696 9.16491
49.3661 9.03157
49.5626 8.87143
49.7592 8.74655
49.956 8.63326
50.153 8.48915
50.3501 8.35133
50.5474 8.24046
50.7448 8.11973
50.9424 7.97098
51.1402 7.84169
51.3381 7.69048
51.5362 7.58774
51.7344 7.46567
51.9328 7.29485
52.1316 7.21818
52.3304 7.13077
52.5293 6.98038
52.7284 6.87274
52.9276 6.76951
53.1271 6.64978
53.3267 6.54612
53.5265 6.41566
53.7264 6.36355
53.9266 6.17234
54.1269 6.08951
54.3274 5.9944
54.528 5.81898
54.7289 5.68116
54.9301 5.53247
55.1314 5.38858
55.3328 5.13229
55.5344 4.99367
55.7361 4.81958

File: Ni3Fe_FD0605.xy
TT I
1.27165 7.78134
1.45013 6.27907
1.62863 5.39189
1.80712 4.9334
1.98562 4.68698
2.16411 5.3125
2.34263 5.30826
2.52115 6.31495
2.69965 7.92729
2.87818 9.29382
3.05672 11.1967
3.23527 14.451
3.4138 19.0339
3.59237 23.6765
3.77094 26.4214
3.9495 30.0795
4.12809 35.1654
4.30669 157.547
4.4853 60.3214
4.6639 56.1342
4.84253 68.1669
5.02118 88.4614
5.19981 395.029
5.37848 197.427
5.55716 103.412
5.73586 93.3073
5.91455 95.9115
6.09328 4250.6
6.27201 83.3376
6.45075 68.2508
6.62952 62.8908
6.8083 59.1424
6.98711 56.1029
7.16591 55.694
7.34475 79.8983
7.5236 55.0527
7.70247 56.5692
7.88135 58.3324
8.06026 63.4321
8.23919 69.9223
8.41812 85.7902
8.59709 1230.24
8.77609 100.791
8.9551 90.7168
9.13412 83.0513
9.31318 83.5892
9.49226 85.3911
9.67134 97.1659
9.85047 100.828
10.0296 364.402
10.2088 414.553
10.388 105.597
10.5672 502.871
10.7465 87.0097
10.9257 78.6044
11.105 72.2549
11.2844 69.9943
11.4637 65.5585
11.6431 63.9668
11.8225 63.0612
12.002 64.4511
12.1814 155.549
12.3609 69.7083
12.5405 64.9738
12.72 69.3227
12.8996 71.4689
13.0792 80.0501
13.2589 250.684
13.4386 128.969
13.6183 252.167
13.7981 100.642
13.9779 76.4916
14.1577 72.9373
14.3376 71.5501
14.5175 69.5964
14.6974 70.8486
14.8774 115.096
15.0574 151.538
15.2374 70.9812
15.4175 66.9711
15.5976 66.4186
15.7778 98.2956
15.958 153.855
16.1382 62.6104
16.3185 58.9101
16.4988 56.0103
16.6792 55.0666
16.8596 55.4311
17.04 56.3317
17.2205 67.7324
17.401 72.5283
17.5815 59.6081
17.7622 61.8885
17.9428 75.0254
18.1237 138.018
18.3044 92.1276
18.4852 79.3604
18.666 60.837
18.8469 58.2877
19.0278 57.3763
19.2088 60.0411
19.3898 75.4641
19.5709 54.7618
19.752 53.8976
19.9332 56.9212
20.1144 69.5975
20.2957 63.8923
20.477 54.1536
20.6586 50.0757
20.84 49.2648
21.0215 49.1572
21.203 51.3253
21.3846 49.3865
21.5662 49.1318
21.7479 53.3801
21.9297 64.4465
22.1115 56.3266
22.2933 50.4363
22.4753 49.2697
22.6572 49.3589
22.8393 52.6046
23.0214 57.5481
23.2037 49.1553
23.3859 50.2351
23.5682 56.9908
23.7505 48.8671
23.9329 45.6525
24.1154 44.3255
24.2979 43.7748
24.4805 43.3034
24.6631 43.1136
24.8458 42.7072
25.0286 43.3143
25.2114 44.9652
25.3943 44.8598
25.5773 41.1135
25.7605 40.6649
25.9436 41.2341
26.1268 41.855
26.31 40.457
26.4933 41.1242
26.6767 42.4072
26.8601 40.752
27.0437 39.198
27.2272 38.9204
27.4109 38.6321
27.5946 38.6446
27.7784 38.1094
27.9623 38.8257
28.1462 39.0522
28.3304 37.4011
28.5145 36.195
28.6987 35.7898
28.8829 35.6688
29.0673 34.8817
29.2517 34.7017
29.4361 34.2696
29.6207 33.346
29.8053 33.1115
29.99 32.7958
30.1748 32.7165
30.3597 32.4358
30.5447 32.4925
30.7297 32.4455
30.915 31.8206
31.1002 31.3608
31.2855 31.0671
31.4708 31.1652
31.6563 30.583
31.8418 30.3956
32.0275 30.1791
32.2132 29.5752
32.399 29.1587
32.5848 28.748
32.7708 28.3643
32.9569 28.2189
33.143 28.0715
33.3293 27.5142
33.5158 27.2647
33.7022 26.7572
33.8887 26.5525
34.0753 26.1672
34.262 25.8354
34.4488 25.4609
34.6357 25.1906
34.8227 24.8885
35.0098 24.6944
35.1969 24.3181
35.3842 24.1514
35.5716 24.0138
35.759 23.6544
35.9468 23.3174
36.1345 23.0705
36.3222 22.8311
36.5101 22.5874
36.6981 22.2504
36.8861 21.9126
37.0743 21.662
37.2626 21.4316
37.451 21.1512
37.6395 21.0333
37.8281 20.6069
38.0168 20.3884
38.2056 20.1394
38.3945 19.8843
38.5837 19.5924
38.7728 19.289
38.9621 19.0991
39.1514 18.8913
39.3409 18.5889
39.5304 18.4017
39.7201 18.2321
39.9099 17.9811
40.0999 17.7757
40.2899 17.4395
40.48 17.2521
40.6703 17.0185
40.8607 16.8487
41.0512 16.6347
41.242 16.3565
41.4327 16.184
41.6236 15.9524
41.8146 15.7904
42.0057 15.524
42.1969 15.3043
42.3882 15.1077
42.5797 14.9369
42.7713 14.7247
42.963 14.5508
43.1549 14.3039
43.3468 14.1215
43.5389 13.942
43.7312 13.7472
43.9237 13.5841
44.1162 13.3711
44.3088 13.1543
44.5016 13.0026
44.6945 12.8186
44.8875 12.6095
45.0806 12.4711
45.2739 12.2788
45.4673 12.1427
45.6609 11.9331
45.8546 11.7268
46.0484 11.6295
46.2424 11.4911
46.4365 11.2849
46.631 11.0948
46.8254 10.9379
47.0199 10.7738
47.2146 10.6414
47.4095 10.4666
47.6044 10.2672
47.7996 10.1673
47.9948 10.0264
48.1902 9.85741
48.3858 9.72549
48.5815 9.60032
48.7774 9.4652
48.9734 9.28129
49.1696 9.20382
49.3661 9.00947
49.5626 8.86602
49.7592 8.7929
49.956 8.62627
50.153 8.49986
50.3501 8.36052
50.5474 8.25154
50.7448 8.14247
50.9424 7.98547
51.1402 7.87272
51.3381 7.71563
51.5362 7.57401
51.7344 7.48886
51.9328 7.35223
52.1316 7.23243
52.3304 7.10888
52.5293 6.99599
52.7284 6.8369
52.9276 6.72866
53.1271 6.64132
53.3267 6.55748
53.5265 6.4462
53.7264 6.2967
53.9266 6.1983
54.1269 6.0572
54.3274 5.97392
54.528 5.82711
54.7289 5.64639
54.9301 5.52982
55.1314 5.37899
55.3328 5.20297
55.5344 4.97341
55.7361 4.91591

File: Ni3Fe_FD0606.xy
TT I
1.27165 7.03096
1.45013 6.22141
1.62863 5.43282
1.80712 5.07337
1.98562 5.12375
2.16411 4.89802
2.34263 5.32682
2.52115 6.84584
2.69965 8.44983
2.87818 8.94706
3.05672 11.0286
3.23527 14.7577
3.4138 19.011
3.59237 23.5362
3.77094 26.2475
3.9495 29.7988
4.12809 35.1029
4.30669 164.592
4.4853 60.6993
4.6639 55.633
4.84253 67.9641
5.02118 87.8756
5.19981 386.784
5.37848 196.891
5.55716 103.589
5.73586 93.0188
5.91455 95.649
6.09328 4272.49
6.27201 83.1128
6.45075 68.0737
6.62952 62.7683
6.8083 59.1102
6.98711 56.1202
7.16591 55.4157
7.34475 81.771
7.5236 54.7544
7.70247 56.4318
7.88135 58.1306
8.06026 62.9924
8.23919 70.4405
8.41812 85.5588
8.59709 1217.73
8.77609 100.902
8.9551 90.8786
9.13412 82.7683
9.31318 83.5423
9.49226 85.3429
9.67134 97.4692
9.85047 100.948
10.0296 363.332
10.2088 419.707
10.388 105.528
10.5672 506.04
10.7465 87.2062
10.9257 78.3373
11.105 72.0558
11.2844 70.2139
11.4637 65.3023
11.6431 64.0516
11.8225 62.8615
12.002 64.2369
12.1814 155.496
12.3609 69.6607
12.5405 65.2118
12.72 69.6282
12.8996 71.7818
13.0792 79.6759
13.2589 249.079
13.4386 129.472
13.6183 251.843
13.7981 100.989
13.9779 76.1002
14.1577 72.8053
14.3376 71.3635
14.5175 69.5478
14.6974 71.0609
14.8774 114.559
15.0574 152.388
15.2374 70.9655
15.4175 66.9997
15.5976 66.214
15.7778 97.6483
15.958 154.685
16.1382 62.7652
16.3185 58.8193
16.4988 55.7998
16.6792 54.9774
16.8596 55.398
17.04 56.2492
17.2205 67.636
17.401 72.8357
17.5815 59.7073
17.7622 61.7718
17.9428 74.997
18.1237 138.154
18.3044 91.8265
18.4852 79.4487
18.666 60.8915
18.8469 58.3672
19.0278 57.287
19.2088 60.0246
19.3898 75.7416
19.5709 54.7708
19.752 53.6283
19.9332 56.8125
20.1144 69.7879
20.2957 63.9383
20.477 54.2934
20.6586 50.0718
20.84 49.3388
21.0215 48.981
21.203 51.085
21.3846 49.3304
21.5662 49.1467
21.7479 53.1891
21.9297 64.6366
22.1115 56.3817
22.2933 50.1389
22.4753 49.2116
22.6572 49.4017
22.8393 52.4905
23.0214 57.4844
23.2037 49.1599
23.3859 50.1085
23.5682 56.9945
23.7505 48.9159
23.9329 45.7265
24.1154 44.2851
24.2979 43.7736
24.4805 43.2854
24.6631 43.1211
24.8458 42.4607
25.0286 43.187
25.2114 44.9456
25.3943 44.8042
25.5773 41.2699
25.7605 40.7413
25.9436 41.2323
26.1268 41.9891
26.31 40.5509
26.4933 41.031
26.6767 42.452
26.8601 40.6648
27.0437 39.2243
27.2272 38.8178
27.4109 38.6778
27.5946 38.6729
27.7784 38.2134
27.9623 38.8029
28.1462 39.1615
28.3304 37.5021
28.5145 36.3368
28.6987 35.8673
28.8829 35.6987
29.0673 34.9129
29.2517 34.6502
29.4361 34.273
29.6207 33.2617
29.8053 33.1892
29.99 32.8382
30.1748 32.6218
30.3597 32.5062
30.5447 32.3736
30.7297 32.4097
30.915 31.902
31.1002 31.4433
31.2855 31.1421
31.4708 31.018
31.6563 30.5795
31.8418 30.2685
32.0275 30.1092
32.2132 29.5881
32.399 29.1817
32.5848 28.6295
32.7708 28.3786
32.9569 28.2161
33.143 28.0656
33.3293 27.6852
33.5158 27.246
33.7022 26.8197
33.8887 26.4566
34.0753 26.177
34.262 25.7465
34.4488 25.5428
34.6357 25.1709
34.8227 24.8213
35.0098 24.6784
35.1969 24.4272
35.3842 24.1438
35.5716 23.898
35.759 23.6077
35.9468 23.3341
36.1345 23.0888
36.3222 22.8232
36.5101 22.5837
36.6981 22.2194
36.8861 21.9316
37.0743 21.6242
37.2626 21.3736
37.451 21.1542
37.6395 20.9424
37.8281 20.5974
38.0168 20.3691
38.2056 20.0628
38.3945 19.8696
38.5837 19.5353
38.7728 19.403
38.9621 19.1727
39.1514 18.8515
39.3409 18.5832
39.5304 18.4048
39.7201 18.2327
39.9099 17.9828
40.0999 17.6605
40.2899 17.4628
40.48 17.2421
40.6703 17.0577
40.8607 16.8385
41.0512 16.6309
41.242 16.3836
41.4327 16.1846
41.6236 15.9364
41.8146 15.7743
42.0057 15.5416
42.1969 15.2796
42.3882 15.16
42.5797 14.9563
42.7713 14.7086
42.963 14.5166
43.1549 14.351
43.3468 14.0627
43.5389 13.9404
43.7312 13.7427
43.9237 13.564
44.1162 13.3459
44.3088 13.1712
44.5016 12.9696
44.6945 12.8193
44.8875 12.6237
45.0806 12.4485
45.2739 12.2615
45.4673 12.0995
45.6609 11.9349
45.8546 11.7656
46.0484 11.5928
46.2424 11.4386
46.4365 11.2899
46.631 11.08
46.8254 10.9378
47.0199 10.809
47.2146 10.6488
47.4095 10.4945
47.6044 10.2996
47.7996 10.1155
47.9948 10.0046
48.1902 9.87449
48.3858 9.73312
48.5815 9.62986
48.7774 9.44833
48.9734 9.31942
49.1696 9.19055
49.3661 9.01214
49.5626 8.86734
49.7592 8.76441
49.956 8.63169
50.153 8.50055
50.3501 8.37958
50.5474 8.24226
50.7448 8.11692
50.9424 7.96869
51.1402 7.85592
51.3381 7.71698
51.5362 7.6128
51.7344 7.44895
51.9328 7.33651
52.1316 7.19531
52.3304 7.11434
52.5293 6.96394
52.7284 6.86483
52.9276 6.77712
53.1271 6.6607
53.3267 6.51572
53.5265 6.42341
53.7264 6.32108
53.9266 6.16957
54.1269 6.13505
54.3274 5.97743
54.528 5.8625
54.7289 5.67248
54.9301 5.49807
55.1314 5.38587
55.3328 5.18555
55.5344 5.00885
55.7361 4.84373