Folder: NiFe_MOF_catalyst_paper/XRD (part 5)

File: Ni3Fe_FD0021.xy
TT I
1.27165 34.4775
1.45013 29.9862
1.62863 26.6103
1.80712 25.1564
1.98562 24.1082
2.16411 25.1426
2.34263 26.0333
2.52115 25.215
2.69965 28.532
2.87818 38.9074
3.05672 65.4956
3.23527 77.3253
3.4138 42.0296
3.59237 38.7499
3.77094 39.9901
3.9495 39.7742
4.12809 51.5128
4.30669 84.7135
4.4853 61.8651
4.6639 47.4572
4.84253 53.3946
5.02118 87.0715
5.19981 266.368
5.37848 3862.57
5.55716 157.446
5.73586 100.148
5.91455 110.084
6.09328 445.684
6.27201 323.466
6.45075 72.4132
6.62952 55.3552
6.8083 53.4208
6.98711 45.5527
7.16591 48.2691
7.34475 70.6923
7.5236 58.5258
7.70247 46.69
7.88135 37.8355
8.06026 39.1768
8.23919 44.1009
8.41812 55.898
8.59709 154.157
8.77609 681.934
8.9551 77.6858
9.13412 58.8018
9.31318 249.451
9.49226 52.4988
9.67134 52.4834
9.85047 59.0748
10.0296 96.5746
10.2088 466.906
10.388 135.427
10.5672 90.4815
10.7465 277.093
10.9257 48.6543
11.105 42.4634
11.2844 40.8636
11.4637 38.3816
11.6431 37.4935
11.8225 36.7179
12.002 71.1011
12.1814 46.564
12.3609 93.3797
12.5405 44.8695
12.72 40.5537
12.8996 39.7905
13.0792 42.2516
13.2589 62.9309
13.4386 142.389
13.6183 93.7105
13.7981 152.825
13.9779 62.9258
14.1577 47.2663
14.3376 48.0039
14.5175 37.8516
14.6974 37.6785
14.8774 42.4275
15.0574 59.1079
15.2374 95.9031
15.4175 41.0393
15.5976 37.9415
15.7778 40.7418
15.958 53.1073
16.1382 121.554
16.3185 39.6886
16.4988 33.5837
16.6792 31.5924
16.8596 31.5922
17.04 39.3454
17.2205 33.2232
17.401 36.1411
17.5815 48.747
17.7622 34.7154
17.9428 40.1546
18.1237 42.6415
18.3044 88.0132
18.4852 56.4563
18.666 66.7006
18.8469 36.1095
19.0278 33.3884
19.2088 33.3047
19.3898 39.0963
19.5709 46.4688
19.752 35.8483
19.9332 31.7209
20.1144 32.3139
20.2957 42.1399
20.477 38.9269
20.6586 39.6749
20.84 31.6138
21.0215 29.7222
21.203 28.4785
21.3846 29.0202
21.5662 32.2523
21.7479 29.3445
21.9297 30.8271
22.1115 40.2743
22.2933 43.1576
22.4753 35.9443
22.6572 29.8178
22.8393 30.178
23.0214 31.2033
23.2037 38.5148
23.3859 34.2149
23.5682 34.1276
23.7505 33.8301
23.9329 42.5751
24.1154 29.2251
24.2979 27.3856
24.4805 26.34
24.6631 26.167
24.8458 27.7577
25.0286 26.0963
25.2114 26.0698
25.3943 28.5834
25.5773 30.2326
25.7605 29.0559
25.9436 26.7526
26.1268 25.392
26.31 26.3503
26.4933 28.0199
26.6767 25.6594
26.8601 27.1372
27.0437 30.7189
27.2272 27.0022
27.4109 24.5941
27.5946 24.5143
27.7784 24.8853
27.9623 25.2151
28.1462 25.5443
28.3304 26.7683
28.5145 27.3175
28.6987 25.0875
28.8829 22.922
29.0673 22.5051
29.2517 23.3639
29.4361 22.0804
29.6207 21.922
29.8053 22.712
29.99 21.327
30.1748 21.3391
30.3597 21.0592
30.5447 21.3607
30.7297 21.0218
30.915 21.1361
31.1002 22.8488
31.2855 21.775
31.4708 20.4877
31.6563 20.4942
31.8418 21.396
32.0275 20.4636
32.2132 20.5039
32.399 20.9091
32.5848 19.7427
32.7708 19.0179
32.9569 18.7895
33.143 18.7733
33.3293 18.404
33.5158 18.7712
33.7022 19.0149
33.8887 17.9727
34.0753 17.677
34.262 17.6267
34.4488 17.2974
34.6357 17.0554
34.8227 16.9107
35.0098 16.5328
35.1969 16.3019
35.3842 16.2437
35.5716 16.2259
35.759 16.4756
35.9468 16.7037
36.1345 16.0661
36.3222 15.6932
36.5101 15.5993
36.6981 15.5045
36.8861 15.1917
37.0743 15.1718
37.2626 14.8115
37.451 14.5737
37.6395 14.4376
37.8281 14.13
38.0168 13.9929
38.2056 13.9529
38.3945 13.6536
38.5837 13.502
38.7728 13.4289
38.9621 13.2097
39.1514 13.1746
39.3409 12.9081
39.5304 12.7377
39.7201 12.5515
39.9099 12.4223
40.0999 12.2796
40.2899 12.2484
40.48 12.0326
40.6703 11.9848
40.8607 11.8318
41.0512 11.6269
41.242 11.5591
41.4327 11.382
41.6236 11.1656
41.8146 11.0969
42.0057 10.924
42.1969 10.9019
42.3882 10.7438
42.5797 10.5276
42.7713 10.3293
42.963 10.2443
43.1549 10.0734
43.3468 9.89612
43.5389 9.78242
43.7312 9.63449
43.9237 9.54974
44.1162 9.44393
44.3088 9.31357
44.5016 9.23561
44.6945 9.09575
44.8875 8.97803
45.0806 8.87907
45.2739 8.71374
45.4673 8.61744
45.6609 8.52288
45.8546 8.39148
46.0484 8.26385
46.2424 8.13156
46.4365 8.07638
46.631 7.95492
46.8254 7.80197
47.0199 7.75016
47.2146 7.60666
47.4095 7.46825
47.6044 7.36995
47.7996 7.30181
47.9948 7.17467
48.1902 7.07853
48.3858 6.93703
48.5815 6.88039
48.7774 6.79039
48.9734 6.70507
49.1696 6.57423
49.3661 6.48947
49.5626 6.41048
49.7592 6.31714
49.956 6.22963
50.153 6.17223
50.3501 6.04669
50.5474 5.96338
50.7448 5.91049
50.9424 5.83068
51.1402 5.71093
51.3381 5.59254
51.5362 5.52339
51.7344 5.47767
51.9328 5.3451
52.1316 5.25367
52.3304 5.22187
52.5293 5.12281
52.7284 5.04422
52.9276 4.98617
53.1271 4.9027
53.3267 4.84702
53.5265 4.71322
53.7264 4.6311
53.9266 4.57621
54.1269 4.44095
54.3274 4.33932
54.528 4.21671
54.7289 4.15118
54.9301 3.98539
55.1314 3.83845
55.3328 3.68105
55.5344 3.59782
55.7361 3.52588

File: Ni3Fe_FD0022.xy
TT I
1.27165 34.0486
1.45013 29.5367
1.62863 26.7499
1.80712 23.3903
1.98562 23.6215
2.16411 24.6064
2.34263 25.1025
2.52115 24.9646
2.69965 28.8697
2.87818 39.2243
3.05672 65.8958
3.23527 76.4583
3.4138 41.7644
3.59237 38.7796
3.77094 39.8026
3.9495 38.4908
4.12809 51.1366
4.30669 85.9579
4.4853 60.9961
4.6639 47.2277
4.84253 53.3801
5.02118 86.473
5.19981 269.179
5.37848 3824.24
5.55716 156.345
5.73586 100.295
5.91455 110.486
6.09328 450.913
6.27201 318.631
6.45075 72.7003
6.62952 55.7886
6.8083 53.9105
6.98711 45.6446
7.16591 48.3405
7.34475 71.8993
7.5236 57.9156
7.70247 46.6709
7.88135 37.7352
8.06026 39.3374
8.23919 44.1622
8.41812 56.256
8.59709 156.199
8.77609 670.187
8.9551 77.7495
9.13412 58.742
9.31318 249.036
9.49226 52.832
9.67134 52.423
9.85047 59.8046
10.0296 98.1998
10.2088 478.745
10.388 133.212
10.5672 90.8696
10.7465 273.322
10.9257 48.9832
11.105 42.3706
11.2844 41.1996
11.4637 38.179
11.6431 37.6463
11.8225 36.8246
12.002 71.565
12.1814 46.7011
12.3609 94.0727
12.5405 44.7892
12.72 40.7652
12.8996 39.9595
13.0792 42.5779
13.2589 63.302
13.4386 145.471
13.6183 92.91
13.7981 155.528
13.9779 62.3218
14.1577 47.5871
14.3376 47.778
14.5175 37.9729
14.6974 37.7423
14.8774 42.8065
15.0574 59.9226
15.2374 93.4077
15.4175 41.2158
15.5976 38.1797
15.7778 40.9109
15.958 53.4665
16.1382 119.319
16.3185 39.8572
16.4988 33.7044
16.6792 31.8911
16.8596 31.7079
17.04 39.4876
17.2205 33.4368
17.401 36.3096
17.5815 48.1456
17.7622 35.1531
17.9428 40.2965
18.1237 42.8778
18.3044 88.9318
18.4852 56.2667
18.666 65.3609
18.8469 36.2066
19.0278 33.4483
19.2088 33.4618
19.3898 39.3509
19.5709 46.615
19.752 35.8272
19.9332 31.5938
20.1144 32.451
20.2957 42.2182
20.477 38.9924
20.6586 39.0961
20.84 31.7182
21.0215 29.6996
21.203 28.6844
21.3846 28.9643
21.5662 32.1261
21.7479 29.5773
21.9297 30.9976
22.1115 40.5075
22.2933 42.652
22.4753 35.6094
22.6572 29.9833
22.8393 30.3973
23.0214 31.0924
23.2037 38.5528
23.3859 33.7856
23.5682 34.1596
23.7505 33.9872
23.9329 41.7193
24.1154 29.2274
24.2979 27.3918
24.4805 26.3933
24.6631 26.2141
24.8458 27.8105
25.0286 26.0818
25.2114 26.2301
25.3943 28.4135
25.5773 30.3483
25.7605 28.9654
25.9436 26.5646
26.1268 25.5078
26.31 26.467
26.4933 27.9144
26.6767 25.8387
26.8601 27.3159
27.0437 30.4453
27.2272 27.0024
27.4109 24.6447
27.5946 24.6125
27.7784 24.8136
27.9623 25.188
28.1462 25.4771
28.3304 26.8993
28.5145 27.2225
28.6987 24.9696
28.8829 22.9732
29.0673 22.6208
29.2517 23.344
29.4361 22.0465
29.6207 22.0024
29.8053 22.6199
29.99 21.2633
30.1748 21.3365
30.3597 21.0221
30.5447 21.3394
30.7297 21.1192
30.915 21.1064
31.1002 22.877
31.2855 21.7705
31.4708 20.5276
31.6563 20.4613
31.8418 21.3674
32.0275 20.4322
32.2132 20.4244
32.399 20.7995
32.5848 19.7477
32.7708 18.9255
32.9569 18.7212
33.143 18.7176
33.3293 18.3921
33.5158 18.8407
33.7022 19.0183
33.8887 17.9366
34.0753 17.6947
34.262 17.6085
34.4488 17.2263
34.6357 17.0518
34.8227 16.9847
35.0098 16.5107
35.1969 16.3812
35.3842 16.2285
35.5716 16.1784
35.759 16.4571
35.9468 16.6028
36.1345 16.009
36.3222 15.6792
36.5101 15.5457
36.6981 15.5023
36.8861 15.1727
37.0743 15.2394
37.2626 14.8236
37.451 14.6015
37.6395 14.4036
37.8281 14.1852
38.0168 14.0558
38.2056 13.9521
38.3945 13.6246
38.5837 13.5397
38.7728 13.4666
38.9621 13.2098
39.1514 13.1303
39.3409 12.8896
39.5304 12.6468
39.7201 12.5445
39.9099 12.4606
40.0999 12.2948
40.2899 12.2627
40.48 12.0202
40.6703 11.9068
40.8607 11.8125
41.0512 11.6477
41.242 11.5733
41.4327 11.452
41.6236 11.1769
41.8146 11.0628
42.0057 10.907
42.1969 10.8176
42.3882 10.7072
42.5797 10.4593
42.7713 10.367
42.963 10.2181
43.1549 10.0946
43.3468 9.9226
43.5389 9.81247
43.7312 9.66983
43.9237 9.51664
44.1162 9.43434
44.3088 9.31443
44.5016 9.16821
44.6945 9.0842
44.8875 8.94314
45.0806 8.85112
45.2739 8.73639
45.4673 8.62133
45.6609 8.47149
45.8546 8.34184
46.0484 8.28919
46.2424 8.16758
46.4365 8.03139
46.631 7.92316
46.8254 7.80964
47.0199 7.68232
47.2146 7.58893
47.4095 7.4634
47.6044 7.37041
47.7996 7.26411
47.9948 7.14856
48.1902 7.04909
48.3858 6.97407
48.5815 6.8582
48.7774 6.76773
48.9734 6.70109
49.1696 6.5502
49.3661 6.46898
49.5626 6.39468
49.7592 6.32929
49.956 6.19416
50.153 6.12063
50.3501 6.02668
50.5474 5.95685
50.7448 5.86643
50.9424 5.77545
51.1402 5.71637
51.3381 5.60712
51.5362 5.52482
51.7344 5.43492
51.9328 5.3939
52.1316 5.25188
52.3304 5.21562
52.5293 5.10697
52.7284 5.00917
52.9276 4.94799
53.1271 4.88474
53.3267 4.81484
53.5265 4.67307
53.7264 4.63134
53.9266 4.55265
54.1269 4.45958
54.3274 4.34251
54.528 4.23526
54.7289 4.1131
54.9301 3.97666
55.1314 3.873
55.3328 3.72953
55.5344 3.57994
55.7361 3.53905

File: Ni3Fe_FD0023.xy
TT I
1.27165 34.1207
1.45013 28.6531
1.62863 26.1412
1.80712 24.0669
1.98562 23.7523
2.16411 25.7806
2.34263 26.428
2.52115 25.203
2.69965 28.4457
2.87818 38.6626
3.05672 65.691
3.23527 76.3777
3.4138 41.8325
3.59237 38.9869
3.77094 39.7335
3.9495 38.3363
4.12809 51.2577
4.30669 87.4111
4.4853 61.2119
4.6639 46.2632
4.84253 53.0472
5.02118 86.3012
5.19981 271.654
5.37848 3797.45
5.55716 156.25
5.73586 100.047
5.91455 110.99
6.09328 454.285
6.27201 315.118
6.45075 72.5635
6.62952 55.7618
6.8083 54.1021
6.98711 45.0044
7.16591 47.8693
7.34475 72.8652
7.5236 57.3163
7.70247 46.1746
7.88135 37.6273
8.06026 39.1718
8.23919 44.7488
8.41812 56.2883
8.59709 157.382
8.77609 662.808
8.9551 77.3409
9.13412 58.7305
9.31318 249.4
9.49226 53.1135
9.67134 52.7644
9.85047 60.0186
10.0296 99.0498
10.2088 485.116
10.388 132.569
10.5672 91.145
10.7465 270.687
10.9257 48.7492
11.105 42.6732
11.2844 41.1138
11.4637 38.2316
11.6431 37.4665
11.8225 36.7064
12.002 71.8174
12.1814 46.8752
12.3609 94.7413
12.5405 44.9329
12.72 40.8995
12.8996 39.8707
13.0792 42.6688
13.2589 63.3462
13.4386 147.451
13.6183 92.7109
13.7981 157.475
13.9779 62.056
14.1577 47.5622
14.3376 47.7422
14.5175 38.1892
14.6974 38.0032
14.8774 43.0545
15.0574 59.9721
15.2374 92.0894
15.4175 41.0066
15.5976 38.1411
15.7778 41.0181
15.958 53.8447
16.1382 117.522
16.3185 39.6904
16.4988 33.7026
16.6792 31.9359
16.8596 31.6699
17.04 39.5725
17.2205 33.4294
17.401 36.3287
17.5815 47.8185
17.7622 35.0551
17.9428 40.249
18.1237 42.9793
18.3044 89.487
18.4852 56.1781
18.666 64.6003
18.8469 36.067
19.0278 33.4297
19.2088 33.435
19.3898 39.3741
19.5709 46.7944
19.752 35.744
19.9332 31.7771
20.1144 32.4129
20.2957 42.3837
20.477 38.911
20.6586 38.7976
20.84 31.769
21.0215 29.6572
21.203 28.6736
21.3846 28.9668
21.5662 32.0885
21.7479 29.5353
21.9297 30.9006
22.1115 40.6674
22.2933 42.3796
22.4753 35.5186
22.6572 29.9286
22.8393 30.2844
23.0214 31.2209
23.2037 38.7133
23.3859 33.6878
23.5682 34.1705
23.7505 34.2476
23.9329 41.3867
24.1154 29.2405
24.2979 27.3836
24.4805 26.3931
24.6631 26.4157
24.8458 27.7199
25.0286 26.055
25.2114 26.25
25.3943 28.6482
25.5773 30.4729
25.7605 28.779
25.9436 26.6443
26.1268 25.5383
26.31 26.5472
26.4933 27.8205
26.6767 25.7806
26.8601 27.3054
27.0437 30.3352
27.2272 26.8054
27.4109 24.6396
27.5946 24.4682
27.7784 24.8627
27.9623 25.1695
28.1462 25.4879
28.3304 26.9734
28.5145 27.1387
28.6987 24.8185
28.8829 22.9695
29.0673 22.5998
29.2517 23.4055
29.4361 22.2049
29.6207 22.0707
29.8053 22.7127
29.99 21.3248
30.1748 21.3411
30.3597 21.0158
30.5447 21.399
30.7297 21.0872
30.915 21.186
31.1002 22.7987
31.2855 21.6598
31.4708 20.5357
31.6563 20.4739
31.8418 21.4226
32.0275 20.313
32.2132 20.3763
32.399 20.7768
32.5848 19.6165
32.7708 18.9933
32.9569 18.7448
33.143 18.7695
33.3293 18.3964
33.5158 18.8232
33.7022 18.9161
33.8887 17.9725
34.0753 17.6854
34.262 17.5328
34.4488 17.2463
34.6357 17.0047
34.8227 16.9309
35.0098 16.5406
35.1969 16.3337
35.3842 16.2705
35.5716 16.2083
35.759 16.4427
35.9468 16.5726
36.1345 16.026
36.3222 15.5971
36.5101 15.597
36.6981 15.4694
36.8861 15.2126
37.0743 15.125
37.2626 14.7338
37.451 14.508
37.6395 14.4525
37.8281 14.1829
38.0168 14.019
38.2056 13.911
38.3945 13.626
38.5837 13.4983
38.7728 13.4499
38.9621 13.229
39.1514 13.1065
39.3409 12.8211
39.5304 12.6881
39.7201 12.5389
39.9099 12.4179
40.0999 12.2558
40.2899 12.2494
40.48 12.0478
40.6703 11.9307
40.8607 11.8009
41.0512 11.6613
41.242 11.5366
41.4327 11.3969
41.6236 11.1709
41.8146 11.091
42.0057 10.9314
42.1969 10.829
42.3882 10.676
42.5797 10.4677
42.7713 10.3774
42.963 10.1999
43.1549 10.0568
43.3468 9.91708
43.5389 9.78136
43.7312 9.69564
43.9237 9.54844
44.1162 9.44497
44.3088 9.26461
44.5016 9.18191
44.6945 9.05692
44.8875 8.94237
45.0806 8.86874
45.2739 8.68775
45.4673 8.59926
45.6609 8.48302
45.8546 8.39046
46.0484 8.27638
46.2424 8.14504
46.4365 8.03125
46.631 7.94488
46.8254 7.80664
47.0199 7.70226
47.2146 7.59523
47.4095 7.44043
47.6044 7.34682
47.7996 7.28627
47.9948 7.17562
48.1902 7.02944
48.3858 6.97351
48.5815 6.86804
48.7774 6.77259
48.9734 6.68245
49.1696 6.56034
49.3661 6.47981
49.5626 6.41405
49.7592 6.29318
49.956 6.22861
50.153 6.14744
50.3501 6.02277
50.5474 5.96862
50.7448 5.90965
50.9424 5.81527
51.1402 5.69415
51.3381 5.61681
51.5362 5.51227
51.7344 5.44032
51.9328 5.36165
52.1316 5.27021
52.3304 5.19846
52.5293 5.12476
52.7284 5.02603
52.9276 4.94534
53.1271 4.88498
53.3267 4.73359
53.5265 4.72943
53.7264 4.59826
53.9266 4.53093
54.1269 4.43337
54.3274 4.34074
54.528 4.25792
54.7289 4.1304
54.9301 3.97879
55.1314 3.84225
55.3328 3.70403
55.5344 3.60616
55.7361 3.52962

File: Ni3Fe_FD0024.xy
TT I
1.27165 34.2236
1.45013 29.0238
1.62863 26.3969
1.80712 24.0171
1.98562 23.2498
2.16411 24.9574
2.34263 25.8393
2.52115 23.7667
2.69965 28.2705
2.87818 38.2098
3.05672 65.4395
3.23527 75.8903
3.4138 41.4265
3.59237 38.7489
3.77094 39.5318
3.9495 37.8312
4.12809 50.9024
4.30669 89.1335
4.4853 61.0641
4.6639 45.9257
4.84253 52.3869
5.02118 85.764
5.19981 273.755
5.37848 3769.5
5.55716 155.947
5.73586 100.175
5.91455 111.017
6.09328 458.518
6.27201 312.588
6.45075 72.191
6.62952 55.7701
6.8083 54.6886
6.98711 45.0533
7.16591 47.4958
7.34475 74.0145
7.5236 56.6776
7.70247 45.7736
7.88135 37.5266
8.06026 38.7774
8.23919 44.3376
8.41812 56.7058
8.59709 158.951
8.77609 652.875
8.9551 77.4305
9.13412 58.7632
9.31318 248.961
9.49226 52.8851
9.67134 53.0768
9.85047 60.4205
10.0296 99.9885
10.2088 493.138
10.388 130.864
10.5672 91.2879
10.7465 267.839
10.9257 48.9168
11.105 42.8332
11.2844 41.6438
11.4637 38.2167
11.6431 37.673
11.8225 36.7036
12.002 72.356
12.1814 46.9914
12.3609 94.7338
12.5405 44.7768
12.72 41.3743
12.8996 39.7427
13.0792 42.6117
13.2589 63.4135
13.4386 149.929
13.6183 91.7247
13.7981 159.858
13.9779 61.7501
14.1577 47.8276
14.3376 47.5291
14.5175 38.1947
14.6974 38.3033
14.8774 43.2925
15.0574 60.459
15.2374 90.7241
15.4175 41.2498
15.5976 38.5866
15.7778 41.1919
15.958 54.1015
16.1382 116.134
16.3185 39.6198
16.4988 33.8629
16.6792 31.8575
16.8596 31.8703
17.04 39.6028
17.2205 33.712
17.401 36.5369
17.5815 47.4124
17.7622 35.2403
17.9428 40.0716
18.1237 43.0296
18.3044 89.992
18.4852 55.9564
18.666 64.1091
18.8469 36.1114
19.0278 33.6201
19.2088 33.683
19.3898 39.6364
19.5709 46.9291
19.752 35.6481
19.9332 31.8379
20.1144 32.3457
20.2957 42.7543
20.477 38.8725
20.6586 38.6333
20.84 31.8208
21.0215 29.6885
21.203 28.6869
21.3846 29.2029
21.5662 32.0131
21.7479 29.5783
21.9297 31.0836
22.1115 40.9097
22.2933 42.1654
22.4753 35.3446
22.6572 30.0621
22.8393 30.4471
23.0214 31.1614
23.2037 39.0054
23.3859 33.5682
23.5682 34.261
23.7505 34.2098
23.9329 41.0106
24.1154 29.2879
24.2979 27.3592
24.4805 26.572
24.6631 26.4746
24.8458 27.637
25.0286 26.1614
25.2114 26.2719
25.3943 28.713
25.5773 30.2757
25.7605 28.6578
25.9436 26.7096
26.1268 25.5201
26.31 26.6007
26.4933 27.7249
26.6767 25.8061
26.8601 27.3742
27.0437 30.0985
27.2272 26.7237
27.4109 24.6814
27.5946 24.5662
27.7784 24.9845
27.9623 25.186
28.1462 25.6174
28.3304 27.009
28.5145 27.0209
28.6987 24.813
28.8829 22.9946
29.0673 22.6433
29.2517 23.3361
29.4361 22.1485
29.6207 21.9283
29.8053 22.6873
29.99 21.427
30.1748 21.2802
30.3597 21.0727
30.5447 21.4446
30.7297 21.1047
30.915 21.2534
31.1002 22.7665
31.2855 21.581
31.4708 20.5083
31.6563 20.4995
31.8418 21.3068
32.0275 20.436
32.2132 20.4534
32.399 20.7644
32.5848 19.6635
32.7708 19.0157
32.9569 18.8003
33.143 18.8478
33.3293 18.4115
33.5158 18.8294
33.7022 18.8936
33.8887 17.9411
34.0753 17.6892
34.262 17.5974
34.4488 17.2493
34.6357 16.998
34.8227 16.9351
35.0098 16.5586
35.1969 16.3726
35.3842 16.2647
35.5716 16.1525
35.759 16.4722
35.9468 16.5511
36.1345 15.9673
36.3222 15.6088
36.5101 15.5728
36.6981 15.4537
36.8861 15.2084
37.0743 15.1841
37.2626 14.7602
37.451 14.5338
37.6395 14.3735
37.8281 14.1581
38.0168 13.9812
38.2056 13.8894
38.3945 13.5796
38.5837 13.472
38.7728 13.4367
38.9621 13.1858
39.1514 13.1173
39.3409 12.864
39.5304 12.7234
39.7201 12.5443
39.9099 12.3626
40.0999 12.2943
40.2899 12.2191
40.48 11.9997
40.6703 11.9327
40.8607 11.7535
41.0512 11.6448
41.242 11.5463
41.4327 11.3977
41.6236 11.1635
41.8146 11.0797
42.0057 10.9348
42.1969 10.8681
42.3882 10.6833
42.5797 10.4669
42.7713 10.36
42.963 10.2406
43.1549 10.0603
43.3468 9.90295
43.5389 9.81346
43.7312 9.65177
43.9237 9.57795
44.1162 9.42093
44.3088 9.29683
44.5016 9.19478
44.6945 9.08505
44.8875 8.94507
45.0806 8.85242
45.2739 8.69574
45.4673 8.61956
45.6609 8.49767
45.8546 8.36607
46.0484 8.26075
46.2424 8.1505
46.4365 8.0278
46.631 7.91126
46.8254 7.81935
47.0199 7.69816
47.2146 7.61286
47.4095 7.4592
47.6044 7.35523
47.7996 7.24918
47.9948 7.19754
48.1902 7.01346
48.3858 6.98123
48.5815 6.86841
48.7774 6.74305
48.9734 6.66537
49.1696 6.56433
49.3661 6.46736
49.5626 6.34359
49.7592 6.30578
49.956 6.23108
50.153 6.12891
50.3501 6.03421
50.5474 5.94899
50.7448 5.89573
50.9424 5.7758
51.1402 5.67997
51.3381 5.60666
51.5362 5.53565
51.7344 5.40089
51.9328 5.35303
52.1316 5.27471
52.3304 5.21171
52.5293 5.08908
52.7284 5.03618
52.9276 4.96868
53.1271 4.89491
53.3267 4.78739
53.5265 4.69239
53.7264 4.61319
53.9266 4.54929
54.1269 4.44379
54.3274 4.33282
54.528 4.23592
54.7289 4.13589
54.9301 3.97277
55.1314 3.86995
55.3328 3.70849
55.5344 3.57568
55.7361 3.54798

File: Ni3Fe_FD0025.xy
TT I
1.27165 34.4959
1.45013 28.7358
1.62863 25.4373
1.80712 23.5618
1.98562 23.0904
2.16411 25.1295
2.34263 26.0438
2.52115 25.1542
2.69965 27.8333
2.87818 38.0895
3.05672 64.683
3.23527 75.3352
3.4138 40.9762
3.59237 38.6756
3.77094 39.1847
3.9495 37.4311
4.12809 50.3335
4.30669 89.9879
4.4853 61.0308
4.6639 45.9373
4.84253 52.2913
5.02118 86.3717
5.19981 277.434
5.37848 3730.88
5.55716 155.439
5.73586 100.213
5.91455 111.174
6.09328 463.247
6.27201 307.404
6.45075 71.8779
6.62952 55.7532
6.8083 54.8494
6.98711 45.1267
7.16591 47.5486
7.34475 75.3458
7.5236 56.1823
7.70247 45.5076
7.88135 37.4399
8.06026 39.1003
8.23919 44.7587
8.41812 56.7059
8.59709 160.541
8.77609 642.194
8.9551 77.5659
9.13412 59.0122
9.31318 249.389
9.49226 53.0206
9.67134 53.3452
9.85047 60.5842
10.0296 101.134
10.2088 503.979
10.388 129.55
10.5672 91.5344
10.7465 264.058
10.9257 49.1346
11.105 42.8684
11.2844 41.7573
11.4637 38.599
11.6431 37.9165
11.8225 36.9176
12.002 72.9234
12.1814 46.8191
12.3609 95.0106
12.5405 44.8591
12.72 41.5197
12.8996 40.1396
13.0792 42.5085
13.2589 63.7872
13.4386 152.158
13.6183 91.5208
13.7981 161.979
13.9779 60.9759
14.1577 48.143
14.3376 47.1391
14.5175 38.3568
14.6974 38.5265
14.8774 43.4401
15.0574 60.9851
15.2374 88.7656
15.4175 41.387
15.5976 38.301
15.7778 41.5273
15.958 54.5529
16.1382 113.895
16.3185 39.6466
16.4988 34.0203
16.6792 32.1421
16.8596 31.9123
17.04 39.6985
17.2205 33.7563
17.401 36.591
17.5815 46.852
17.7622 35.4169
17.9428 39.9919
18.1237 43.0909
18.3044 90.5918
18.4852 55.7752
18.666 62.9299
18.8469 36.2179
19.0278 33.5376
19.2088 33.7726
19.3898 39.8829
19.5709 46.9227
19.752 35.4926
19.9332 32.0615
20.1144 32.6909
20.2957 42.9581
20.477 38.8827
20.6586 38.2152
20.84 31.9412
21.0215 29.6635
21.203 28.841
21.3846 29.3215
21.5662 32.2076
21.7479 29.69
21.9297 31.2844
22.1115 41.0248
22.2933 41.5652
22.4753 35.0945
22.6572 30.0256
22.8393 30.4928
23.0214 31.2635
23.2037 39.2296
23.3859 33.4684
23.5682 34.197
23.7505 34.1983
23.9329 40.4774
24.1154 29.3102
24.2979 27.6907
24.4805 26.6164
24.6631 26.4347
24.8458 27.7817
25.0286 26.2931
25.2114 26.384
25.3943 28.6571
25.5773 30.3393
25.7605 28.5197
25.9436 26.6971
26.1268 25.5674
26.31 26.6636
26.4933 27.6333
26.6767 25.7178
26.8601 27.3562
27.0437 30.025
27.2272 26.6743
27.4109 24.8286
27.5946 24.6197
27.7784 24.9382
27.9623 25.0008
28.1462 25.4578
28.3304 26.942
28.5145 26.8829
28.6987 24.8472
28.8829 22.9774
29.0673 22.639
29.2517 23.3408
29.4361 22.1467
29.6207 22.0996
29.8053 22.5783
29.99 21.295
30.1748 21.4196
30.3597 21.0797
30.5447 21.3883
30.7297 20.9875
30.915 21.1475
31.1002 22.7585
31.2855 21.4716
31.4708 20.5463
31.6563 20.5745
31.8418 21.2906
32.0275 20.377
32.2132 20.4124
32.399 20.6663
32.5848 19.6207
32.7708 18.8898
32.9569 18.7816
33.143 18.8571
33.3293 18.3975
33.5158 18.8508
33.7022 18.8342
33.8887 18.0145
34.0753 17.6247
34.262 17.5843
34.4488 17.219
34.6357 17.0501
34.8227 16.8894
35.0098 16.549
35.1969 16.3931
35.3842 16.3355
35.5716 16.2203
35.759 16.4256
35.9468 16.4696
36.1345 16.0005
36.3222 15.6877
36.5101 15.6595
36.6981 15.3992
36.8861 15.1348
37.0743 15.1264
37.2626 14.8003
37.451 14.5707
37.6395 14.4363
37.8281 14.195
38.0168 13.9824
38.2056 13.8874
38.3945 13.5585
38.5837 13.4822
38.7728 13.3758
38.9621 13.2409
39.1514 13.1403
39.3409 12.8663
39.5304 12.6518
39.7201 12.5292
39.9099 12.423
40.0999 12.2888
40.2899 12.2016
40.48 12.0478
40.6703 11.9264
40.8607 11.7962
41.0512 11.6646
41.242 11.545
41.4327 11.3734
41.6236 11.1634
41.8146 11.0447
42.0057 10.896
42.1969 10.8381
42.3882 10.699
42.5797 10.4475
42.7713 10.3193
42.963 10.2358
43.1549 10.0282
43.3468 9.8935
43.5389 9.82502
43.7312 9.61739
43.9237 9.55068
44.1162 9.4671
44.3088 9.26904
44.5016 9.13215
44.6945 9.03951
44.8875 8.98035
45.0806 8.8876
45.2739 8.6777
45.4673 8.64471
45.6609 8.45634
45.8546 8.36871
46.0484 8.31389
46.2424 8.14827
46.4365 8.03015
46.631 7.92712
46.8254 7.79756
47.0199 7.70661
47.2146 7.58645
47.4095 7.46
47.6044 7.33383
47.7996 7.2357
47.9948 7.1469
48.1902 7.07081
48.3858 6.92995
48.5815 6.86215
48.7774 6.76851
48.9734 6.68405
49.1696 6.58478
49.3661 6.45844
49.5626 6.37405
49.7592 6.30949
49.956 6.19788
50.153 6.12499
50.3501 6.02527
50.5474 5.97332
50.7448 5.86541
50.9424 5.77283
51.1402 5.69
51.3381 5.58884
51.5362 5.51485
51.7344 5.45518
51.9328 5.34665
52.1316 5.26334
52.3304 5.17629
52.5293 5.11763
52.7284 5.02618
52.9276 4.96685
53.1271 4.87121
53.3267 4.77834
53.5265 4.65379
53.7264 4.6362
53.9266 4.53177
54.1269 4.47521
54.3274 4.35303
54.528 4.21706
54.7289 4.03247
54.9301 3.99999
55.1314 3.85592
55.3328 3.71022
55.5344 3.54776
55.7361 3.52293