Folder: NiFe_MOF_catalyst_paper/XRD (part 81)

File: Ni3Fe_FD0433.xy
TT I
1.27165 7.20531
1.45013 6.26846
1.62863 5.73359
1.80712 4.97411
1.98562 4.78629
2.16411 5.04636
2.34263 5.02388
2.52115 5.81408
2.69965 7.12936
2.87818 8.7486
3.05672 10.8463
3.23527 14.9818
3.4138 18.9167
3.59237 24.0235
3.77094 26.3272
3.9495 29.5853
4.12809 35.2345
4.30669 204.361
4.4853 64.8698
4.6639 56.2435
4.84253 68.6676
5.02118 89.1083
5.19981 437.666
5.37848 207.258
5.55716 104.322
5.73586 94.4098
5.91455 98.215
6.09328 4259.7
6.27201 85.3321
6.45075 68.4739
6.62952 63.6314
6.8083 59.4873
6.98711 56.6091
7.16591 56.0517
7.34475 90.2465
7.5236 55.6299
7.70247 56.96
7.88135 59.0153
8.06026 63.4
8.23919 70.6684
8.41812 87.4405
8.59709 1197.72
8.77609 102.137
8.9551 92.8845
9.13412 83.2209
9.31318 84.4442
9.49226 86.0463
9.67134 99.6722
9.85047 102.177
10.0296 379.582
10.2088 430.111
10.388 106.977
10.5672 503.912
10.7465 88.2653
10.9257 79.812
11.105 72.887
11.2844 71.5018
11.4637 65.864
11.6431 64.4775
11.8225 63.4642
12.002 64.819
12.1814 153.289
12.3609 71.5644
12.5405 65.5701
12.72 70.9745
12.8996 72.299
13.0792 80.5179
13.2589 240.233
13.4386 128.824
13.6183 245.82
13.7981 99.5095
13.9779 77.0739
14.1577 73.657
14.3376 72.923
14.5175 70.0846
14.6974 71.7442
14.8774 114.446
15.0574 154.917
15.2374 72.1185
15.4175 67.7043
15.5976 66.9726
15.7778 98.384
15.958 159.575
16.1382 63.7962
16.3185 59.5815
16.4988 56.5227
16.6792 55.4804
16.8596 56.2394
17.04 56.9973
17.2205 68.0638
17.401 72.4534
17.5815 60.28
17.7622 62.4084
17.9428 76.0982
18.1237 139.976
18.3044 91.4244
18.4852 79.3576
18.666 61.5138
18.8469 59.0744
19.0278 57.9407
19.2088 60.7756
19.3898 77.4846
19.5709 55.1745
19.752 54.2488
19.9332 57.4742
20.1144 71.0597
20.2957 64.4059
20.477 54.737
20.6586 50.5631
20.84 49.8536
21.0215 49.4412
21.203 51.8199
21.3846 49.9506
21.5662 49.7282
21.7479 53.6959
21.9297 65.4829
22.1115 56.6781
22.2933 50.9584
22.4753 49.853
22.6572 49.9228
22.8393 52.945
23.0214 58.3508
23.2037 49.7364
23.3859 50.7384
23.5682 57.5707
23.7505 49.2502
23.9329 46.0511
24.1154 44.8975
24.2979 44.1569
24.4805 43.7583
24.6631 43.6444
24.8458 42.9993
25.0286 43.6212
25.2114 45.284
25.3943 45.4537
25.5773 41.7518
25.7605 41.093
25.9436 41.5769
26.1268 42.5087
26.31 40.8485
26.4933 41.582
26.6767 42.9213
26.8601 41.1882
27.0437 39.6015
27.2272 39.2041
27.4109 39.1236
27.5946 39.1474
27.7784 38.5437
27.9623 39.0723
28.1462 39.6363
28.3304 37.8741
28.5145 36.6117
28.6987 36.2332
28.8829 36.1107
29.0673 35.243
29.2517 34.981
29.4361 34.7838
29.6207 33.7145
29.8053 33.4487
29.99 33.0454
30.1748 33.0432
30.3597 32.9332
30.5447 32.7692
30.7297 32.7526
30.915 32.1003
31.1002 31.6255
31.2855 31.4304
31.4708 31.2976
31.6563 30.9154
31.8418 30.628
32.0275 30.5229
32.2132 29.915
32.399 29.4916
32.5848 29.0228
32.7708 28.6683
32.9569 28.4633
33.143 28.2893
33.3293 27.8197
33.5158 27.5179
33.7022 27.0759
33.8887 26.7787
34.0753 26.4369
34.262 26.1408
34.4488 25.7861
34.6357 25.3638
34.8227 25.1765
35.0098 24.9016
35.1969 24.6461
35.3842 24.4426
35.5716 24.1754
35.759 23.8967
35.9468 23.5514
36.1345 23.2583
36.3222 23.004
36.5101 22.8706
36.6981 22.4352
36.8861 22.1976
37.0743 21.8512
37.2626 21.6031
37.451 21.3565
37.6395 21.1979
37.8281 20.8739
38.0168 20.5167
38.2056 20.252
38.3945 20.0863
38.5837 19.8057
38.7728 19.5584
38.9621 19.2552
39.1514 19.0319
39.3409 18.8293
39.5304 18.5724
39.7201 18.419
39.9099 18.1701
40.0999 17.8981
40.2899 17.6213
40.48 17.4134
40.6703 17.2601
40.8607 17.0452
41.0512 16.7915
41.242 16.594
41.4327 16.3921
41.6236 16.1038
41.8146 15.9139
42.0057 15.674
42.1969 15.4823
42.3882 15.2981
42.5797 15.1242
42.7713 14.888
42.963 14.6922
43.1549 14.4833
43.3468 14.19
43.5389 14.083
43.7312 13.8559
43.9237 13.6905
44.1162 13.5112
44.3088 13.3116
44.5016 13.0591
44.6945 12.9724
44.8875 12.767
45.0806 12.6118
45.2739 12.4104
45.4673 12.2396
45.6609 12.0396
45.8546 11.9432
46.0484 11.7581
46.2424 11.5771
46.4365 11.4291
46.631 11.245
46.8254 11.0417
47.0199 10.8867
47.2146 10.7435
47.4095 10.538
47.6044 10.4436
47.7996 10.2723
47.9948 10.1219
48.1902 9.9541
48.3858 9.76656
48.5815 9.72523
48.7774 9.57222
48.9734 9.40337
49.1696 9.30029
49.3661 9.08784
49.5626 8.96688
49.7592 8.85592
49.956 8.74388
50.153 8.59972
50.3501 8.41346
50.5474 8.35912
50.7448 8.19277
50.9424 8.0641
51.1402 7.94328
51.3381 7.76673
51.5362 7.63256
51.7344 7.56741
51.9328 7.42166
52.1316 7.3157
52.3304 7.18345
52.5293 7.05092
52.7284 6.93642
52.9276 6.83688
53.1271 6.72579
53.3267 6.60155
53.5265 6.49953
53.7264 6.40089
53.9266 6.32989
54.1269 6.15958
54.3274 6.02973
54.528 5.90669
54.7289 5.71582
54.9301 5.60966
55.1314 5.44692
55.3328 5.27779
55.5344 5.04633
55.7361 4.91665

File: Ni3Fe_FD0434.xy
TT I
1.27165 7.6059
1.45013 6.648
1.62863 5.14014
1.80712 4.37594
1.98562 4.52903
2.16411 5.25128
2.34263 5.31825
2.52115 6.42038
2.69965 7.33446
2.87818 8.66077
3.05672 10.9922
3.23527 15.0896
3.4138 19.1295
3.59237 23.9749
3.77094 26.2606
3.9495 30.281
4.12809 35.2654
4.30669 198.095
4.4853 64.6458
4.6639 56.317
4.84253 68.3703
5.02118 89.4469
5.19981 441.326
5.37848 208.037
5.55716 103.771
5.73586 94.4354
5.91455 97.9203
6.09328 4225.53
6.27201 84.928
6.45075 68.5052
6.62952 63.7235
6.8083 59.666
6.98711 56.6117
7.16591 56.5486
7.34475 88.809
7.5236 55.2635
7.70247 56.9921
7.88135 58.8966
8.06026 63.1469
8.23919 70.5388
8.41812 87.308
8.59709 1202.86
8.77609 102.368
8.9551 92.4479
9.13412 83.4656
9.31318 84.2974
9.49226 85.7918
9.67134 99.4568
9.85047 101.456
10.0296 382.332
10.2088 430.869
10.388 107.285
10.5672 505.188
10.7465 88.4419
10.9257 79.6613
11.105 72.795
11.2844 71.1161
11.4637 66.0031
11.6431 64.5428
11.8225 63.453
12.002 65.056
12.1814 152.652
12.3609 71.3689
12.5405 65.4975
12.72 71.1286
12.8996 72.1298
13.0792 80.7125
13.2589 241.835
13.4386 128.537
13.6183 246.781
13.7981 99.43
13.9779 77.1252
14.1577 73.8059
14.3376 72.7436
14.5175 69.9555
14.6974 71.7545
14.8774 114.791
15.0574 154.482
15.2374 71.9598
15.4175 67.3393
15.5976 67.0487
15.7778 98.9363
15.958 159.301
16.1382 63.7753
16.3185 59.5485
16.4988 56.7101
16.6792 55.5567
16.8596 56.1125
17.04 56.7601
17.2205 68.1232
17.401 72.6605
17.5815 60.2644
17.7622 62.4365
17.9428 76.4502
18.1237 139.982
18.3044 91.3356
18.4852 79.1888
18.666 61.4516
18.8469 59.1438
19.0278 57.8496
19.2088 60.8967
19.3898 77.5147
19.5709 55.2768
19.752 54.4427
19.9332 57.561
20.1144 70.9776
20.2957 64.4855
20.477 54.5874
20.6586 50.5543
20.84 49.87
21.0215 49.5906
21.203 51.6353
21.3846 49.8706
21.5662 49.8082
21.7479 53.7923
21.9297 65.4035
22.1115 56.8896
22.2933 50.8298
22.4753 49.7538
22.6572 49.7836
22.8393 52.8079
23.0214 58.3255
23.2037 49.7053
23.3859 50.6982
23.5682 57.5848
23.7505 49.3846
23.9329 45.973
24.1154 45.0173
24.2979 44.3136
24.4805 43.7373
24.6631 43.6214
24.8458 42.9784
25.0286 43.5466
25.2114 45.4889
25.3943 45.5043
25.5773 41.8153
25.7605 41.2694
25.9436 41.5608
26.1268 42.5362
26.31 41.0145
26.4933 41.5659
26.6767 42.8465
26.8601 41.2865
27.0437 39.5463
27.2272 39.2606
27.4109 39.2435
27.5946 39.1974
27.7784 38.4378
27.9623 39.0275
28.1462 39.3898
28.3304 37.91
28.5145 36.7208
28.6987 36.1722
28.8829 36.0838
29.0673 35.1831
29.2517 34.916
29.4361 34.8238
29.6207 33.7065
29.8053 33.511
29.99 33.1985
30.1748 32.9234
30.3597 32.8129
30.5447 32.7385
30.7297 32.7381
30.915 32.1638
31.1002 31.7111
31.2855 31.4177
31.4708 31.3595
31.6563 30.9873
31.8418 30.6643
32.0275 30.4865
32.2132 29.9543
32.399 29.4583
32.5848 29.057
32.7708 28.6567
32.9569 28.5122
33.143 28.2277
33.3293 27.9348
33.5158 27.5942
33.7022 27.0839
33.8887 26.7854
34.0753 26.4605
34.262 26.1821
34.4488 25.6846
34.6357 25.3811
34.8227 25.1357
35.0098 24.965
35.1969 24.6096
35.3842 24.4514
35.5716 24.2162
35.759 23.951
35.9468 23.5426
36.1345 23.2951
36.3222 23.1087
36.5101 22.8302
36.6981 22.548
36.8861 22.24
37.0743 21.9074
37.2626 21.6131
37.451 21.3679
37.6395 21.2128
37.8281 20.8515
38.0168 20.5133
38.2056 20.3276
38.3945 20.0443
38.5837 19.8338
38.7728 19.5945
38.9621 19.3066
39.1514 19.0765
39.3409 18.773
39.5304 18.5753
39.7201 18.3927
39.9099 18.1233
40.0999 17.9215
40.2899 17.6263
40.48 17.4504
40.6703 17.2311
40.8607 17.0857
41.0512 16.8112
41.242 16.5384
41.4327 16.3436
41.6236 16.0537
41.8146 15.8953
42.0057 15.7098
42.1969 15.5019
42.3882 15.3196
42.5797 15.0881
42.7713 14.8701
42.963 14.6748
43.1549 14.4944
43.3468 14.2425
43.5389 14.0952
43.7312 13.8897
43.9237 13.7401
44.1162 13.4666
44.3088 13.3028
44.5016 13.0963
44.6945 12.9892
44.8875 12.8115
45.0806 12.596
45.2739 12.4055
45.4673 12.2503
45.6609 12.0394
45.8546 11.9083
46.0484 11.7307
46.2424 11.5668
46.4365 11.3739
46.631 11.2387
46.8254 11.0021
47.0199 10.9011
47.2146 10.7427
47.4095 10.58
47.6044 10.448
47.7996 10.2899
47.9948 10.1151
48.1902 9.95198
48.3858 9.81832
48.5815 9.7175
48.7774 9.56331
48.9734 9.40085
49.1696 9.29087
49.3661 9.11792
49.5626 8.96439
49.7592 8.85242
49.956 8.70688
50.153 8.58968
50.3501 8.45539
50.5474 8.32599
50.7448 8.2166
50.9424 8.08357
51.1402 7.92191
51.3381 7.84063
51.5362 7.70662
51.7344 7.60826
51.9328 7.41498
52.1316 7.29897
52.3304 7.20343
52.5293 7.05892
52.7284 6.95037
52.9276 6.81978
53.1271 6.75809
53.3267 6.61133
53.5265 6.50789
53.7264 6.37377
53.9266 6.28745
54.1269 6.13688
54.3274 6.05041
54.528 5.91606
54.7289 5.7005
54.9301 5.57837
55.1314 5.48288
55.3328 5.2361
55.5344 5.02564
55.7361 4.93568

File: Ni3Fe_FD0435.xy
TT I
1.27165 7.31583
1.45013 5.82263
1.62863 5.81973
1.80712 4.28059
1.98562 4.61325
2.16411 4.50711
2.34263 4.89407
2.52115 5.87222
2.69965 7.58402
2.87818 8.69196
3.05672 11.2027
3.23527 14.5143
3.4138 19.5037
3.59237 23.7205
3.77094 26.6346
3.9495 29.91
4.12809 35.0112
4.30669 194.345
4.4853 63.8512
4.6639 56.3035
4.84253 68.808
5.02118 89.7924
5.19981 445.124
5.37848 207.759
5.55716 104.287
5.73586 94.1716
5.91455 98.1514
6.09328 4178.84
6.27201 85.3309
6.45075 68.2437
6.62952 63.7706
6.8083 59.1121
6.98711 56.5999
7.16591 56.4144
7.34475 88.2251
7.5236 55.3293
7.70247 56.8606
7.88135 58.7394
8.06026 63.3269
8.23919 70.3927
8.41812 87.4229
8.59709 1204.55
8.77609 101.979
8.9551 92.4302
9.13412 83.308
9.31318 84.2168
9.49226 85.9226
9.67134 99.3292
9.85047 101.905
10.0296 384.676
10.2088 434.268
10.388 106.906
10.5672 504.726
10.7465 88.082
10.9257 79.6671
11.105 72.8303
11.2844 70.9035
11.4637 65.7442
11.6431 64.4526
11.8225 63.235
12.002 64.8173
12.1814 152.42
12.3609 71.1638
12.5405 65.486
12.72 70.8073
12.8996 72.2904
13.0792 80.6212
13.2589 241.387
13.4386 128.402
13.6183 247.012
13.7981 99.3499
13.9779 76.9697
14.1577 73.521
14.3376 72.5031
14.5175 70.085
14.6974 71.5597
14.8774 114.868
15.0574 154.412
15.2374 71.9314
15.4175 67.2713
15.5976 66.9491
15.7778 98.9256
15.958 160.071
16.1382 63.5949
16.3185 59.519
16.4988 56.3242
16.6792 55.5994
16.8596 56.0276
17.04 56.8318
17.2205 68.1655
17.401 72.5392
17.5815 60.4762
17.7622 62.3239
17.9428 76.3508
18.1237 139.518
18.3044 91.2368
18.4852 78.9479
18.666 61.4096
18.8469 59.192
19.0278 57.777
19.2088 60.7454
19.3898 77.5784
19.5709 55.1056
19.752 54.157
19.9332 57.4621
20.1144 70.7021
20.2957 64.3609
20.477 54.5277
20.6586 50.5678
20.84 49.6343
21.0215 49.4817
21.203 51.5627
21.3846 49.994
21.5662 49.6836
21.7479 53.8
21.9297 65.5281
22.1115 56.8002
22.2933 50.8654
22.4753 49.8185
22.6572 49.7854
22.8393 52.9446
23.0214 58.2967
23.2037 49.6589
23.3859 50.7489
23.5682 57.5075
23.7505 49.2551
23.9329 45.989
24.1154 45.0264
24.2979 44.19
24.4805 43.5912
24.6631 43.7413
24.8458 43.095
25.0286 43.7394
25.2114 45.5835
25.3943 45.4355
25.5773 41.6532
25.7605 41.2378
25.9436 41.6194
26.1268 42.4232
26.31 40.8691
26.4933 41.4074
26.6767 42.8735
26.8601 41.1675
27.0437 39.5642
27.2272 39.2835
27.4109 39.0962
27.5946 38.9502
27.7784 38.5658
27.9623 39.099
28.1462 39.3387
28.3304 37.7946
28.5145 36.6034
28.6987 36.1981
28.8829 36.0509
29.0673 35.2841
29.2517 34.9413
29.4361 34.7408
29.6207 33.7244
29.8053 33.5103
29.99 33.236
30.1748 32.991
30.3597 32.7495
30.5447 32.7098
30.7297 32.7925
30.915 32.1644
31.1002 31.5967
31.2855 31.4632
31.4708 31.3495
31.6563 30.9201
31.8418 30.6035
32.0275 30.3826
32.2132 29.9104
32.399 29.4065
32.5848 28.9673
32.7708 28.5973
32.9569 28.4883
33.143 28.3511
33.3293 27.9423
33.5158 27.5683
33.7022 27.0243
33.8887 26.8179
34.0753 26.3776
34.262 26.129
34.4488 25.7021
34.6357 25.377
34.8227 25.0914
35.0098 24.8828
35.1969 24.7363
35.3842 24.3792
35.5716 24.2352
35.759 23.8177
35.9468 23.5009
36.1345 23.277
36.3222 23.0838
36.5101 22.8226
36.6981 22.5048
36.8861 22.0957
37.0743 21.8782
37.2626 21.5181
37.451 21.2921
37.6395 21.2892
37.8281 20.8466
38.0168 20.5684
38.2056 20.3424
38.3945 19.9812
38.5837 19.7946
38.7728 19.5179
38.9621 19.2803
39.1514 19.0572
39.3409 18.8739
39.5304 18.5541
39.7201 18.3215
39.9099 18.166
40.0999 17.8778
40.2899 17.6878
40.48 17.4435
40.6703 17.238
40.8607 17.0213
41.0512 16.866
41.242 16.5458
41.4327 16.3214
41.6236 16.1008
41.8146 15.9299
42.0057 15.676
42.1969 15.4466
42.3882 15.3108
42.5797 15.1013
42.7713 14.8494
42.963 14.6749
43.1549 14.4901
43.3468 14.2213
43.5389 14.0977
43.7312 13.8538
43.9237 13.7034
44.1162 13.4716
44.3088 13.2899
44.5016 13.1237
44.6945 12.9221
44.8875 12.7443
45.0806 12.5832
45.2739 12.4242
45.4673 12.2358
45.6609 12.0537
45.8546 11.9082
46.0484 11.7337
46.2424 11.5208
46.4365 11.4132
46.631 11.2549
46.8254 11.0238
47.0199 10.8723
47.2146 10.7298
47.4095 10.6062
47.6044 10.4255
47.7996 10.2183
47.9948 10.0963
48.1902 9.94725
48.3858 9.82973
48.5815 9.6619
48.7774 9.52311
48.9734 9.45597
49.1696 9.28754
49.3661 9.12595
49.5626 8.96847
49.7592 8.83283
49.956 8.69527
50.153 8.56565
50.3501 8.42888
50.5474 8.32153
50.7448 8.2093
50.9424 8.06293
51.1402 7.96666
51.3381 7.82525
51.5362 7.68669
51.7344 7.5432
51.9328 7.40612
52.1316 7.30047
52.3304 7.23396
52.5293 7.06454
52.7284 6.97054
52.9276 6.84567
53.1271 6.70448
53.3267 6.61792
53.5265 6.54791
53.7264 6.39758
53.9266 6.23278
54.1269 6.16364
54.3274 6.01056
54.528 5.92429
54.7289 5.69651
54.9301 5.57929
55.1314 5.42757
55.3328 5.24541
55.5344 5.1112
55.7361 4.91765

File: Ni3Fe_FD0436.xy
TT I
1.27165 7.07913
1.45013 6.20606
1.62863 5.51155
1.80712 4.89191
1.98562 4.83959
2.16411 4.43713
2.34263 4.66011
2.52115 6.45543
2.69965 7.33438
2.87818 9.02184
3.05672 10.7582
3.23527 15.2095
3.4138 18.9899
3.59237 23.6887
3.77094 26.1168
3.9495 30.0012
4.12809 35.4321
4.30669 188.51
4.4853 63.4475
4.6639 56.4913
4.84253 68.5366
5.02118 89.4736
5.19981 451.583
5.37848 206.555
5.55716 104.174
5.73586 94.3681
5.91455 98.5953
6.09328 4321.79
6.27201 84.819
6.45075 68.7804
6.62952 63.4618
6.8083 59.5165
6.98711 56.7149
7.16591 55.9943
7.34475 86.8118
7.5236 55.8332
7.70247 57.1169
7.88135 58.9682
8.06026 63.7216
8.23919 70.9933
8.41812 87.3011
8.59709 1220.4
8.77609 102.17
8.9551 92.2981
9.13412 83.2569
9.31318 84.3653
9.49226 86.2973
9.67134 99.2336
9.85047 102.243
10.0296 387.958
10.2088 428.802
10.388 106.88
10.5672 507.226
10.7465 88.3703
10.9257 79.3727
11.105 73.0324
11.2844 71.2203
11.4637 65.9532
11.6431 64.6643
11.8225 63.5079
12.002 65.173
12.1814 154.259
12.3609 71.2762
12.5405 65.7494
12.72 70.7025
12.8996 72.1081
13.0792 80.8917
13.2589 243.815
13.4386 127.964
13.6183 248.145
13.7981 98.7905
13.9779 77.153
14.1577 73.4042
14.3376 72.8046
14.5175 70.3254
14.6974 72.0318
14.8774 115.298
15.0574 153.579
15.2374 72.2302
15.4175 67.5057
15.5976 67.3117
15.7778 99.2754
15.958 159.175
16.1382 63.4194
16.3185 59.6292
16.4988 56.2694
16.6792 55.5474
16.8596 56.2946
17.04 57.0115
17.2205 68.205
17.401 72.2859
17.5815 60.1857
17.7622 62.426
17.9428 76.4358
18.1237 139.281
18.3044 91.5048
18.4852 78.9922
18.666 61.6453
18.8469 59.0759
19.0278 57.9691
19.2088 61.048
19.3898 77.4982
19.5709 55.0413
19.752 54.2323
19.9332 57.6533
20.1144 70.963
20.2957 64.6752
20.477 54.6636
20.6586 50.6075
20.84 49.7013
21.0215 49.5427
21.203 51.6038
21.3846 49.7749
21.5662 49.881
21.7479 54.0265
21.9297 65.5093
22.1115 56.7596
22.2933 50.7015
22.4753 49.7679
22.6572 49.898
22.8393 53.1541
23.0214 58.2071
23.2037 49.7025
23.3859 50.8775
23.5682 57.5143
23.7505 49.192
23.9329 45.9738
24.1154 44.93
24.2979 44.2921
24.4805 43.7949
24.6631 43.5743
24.8458 43.0673
25.0286 43.6841
25.2114 45.4906
25.3943 45.3918
25.5773 41.7514
25.7605 41.2193
25.9436 41.6452
26.1268 42.6036
26.31 40.8385
26.4933 41.489
26.6767 42.9185
26.8601 41.3016
27.0437 39.4983
27.2272 39.1748
27.4109 39.1473
27.5946 39.1798
27.7784 38.5714
27.9623 39.0383
28.1462 39.5834
28.3304 37.8928
28.5145 36.5973
28.6987 36.2298
28.8829 36.0041
29.0673 35.3256
29.2517 34.9796
29.4361 34.7425
29.6207 33.7222
29.8053 33.5837
29.99 33.1435
30.1748 32.9104
30.3597 32.8528
30.5447 32.733
30.7297 32.7672
30.915 32.1028
31.1002 31.6282
31.2855 31.3899
31.4708 31.3831
31.6563 30.9113
31.8418 30.6896
32.0275 30.446
32.2132 29.9244
32.399 29.4167
32.5848 29.011
32.7708 28.6401
32.9569 28.5579
33.143 28.237
33.3293 27.8854
33.5158 27.552
33.7022 27.1417
33.8887 26.7688
34.0753 26.488
34.262 26.1307
34.4488 25.756
34.6357 25.3801
34.8227 25.1497
35.0098 24.9126
35.1969 24.5975
35.3842 24.3991
35.5716 24.173
35.759 23.9221
35.9468 23.4977
36.1345 23.3186
36.3222 23.0976
36.5101 22.7927
36.6981 22.5045
36.8861 22.1703
37.0743 21.9254
37.2626 21.6237
37.451 21.3239
37.6395 21.1904
37.8281 20.8993
38.0168 20.5442
38.2056 20.2792
38.3945 19.9695
38.5837 19.7471
38.7728 19.5207
38.9621 19.2943
39.1514 19.0275
39.3409 18.7591
39.5304 18.5678
39.7201 18.3265
39.9099 18.1992
40.0999 17.8963
40.2899 17.6766
40.48 17.403
40.6703 17.1853
40.8607 17.0315
41.0512 16.7823
41.242 16.5348
41.4327 16.3449
41.6236 16.099
41.8146 15.9533
42.0057 15.6311
42.1969 15.4647
42.3882 15.3095
42.5797 15.0642
42.7713 14.9003
42.963 14.6605
43.1549 14.4745
43.3468 14.281
43.5389 14.1284
43.7312 13.8789
43.9237 13.716
44.1162 13.4948
44.3088 13.3063
44.5016 13.124
44.6945 12.9383
44.8875 12.7874
45.0806 12.6043
45.2739 12.4312
45.4673 12.2464
45.6609 12.0493
45.8546 11.8916
46.0484 11.7522
46.2424 11.5656
46.4365 11.4032
46.631 11.1956
46.8254 11.0366
47.0199 10.8636
47.2146 10.7776
47.4095 10.5396
47.6044 10.4335
47.7996 10.2645
47.9948 10.0846
48.1902 9.95011
48.3858 9.83362
48.5815 9.6795
48.7774 9.56797
48.9734 9.41027
49.1696 9.28857
49.3661 9.13048
49.5626 8.93528
49.7592 8.84359
49.956 8.72956
50.153 8.58176
50.3501 8.41662
50.5474 8.32242
50.7448 8.20314
50.9424 8.09797
51.1402 7.97023
51.3381 7.82141
51.5362 7.70684
51.7344 7.54151
51.9328 7.4268
52.1316 7.29781
52.3304 7.16883
52.5293 7.04024
52.7284 6.97137
52.9276 6.84449
53.1271 6.76722
53.3267 6.59756
53.5265 6.47952
53.7264 6.35366
53.9266 6.29708
54.1269 6.15596
54.3274 6.05051
54.528 5.86508
54.7289 5.75996
54.9301 5.5737
55.1314 5.45557
55.3328 5.25418
55.5344 5.07111
55.7361 4.8971

File: Ni3Fe_FD0437.xy
TT I
1.27165 7.18748
1.45013 5.61087
1.62863 4.67161
1.80712 5.08323
1.98562 5.00875
2.16411 4.95964
2.34263 4.58821
2.52115 6.44328
2.69965 7.79641
2.87818 8.49475
3.05672 11.3217
3.23527 14.6922
3.4138 18.9809
3.59237 24.3721
3.77094 26.1385
3.9495 30.2496
4.12809 35.0044
4.30669 183.967
4.4853 63.011
4.6639 55.8721
4.84253 68.3128
5.02118 89.4154
5.19981 454.237
5.37848 206.577
5.55716 104.377
5.73586 94.4654
5.91455 98.2963
6.09328 4246.99
6.27201 84.7953
6.45075 67.8614
6.62952 63.7626
6.8083 59.2422
6.98711 56.4189
7.16591 56.1587
7.34475 85.6731
7.5236 55.2114
7.70247 56.8677
7.88135 58.7231
8.06026 63.1158
8.23919 70.9355
8.41812 87.3827
8.59709 1224.07
8.77609 101.711
8.9551 91.9675
9.13412 83.1414
9.31318 84.1353
9.49226 85.8369
9.67134 98.9189
9.85047 101.72
10.0296 389.229
10.2088 430.774
10.388 106.951
10.5672 507.869
10.7465 88.2154
10.9257 79.4511
11.105 72.9617
11.2844 71.017
11.4637 65.9172
11.6431 64.561
11.8225 63.4014
12.002 64.7596
12.1814 153.233
12.3609 70.7249
12.5405 65.2715
12.72 70.5848
12.8996 72.2691
13.0792 80.8384
13.2589 243.389
13.4386 127.644
13.6183 248.615
13.7981 98.5659
13.9779 76.9539
14.1577 73.5247
14.3376 72.3954
14.5175 70.0326
14.6974 71.6956
14.8774 115.349
15.0574 152.998
15.2374 71.9065
15.4175 67.6231
15.5976 66.9059
15.7778 99.3926
15.958 159.01
16.1382 63.3063
16.3185 59.1546
16.4988 56.5999
16.6792 55.403
16.8596 56.0063
17.04 56.919
17.2205 67.939
17.401 72.3886
17.5815 60.2313
17.7622 62.5408
17.9428 76.4045
18.1237 139.326
18.3044 91.4759
18.4852 78.6138
18.666 61.407
18.8469 58.9758
19.0278 57.901
19.2088 60.7949
19.3898 77.1425
19.5709 55.1997
19.752 54.2566
19.9332 57.4454
20.1144 70.8413
20.2957 64.5381
20.477 54.5188
20.6586 50.549
20.84 49.6256
21.0215 49.4667
21.203 51.6711
21.3846 49.8484
21.5662 49.8127
21.7479 53.8646
21.9297 65.5895
22.1115 56.649
22.2933 50.8263
22.4753 49.7779
22.6572 49.764
22.8393 52.9304
23.0214 58.3663
23.2037 49.7144
23.3859 50.8523
23.5682 57.4321
23.7505 49.305
23.9329 45.9131
24.1154 44.9693
24.2979 44.0979
24.4805 43.7081
24.6631 43.5333
24.8458 42.9835
25.0286 43.73
25.2114 45.4085
25.3943 45.4548
25.5773 41.706
25.7605 41.1945
25.9436 41.678
26.1268 42.5593
26.31 40.9183
26.4933 41.5524
26.6767 42.8562
26.8601 41.1072
27.0437 39.6029
27.2272 39.2875
27.4109 39.0992
27.5946 39.0542
27.7784 38.7086
27.9623 39.0562
28.1462 39.4551
28.3304 37.8356
28.5145 36.6017
28.6987 36.3682
28.8829 36.0317
29.0673 35.2996
29.2517 34.9233
29.4361 34.6744
29.6207 33.7693
29.8053 33.5132
29.99 33.1652
30.1748 32.912
30.3597 32.7966
30.5447 32.6706
30.7297 32.7763
30.915 32.1703
31.1002 31.5881
31.2855 31.4547
31.4708 31.2585
31.6563 30.8958
31.8418 30.6857
32.0275 30.4601
32.2132 29.8983
32.399 29.4465
32.5848 28.9838
32.7708 28.6182
32.9569 28.4971
33.143 28.2788
33.3293 27.8508
33.5158 27.5278
33.7022 27.0306
33.8887 26.7725
34.0753 26.4639
34.262 26.0753
34.4488 25.7496
34.6357 25.3837
34.8227 25.1312
35.0098 24.9404
35.1969 24.6712
35.3842 24.4756
35.5716 24.1471
35.759 23.8853
35.9468 23.4605
36.1345 23.2395
36.3222 23.0602
36.5101 22.8014
36.6981 22.5433
36.8861 22.2022
37.0743 21.9044
37.2626 21.5996
37.451 21.3178
37.6395 21.1755
37.8281 20.8604
38.0168 20.5763
38.2056 20.2708
38.3945 20.0256
38.5837 19.7312
38.7728 19.5881
38.9621 19.3313
39.1514 19.0107
39.3409 18.7527
39.5304 18.5486
39.7201 18.4144
39.9099 18.1691
40.0999 17.8545
40.2899 17.6232
40.48 17.3887
40.6703 17.212
40.8607 17.0394
41.0512 16.7788
41.242 16.5424
41.4327 16.4049
41.6236 16.0914
41.8146 15.8843
42.0057 15.6714
42.1969 15.4317
42.3882 15.3131
42.5797 15.0931
42.7713 14.8671
42.963 14.654
43.1549 14.4963
43.3468 14.2489
43.5389 14.0729
43.7312 13.8762
43.9237 13.711
44.1162 13.4856
44.3088 13.2928
44.5016 13.125
44.6945 12.898
44.8875 12.7882
45.0806 12.5901
45.2739 12.3988
45.4673 12.2291
45.6609 12.0544
45.8546 11.8881
46.0484 11.7452
46.2424 11.5334
46.4365 11.4183
46.631 11.1974
46.8254 11.0332
47.0199 10.8752
47.2146 10.7704
47.4095 10.5415
47.6044 10.4075
47.7996 10.2637
47.9948 10.1196
48.1902 9.9821
48.3858 9.83437
48.5815 9.70076
48.7774 9.55575
48.9734 9.40159
49.1696 9.2728
49.3661 9.10469
49.5626 8.93847
49.7592 8.87807
49.956 8.69526
50.153 8.53634
50.3501 8.4289
50.5474 8.3294
50.7448 8.18267
50.9424 8.06582
51.1402 7.91025
51.3381 7.7945
51.5362 7.68143
51.7344 7.52197
51.9328 7.43842
52.1316 7.24444
52.3304 7.20184
52.5293 7.04155
52.7284 6.93093
52.9276 6.83921
53.1271 6.729
53.3267 6.58631
53.5265 6.46096
53.7264 6.38517
53.9266 6.25775
54.1269 6.1737
54.3274 6.05073
54.528 5.87309
54.7289 5.74757
54.9301 5.57678
55.1314 5.42559
55.3328 5.16584
55.5344 5.05442
55.7361 4.96655