Folder: NiFe_MOF_catalyst_paper/XRD (part 62)

File: Ni3Fe_FD0323.xy
TT I
1.27165 7.77367
1.45013 6.76463
1.62863 5.04951
1.80712 4.81803
1.98562 4.78142
2.16411 4.78465
2.34263 5.43331
2.52115 5.79886
2.69965 6.87232
2.87818 8.36428
3.05672 11.4807
3.23527 15.2429
3.4138 19.2777
3.59237 24.4648
3.77094 26.3775
3.9495 30.0345
4.12809 35.4794
4.30669 199.68
4.4853 65.0782
4.6639 56.8517
4.84253 69.221
5.02118 91.3902
5.19981 535.17
5.37848 231.373
5.55716 106.673
5.73586 95.9072
5.91455 100.927
6.09328 3938.82
6.27201 87.0345
6.45075 69.5963
6.62952 64.8896
6.8083 60.4202
6.98711 57.5631
7.16591 57.0932
7.34475 89.1251
7.5236 56.2026
7.70247 57.8836
7.88135 59.3208
8.06026 64.3601
8.23919 71.9944
8.41812 89.1093
8.59709 1138.0
8.77609 105.245
8.9551 93.3923
9.13412 84.2519
9.31318 85.7937
9.49226 87.4296
9.67134 100.494
9.85047 103.553
10.0296 409.418
10.2088 497.501
10.388 109.217
10.5672 479.134
10.7465 89.6004
10.9257 80.9148
11.105 74.0234
11.2844 71.9877
11.4637 66.8619
11.6431 65.7615
11.8225 64.4034
12.002 65.8361
12.1814 150.001
12.3609 72.7078
12.5405 66.5693
12.72 71.9855
12.8996 73.2515
13.0792 82.018
13.2589 237.785
13.4386 134.781
13.6183 236.584
13.7981 103.86
13.9779 78.0262
14.1577 74.5633
14.3376 73.8111
14.5175 71.0664
14.6974 72.801
14.8774 116.423
15.0574 158.789
15.2374 73.1914
15.4175 68.3661
15.5976 68.008
15.7778 100.322
15.958 168.065
16.1382 64.6592
16.3185 60.3271
16.4988 57.2669
16.6792 56.0504
16.8596 56.9864
17.04 57.6044
17.2205 68.7162
17.401 74.5103
17.5815 61.1631
17.7622 63.2673
17.9428 77.9019
18.1237 139.72
18.3044 91.1351
18.4852 80.9625
18.666 62.1738
18.8469 59.8213
19.0278 58.5368
19.2088 61.7233
19.3898 77.8945
19.5709 56.0935
19.752 55.0031
19.9332 58.4021
20.1144 71.3035
20.2957 64.5462
20.477 55.467
20.6586 51.2711
20.84 50.4048
21.0215 50.3451
21.203 52.1038
21.3846 50.5223
21.5662 50.4028
21.7479 54.4436
21.9297 66.4951
22.1115 57.2393
22.2933 51.6158
22.4753 50.4113
22.6572 50.6073
22.8393 53.7134
23.0214 59.3223
23.2037 50.5457
23.3859 51.5637
23.5682 57.7072
23.7505 50.014
23.9329 46.6823
24.1154 45.6021
24.2979 44.8402
24.4805 44.2142
24.6631 44.2448
24.8458 43.5492
25.0286 44.3779
25.2114 46.0803
25.3943 46.1345
25.5773 42.3388
25.7605 41.6277
25.9436 42.1609
26.1268 43.0256
26.31 41.5318
26.4933 42.0659
26.6767 43.2337
26.8601 41.7153
27.0437 40.1292
27.2272 39.7345
27.4109 39.6042
27.5946 39.6172
27.7784 39.0949
27.9623 39.4248
28.1462 39.9768
28.3304 38.3501
28.5145 37.0907
28.6987 36.7486
28.8829 36.446
29.0673 35.8029
29.2517 35.3668
29.4361 35.1615
29.6207 34.136
29.8053 33.9
29.99 33.5974
30.1748 33.4377
30.3597 33.3053
30.5447 33.0845
30.7297 33.1595
30.915 32.5341
31.1002 32.04
31.2855 31.8591
31.4708 31.7482
31.6563 31.2349
31.8418 30.9908
32.0275 30.8702
32.2132 30.2863
32.399 29.8294
32.5848 29.3414
32.7708 29.0451
32.9569 28.8923
33.143 28.6622
33.3293 28.2782
33.5158 27.9042
33.7022 27.4054
33.8887 27.1442
34.0753 26.7715
34.262 26.5083
34.4488 26.1478
34.6357 25.7865
34.8227 25.4875
35.0098 25.2163
35.1969 24.9263
35.3842 24.6936
35.5716 24.5194
35.759 24.1606
35.9468 23.864
36.1345 23.61
36.3222 23.3382
36.5101 23.1378
36.6981 22.8118
36.8861 22.4687
37.0743 22.141
37.2626 21.9134
37.451 21.6349
37.6395 21.4346
37.8281 21.0494
38.0168 20.8429
38.2056 20.5517
38.3945 20.2435
38.5837 20.0366
38.7728 19.7926
38.9621 19.5819
39.1514 19.234
39.3409 19.0508
39.5304 18.829
39.7201 18.5961
39.9099 18.4261
40.0999 18.1112
40.2899 17.8284
40.48 17.6786
40.6703 17.444
40.8607 17.2703
41.0512 16.9913
41.242 16.7835
41.4327 16.5246
41.6236 16.2972
41.8146 16.1258
42.0057 15.8796
42.1969 15.6948
42.3882 15.5021
42.5797 15.2394
42.7713 15.0861
42.963 14.8809
43.1549 14.6653
43.3468 14.4296
43.5389 14.2978
43.7312 14.0476
43.9237 13.8478
44.1162 13.6512
44.3088 13.5279
44.5016 13.2652
44.6945 13.1001
44.8875 12.9626
45.0806 12.7567
45.2739 12.5787
45.4673 12.4025
45.6609 12.2238
45.8546 12.0511
46.0484 11.9031
46.2424 11.6796
46.4365 11.5726
46.631 11.3178
46.8254 11.1415
47.0199 11.0449
47.2146 10.8807
47.4095 10.6871
47.6044 10.5151
47.7996 10.3976
47.9948 10.242
48.1902 10.0868
48.3858 9.94025
48.5815 9.8229
48.7774 9.64725
48.9734 9.52635
49.1696 9.36832
49.3661 9.23821
49.5626 9.07827
49.7592 8.97885
49.956 8.8479
50.153 8.697
50.3501 8.57123
50.5474 8.4229
50.7448 8.32749
50.9424 8.14646
51.1402 8.03935
51.3381 7.89257
51.5362 7.7587
51.7344 7.65871
51.9328 7.5033
52.1316 7.39086
52.3304 7.28098
52.5293 7.19642
52.7284 7.01496
52.9276 6.94927
53.1271 6.79266
53.3267 6.7005
53.5265 6.53121
53.7264 6.47366
53.9266 6.37686
54.1269 6.26822
54.3274 6.1083
54.528 5.96427
54.7289 5.80593
54.9301 5.67548
55.1314 5.4941
55.3328 5.28583
55.5344 5.16849
55.7361 4.93325

File: Ni3Fe_FD0324.xy
TT I
1.27165 7.57073
1.45013 6.9253
1.62863 6.03389
1.80712 4.87695
1.98562 4.66392
2.16411 5.10426
2.34263 5.19429
2.52115 6.14554
2.69965 7.21012
2.87818 8.77555
3.05672 10.4882
3.23527 14.5133
3.4138 19.2657
3.59237 24.5054
3.77094 26.4382
3.9495 30.429
4.12809 36.0277
4.30669 195.121
4.4853 64.3118
4.6639 56.6195
4.84253 69.322
5.02118 91.6123
5.19981 535.523
5.37848 231.562
5.55716 106.272
5.73586 96.1333
5.91455 100.889
6.09328 3955.92
6.27201 87.0521
6.45075 69.3383
6.62952 64.3325
6.8083 60.4436
6.98711 56.9872
7.16591 56.8009
7.34475 89.2649
7.5236 56.1781
7.70247 57.7401
7.88135 59.3951
8.06026 64.1455
8.23919 71.6812
8.41812 88.8829
8.59709 1139.32
8.77609 104.791
8.9551 93.5401
9.13412 84.365
9.31318 85.4008
9.49226 87.4844
9.67134 100.582
9.85047 103.341
10.0296 411.995
10.2088 497.284
10.388 109.016
10.5672 477.731
10.7465 89.6661
10.9257 80.3954
11.105 73.8454
11.2844 71.9107
11.4637 66.6905
11.6431 65.4297
11.8225 64.3765
12.002 65.8617
12.1814 149.496
12.3609 72.8386
12.5405 66.4134
12.72 71.6923
12.8996 73.1299
13.0792 82.2609
13.2589 239.057
13.4386 134.324
13.6183 236.479
13.7981 103.988
13.9779 78.3073
14.1577 74.5773
14.3376 73.4785
14.5175 71.1551
14.6974 72.7918
14.8774 116.558
15.0574 159.032
15.2374 72.785
15.4175 68.4307
15.5976 68.1061
15.7778 100.318
15.958 167.786
16.1382 64.4996
16.3185 60.1102
16.4988 57.1724
16.6792 56.4593
16.8596 57.0625
17.04 57.6565
17.2205 68.8393
17.401 74.7012
17.5815 61.1357
17.7622 63.3278
17.9428 78.1161
18.1237 139.38
18.3044 91.0235
18.4852 81.1087
18.666 62.5197
18.8469 60.026
19.0278 58.7974
19.2088 61.9836
19.3898 77.6613
19.5709 56.0494
19.752 55.0566
19.9332 58.4549
20.1144 71.2946
20.2957 64.5601
20.477 55.7736
20.6586 51.3836
20.84 50.4712
21.0215 50.2679
21.203 52.0804
21.3846 50.6693
21.5662 50.5258
21.7479 54.6163
21.9297 66.5053
22.1115 57.1238
22.2933 51.6263
22.4753 50.5061
22.6572 50.6038
22.8393 53.637
23.0214 59.2026
23.2037 50.3912
23.3859 51.5687
23.5682 57.6967
23.7505 50.1034
23.9329 46.6907
24.1154 45.4904
24.2979 44.9289
24.4805 44.3036
24.6631 44.2155
24.8458 43.5677
25.0286 44.2511
25.2114 45.9486
25.3943 46.1284
25.5773 42.1313
25.7605 41.8311
25.9436 42.1103
26.1268 42.9302
26.31 41.4924
26.4933 41.9241
26.6767 43.4815
26.8601 41.5958
27.0437 40.122
27.2272 39.7766
27.4109 39.7311
27.5946 39.5765
27.7784 39.0119
27.9623 39.4082
28.1462 39.9923
28.3304 38.3153
28.5145 37.1156
28.6987 36.7596
28.8829 36.5283
29.0673 35.7627
29.2517 35.3575
29.4361 35.1208
29.6207 34.1047
29.8053 33.9164
29.99 33.5881
30.1748 33.4767
30.3597 33.2534
30.5447 33.2112
30.7297 33.2435
30.915 32.6191
31.1002 32.2574
31.2855 31.8355
31.4708 31.6548
31.6563 31.3424
31.8418 31.0192
32.0275 30.791
32.2132 30.2719
32.399 29.8235
32.5848 29.4108
32.7708 29.0524
32.9569 28.8979
33.143 28.5587
33.3293 28.2488
33.5158 27.8641
33.7022 27.3607
33.8887 27.2049
34.0753 26.8257
34.262 26.4135
34.4488 26.0162
34.6357 25.8346
34.8227 25.3919
35.0098 25.1869
35.1969 24.9351
35.3842 24.7393
35.5716 24.4099
35.759 24.2679
35.9468 23.7327
36.1345 23.6362
36.3222 23.379
36.5101 23.0682
36.6981 22.8241
36.8861 22.4511
37.0743 22.2236
37.2626 21.9115
37.451 21.554
37.6395 21.4453
37.8281 21.1071
38.0168 20.8103
38.2056 20.549
38.3945 20.3291
38.5837 20.025
38.7728 19.8235
38.9621 19.5532
39.1514 19.2885
39.3409 19.1112
39.5304 18.8345
39.7201 18.5527
39.9099 18.3812
40.0999 18.0929
40.2899 17.8756
40.48 17.6638
40.6703 17.453
40.8607 17.2751
41.0512 17.0173
41.242 16.741
41.4327 16.5558
41.6236 16.3076
41.8146 16.1473
42.0057 15.8738
42.1969 15.712
42.3882 15.5096
42.5797 15.2095
42.7713 15.0812
42.963 14.8438
43.1549 14.6657
43.3468 14.4745
43.5389 14.2481
43.7312 14.0263
43.9237 13.8533
44.1162 13.6586
44.3088 13.4847
44.5016 13.2716
44.6945 13.1407
44.8875 12.9199
45.0806 12.7178
45.2739 12.5764
45.4673 12.3838
45.6609 12.2362
45.8546 12.0655
46.0484 11.8819
46.2424 11.7168
46.4365 11.5547
46.631 11.3336
46.8254 11.1625
47.0199 11.0277
47.2146 10.8481
47.4095 10.7219
47.6044 10.5422
47.7996 10.3636
47.9948 10.2349
48.1902 10.1035
48.3858 9.91458
48.5815 9.8036
48.7774 9.65882
48.9734 9.50891
49.1696 9.37861
49.3661 9.18712
49.5626 9.07924
49.7592 8.9301
49.956 8.81876
50.153 8.65888
50.3501 8.53136
50.5474 8.40731
50.7448 8.28393
50.9424 8.17378
51.1402 8.041
51.3381 7.90793
51.5362 7.76349
51.7344 7.64177
51.9328 7.48506
52.1316 7.3599
52.3304 7.26486
52.5293 7.18349
52.7284 7.04046
52.9276 6.9214
53.1271 6.82183
53.3267 6.68868
53.5265 6.58105
53.7264 6.43789
53.9266 6.33081
54.1269 6.28008
54.3274 6.13136
54.528 5.98421
54.7289 5.83531
54.9301 5.65963
55.1314 5.47933
55.3328 5.29766
55.5344 5.05885
55.7361 4.98424

File: Ni3Fe_FD0325.xy
TT I
1.27165 7.66518
1.45013 6.6175
1.62863 5.19573
1.80712 4.48932
1.98562 4.12251
2.16411 4.82442
2.34263 5.19786
2.52115 6.25384
2.69965 6.55749
2.87818 8.75639
3.05672 11.141
3.23527 14.9658
3.4138 19.2414
3.59237 24.1188
3.77094 26.0734
3.9495 30.2159
4.12809 35.6597
4.30669 192.508
4.4853 64.0719
4.6639 56.4408
4.84253 69.7505
5.02118 91.7687
5.19981 538.086
5.37848 231.609
5.55716 106.515
5.73586 96.4493
5.91455 101.28
6.09328 3980.42
6.27201 86.9158
6.45075 69.6576
6.62952 64.3195
6.8083 59.8899
6.98711 57.1331
7.16591 56.6235
7.34475 88.0525
7.5236 56.0274
7.70247 57.7769
7.88135 59.7271
8.06026 63.9744
8.23919 71.3555
8.41812 88.7354
8.59709 1141.75
8.77609 104.81
8.9551 93.5507
9.13412 84.4657
9.31318 85.6408
9.49226 87.0231
9.67134 100.27
9.85047 103.501
10.0296 412.091
10.2088 495.0
10.388 109.015
10.5672 477.662
10.7465 89.6637
10.9257 80.3774
11.105 73.6932
11.2844 71.8477
11.4637 66.667
11.6431 65.5679
11.8225 64.3262
12.002 65.9037
12.1814 149.195
12.3609 72.5748
12.5405 66.1781
12.72 71.5929
12.8996 73.3149
13.0792 82.1461
13.2589 238.733
13.4386 134.391
13.6183 237.089
13.7981 103.578
13.9779 77.9135
14.1577 74.3517
14.3376 73.3224
14.5175 71.0676
14.6974 72.6253
14.8774 116.262
15.0574 158.24
15.2374 72.8047
15.4175 68.3478
15.5976 68.2124
15.7778 100.65
15.958 167.284
16.1382 64.3953
16.3185 60.2394
16.4988 57.2116
16.6792 56.2297
16.8596 56.7912
17.04 57.6852
17.2205 68.9339
17.401 74.7116
17.5815 60.9325
17.7622 63.4251
17.9428 78.0094
18.1237 139.616
18.3044 91.0986
18.4852 81.345
18.666 62.3838
18.8469 59.9313
19.0278 58.5929
19.2088 62.0197
19.3898 77.4147
19.5709 55.9481
19.752 54.8643
19.9332 58.5053
20.1144 71.3578
20.2957 64.6142
20.477 55.7307
20.6586 51.1895
20.84 50.3708
21.0215 50.1485
21.203 52.1214
21.3846 50.6344
21.5662 50.5089
21.7479 54.5139
21.9297 66.4844
22.1115 57.1482
22.2933 51.5072
22.4753 50.2943
22.6572 50.6231
22.8393 53.5959
23.0214 59.148
23.2037 50.2373
23.3859 51.6838
23.5682 57.5978
23.7505 50.02
23.9329 46.557
24.1154 45.3537
24.2979 44.7803
24.4805 44.3082
24.6631 44.113
24.8458 43.6437
25.0286 44.3228
25.2114 45.9411
25.3943 46.0014
25.5773 42.25
25.7605 41.7758
25.9436 42.1732
26.1268 43.0637
26.31 41.4159
26.4933 42.0304
26.6767 43.3919
26.8601 41.7062
27.0437 40.0266
27.2272 39.6819
27.4109 39.5686
27.5946 39.6028
27.7784 39.1283
27.9623 39.377
28.1462 39.9861
28.3304 38.4851
28.5145 37.0027
28.6987 36.6831
28.8829 36.5034
29.0673 35.9289
29.2517 35.3207
29.4361 35.0563
29.6207 34.1689
29.8053 33.9357
29.99 33.5893
30.1748 33.3733
30.3597 33.2334
30.5447 33.1794
30.7297 33.152
30.915 32.5265
31.1002 32.0864
31.2855 31.8052
31.4708 31.75
31.6563 31.2848
31.8418 31.0293
32.0275 30.7522
32.2132 30.3177
32.399 29.8527
32.5848 29.3482
32.7708 29.0136
32.9569 28.8733
33.143 28.6351
33.3293 28.2556
33.5158 27.8543
33.7022 27.39
33.8887 27.1713
34.0753 26.8224
34.262 26.4282
34.4488 26.0764
34.6357 25.715
34.8227 25.4463
35.0098 25.2337
35.1969 25.0071
35.3842 24.6627
35.5716 24.459
35.759 24.1156
35.9468 23.8436
36.1345 23.5806
36.3222 23.3596
36.5101 23.1135
36.6981 22.817
36.8861 22.4837
37.0743 22.1158
37.2626 21.9358
37.451 21.6394
37.6395 21.4565
37.8281 21.1635
38.0168 20.8096
38.2056 20.566
38.3945 20.354
38.5837 20.0038
38.7728 19.8148
38.9621 19.5363
39.1514 19.2929
39.3409 19.0425
39.5304 18.8044
39.7201 18.5498
39.9099 18.3464
40.0999 18.1083
40.2899 17.8602
40.48 17.6795
40.6703 17.4087
40.8607 17.2492
41.0512 16.995
41.242 16.7541
41.4327 16.5141
41.6236 16.2951
41.8146 16.1027
42.0057 15.845
42.1969 15.6365
42.3882 15.4686
42.5797 15.2439
42.7713 15.0625
42.963 14.8116
43.1549 14.6988
43.3468 14.4394
43.5389 14.2575
43.7312 14.0798
43.9237 13.8337
44.1162 13.6252
44.3088 13.5204
44.5016 13.2737
44.6945 13.1002
44.8875 12.8736
45.0806 12.7061
45.2739 12.5527
45.4673 12.4132
45.6609 12.1996
45.8546 12.051
46.0484 11.854
46.2424 11.6978
46.4365 11.5439
46.631 11.357
46.8254 11.1807
47.0199 11.0211
47.2146 10.8984
47.4095 10.6871
47.6044 10.5323
47.7996 10.386
47.9948 10.2368
48.1902 10.0935
48.3858 9.934
48.5815 9.83158
48.7774 9.6893
48.9734 9.51748
49.1696 9.37509
49.3661 9.25553
49.5626 9.08884
49.7592 8.95351
49.956 8.83012
50.153 8.70643
50.3501 8.55147
50.5474 8.44865
50.7448 8.27824
50.9424 8.16242
51.1402 8.03971
51.3381 7.89603
51.5362 7.77789
51.7344 7.67504
51.9328 7.48905
52.1316 7.39854
52.3304 7.29144
52.5293 7.15466
52.7284 7.0241
52.9276 6.88716
53.1271 6.79134
53.3267 6.70128
53.5265 6.54192
53.7264 6.43855
53.9266 6.36654
54.1269 6.24902
54.3274 6.0799
54.528 5.96929
54.7289 5.84261
54.9301 5.62311
55.1314 5.51245
55.3328 5.29377
55.5344 5.13686
55.7361 4.99179

File: Ni3Fe_FD0326.xy
TT I
1.27165 7.78951
1.45013 6.64227
1.62863 5.24307
1.80712 5.17034
1.98562 4.67269
2.16411 4.44992
2.34263 4.87347
2.52115 5.50388
2.69965 6.79109
2.87818 8.04711
3.05672 10.9992
3.23527 15.231
3.4138 18.8455
3.59237 23.785
3.77094 26.3757
3.9495 30.1114
4.12809 35.6021
4.30669 188.872
4.4853 63.5816
4.6639 56.8779
4.84253 69.1457
5.02118 91.7227
5.19981 540.718
5.37848 231.198
5.55716 106.221
5.73586 96.0918
5.91455 101.637
6.09328 3994.0
6.27201 86.6559
6.45075 69.8141
6.62952 64.1817
6.8083 59.6661
6.98711 57.3751
7.16591 56.8674
7.34475 87.1657
7.5236 55.7721
7.70247 57.5322
7.88135 59.5961
8.06026 64.3293
8.23919 71.8389
8.41812 88.676
8.59709 1146.36
8.77609 104.85
8.9551 93.0159
9.13412 84.2796
9.31318 85.2909
9.49226 87.2357
9.67134 100.184
9.85047 103.908
10.0296 413.718
10.2088 495.775
10.388 109.219
10.5672 478.696
10.7465 89.2914
10.9257 80.3149
11.105 73.8896
11.2844 71.961
11.4637 66.7481
11.6431 65.5042
11.8225 64.3061
12.002 66.2081
12.1814 148.617
12.3609 72.2332
12.5405 66.5173
12.72 71.6811
12.8996 73.4151
13.0792 82.3004
13.2589 239.695
13.4386 133.867
13.6183 238.262
13.7981 103.428
13.9779 78.0212
14.1577 74.531
14.3376 73.4507
14.5175 70.7864
14.6974 72.7879
14.8774 117.071
15.0574 157.912
15.2374 72.8289
15.4175 68.3855
15.5976 68.0139
15.7778 100.857
15.958 167.66
16.1382 64.3497
16.3185 60.2395
16.4988 57.1909
16.6792 56.3164
16.8596 56.9183
17.04 57.7962
17.2205 68.6925
17.401 74.5695
17.5815 61.0135
17.7622 63.3081
17.9428 78.0453
18.1237 139.767
18.3044 91.3971
18.4852 81.2305
18.666 62.3629
18.8469 59.9215
19.0278 58.6254
19.2088 61.8183
19.3898 77.6276
19.5709 55.9499
19.752 54.8907
19.9332 58.3302
20.1144 71.2426
20.2957 64.4096
20.477 55.4937
20.6586 51.1201
20.84 50.3797
21.0215 49.989
21.203 52.0073
21.3846 50.7515
21.5662 50.4101
21.7479 54.5342
21.9297 66.4226
22.1115 57.1622
22.2933 51.6269
22.4753 50.3819
22.6572 50.4897
22.8393 53.6931
23.0214 59.1776
23.2037 50.305
23.3859 51.5012
23.5682 57.715
23.7505 49.9798
23.9329 46.6835
24.1154 45.3565
24.2979 44.7039
24.4805 44.1252
24.6631 44.1782
24.8458 43.6169
25.0286 44.1923
25.2114 46.0541
25.3943 46.0958
25.5773 42.254
25.7605 41.6398
25.9436 42.0857
26.1268 42.877
26.31 41.3906
26.4933 41.934
26.6767 43.3922
26.8601 41.7219
27.0437 40.0641
27.2272 39.7152
27.4109 39.5488
27.5946 39.5892
27.7784 38.9704
27.9623 39.428
28.1462 40.0005
28.3304 38.3418
28.5145 37.1047
28.6987 36.6244
28.8829 36.3901
29.0673 35.761
29.2517 35.3659
29.4361 35.1501
29.6207 34.2247
29.8053 33.9021
29.99 33.5368
30.1748 33.2603
30.3597 33.1973
30.5447 33.029
30.7297 33.0722
30.915 32.6139
31.1002 32.1361
31.2855 31.7849
31.4708 31.7173
31.6563 31.3279
31.8418 31.0705
32.0275 30.8692
32.2132 30.2454
32.399 29.7833
32.5848 29.2699
32.7708 29.0579
32.9569 28.7979
33.143 28.6359
33.3293 28.2402
33.5158 27.8309
33.7022 27.4185
33.8887 27.0407
34.0753 26.7514
34.262 26.4551
34.4488 26.0889
34.6357 25.7886
34.8227 25.4527
35.0098 25.2482
35.1969 24.933
35.3842 24.6889
35.5716 24.4419
35.759 24.1906
35.9468 23.8624
36.1345 23.5823
36.3222 23.2975
36.5101 23.0398
36.6981 22.7561
36.8861 22.4703
37.0743 22.0829
37.2626 21.9301
37.451 21.6836
37.6395 21.4524
37.8281 21.0587
38.0168 20.8034
38.2056 20.5572
38.3945 20.25
38.5837 20.0287
38.7728 19.7703
38.9621 19.493
39.1514 19.2614
39.3409 18.9507
39.5304 18.7229
39.7201 18.5834
39.9099 18.2714
40.0999 18.0795
40.2899 17.877
40.48 17.6511
40.6703 17.3743
40.8607 17.2503
41.0512 17.0088
41.242 16.7232
41.4327 16.5333
41.6236 16.2928
41.8146 16.1255
42.0057 15.9286
42.1969 15.6601
42.3882 15.4997
42.5797 15.2376
42.7713 15.0677
42.963 14.8379
43.1549 14.6545
43.3468 14.4222
43.5389 14.2088
43.7312 14.0418
43.9237 13.8518
44.1162 13.6757
44.3088 13.4297
44.5016 13.3284
44.6945 13.0997
44.8875 12.9784
45.0806 12.7345
45.2739 12.5299
45.4673 12.447
45.6609 12.2245
45.8546 12.042
46.0484 11.869
46.2424 11.7052
46.4365 11.5115
46.631 11.3583
46.8254 11.17
47.0199 11.0702
47.2146 10.8781
47.4095 10.6617
47.6044 10.507
47.7996 10.3949
47.9948 10.2535
48.1902 10.1013
48.3858 9.93905
48.5815 9.79669
48.7774 9.67041
48.9734 9.52937
49.1696 9.35184
49.3661 9.24206
49.5626 9.11585
49.7592 8.9571
49.956 8.86133
50.153 8.67031
50.3501 8.53844
50.5474 8.40072
50.7448 8.26397
50.9424 8.17593
51.1402 8.06107
51.3381 7.86335
51.5362 7.77334
51.7344 7.63001
51.9328 7.51258
52.1316 7.33439
52.3304 7.25846
52.5293 7.14634
52.7284 6.99106
52.9276 6.91027
53.1271 6.78749
53.3267 6.72279
53.5265 6.55844
53.7264 6.47612
53.9266 6.30821
54.1269 6.25279
54.3274 6.13914
54.528 5.93679
54.7289 5.81169
54.9301 5.62145
55.1314 5.52193
55.3328 5.28987
55.5344 5.10771
55.7361 4.9384

File: Ni3Fe_FD0327.xy
TT I
1.27165 7.99034
1.45013 6.48515
1.62863 5.18135
1.80712 4.6382
1.98562 5.30827
2.16411 5.42363
2.34263 4.30241
2.52115 5.32217
2.69965 7.2265
2.87818 8.31348
3.05672 10.4911
3.23527 15.5854
3.4138 19.1779
3.59237 23.6084
3.77094 26.4606
3.9495 30.5186
4.12809 35.3601
4.30669 184.79
4.4853 63.1415
4.6639 56.8113
4.84253 69.4792
5.02118 91.6313
5.19981 544.575
5.37848 231.015
5.55716 106.678
5.73586 96.1577
5.91455 101.577
6.09328 4012.88
6.27201 86.3583
6.45075 69.7779
6.62952 64.3272
6.8083 60.1939
6.98711 57.0186
7.16591 57.1946
7.34475 86.5732
7.5236 56.1986
7.70247 57.7673
7.88135 59.4754
8.06026 64.1374
8.23919 71.5615
8.41812 88.7307
8.59709 1150.51
8.77609 105.088
8.9551 93.303
9.13412 84.4308
9.31318 85.5485
9.49226 87.0851
9.67134 100.169
9.85047 103.768
10.0296 415.997
10.2088 494.29
10.388 109.616
10.5672 479.462
10.7465 89.5224
10.9257 80.4227
11.105 74.0469
11.2844 71.8645
11.4637 66.8988
11.6431 65.3342
11.8225 64.2324
12.002 65.9475
12.1814 149.184
12.3609 72.3132
12.5405 66.6458
12.72 71.231
12.8996 73.2713
13.0792 82.2342
13.2589 240.265
13.4386 134.147
13.6183 238.679
13.7981 103.536
13.9779 78.0486
14.1577 74.5355
14.3376 73.3886
14.5175 70.8693
14.6974 72.8798
14.8774 117.367
15.0574 157.83
15.2374 73.0197
15.4175 68.3855
15.5976 68.1115
15.7778 101.017
15.958 167.546
16.1382 64.3727
16.3185 60.1489
16.4988 57.0464
16.6792 56.3112
16.8596 56.7931
17.04 57.7414
17.2205 68.8797
17.401 74.4013
17.5815 61.0479
17.7622 63.222
17.9428 78.1532
18.1237 139.778
18.3044 91.2325
18.4852 81.1542
18.666 62.3662
18.8469 59.7596
19.0278 58.7074
19.2088 61.8671
19.3898 77.5523
19.5709 56.1901
19.752 54.9405
19.9332 58.4232
20.1144 71.4953
20.2957 64.4398
20.477 55.654
20.6586 51.2347
20.84 50.3393
21.0215 50.1923
21.203 52.1376
21.3846 50.5518
21.5662 50.3784
21.7479 54.6211
21.9297 66.3309
22.1115 57.2809
22.2933 51.4934
22.4753 50.4298
22.6572 50.3694
22.8393 53.5608
23.0214 59.0943
23.2037 50.3821
23.3859 51.6636
23.5682 57.6267
23.7505 50.0827
23.9329 46.6135
24.1154 45.4305
24.2979 44.8368
24.4805 44.3278
24.6631 44.2276
24.8458 43.5169
25.0286 44.2105
25.2114 46.0918
25.3943 46.0892
25.5773 42.1438
25.7605 41.6897
25.9436 42.1546
26.1268 42.897
26.31 41.4515
26.4933 42.0014
26.6767 43.3354
26.8601 41.6927
27.0437 40.1241
27.2272 39.7476
27.4109 39.5508
27.5946 39.6258
27.7784 39.1381
27.9623 39.3957
28.1462 40.0496
28.3304 38.4116
28.5145 37.1048
28.6987 36.6569
28.8829 36.596
29.0673 35.7285
29.2517 35.3922
29.4361 35.2113
29.6207 34.2153
29.8053 33.9852
29.99 33.5948
30.1748 33.4713
30.3597 33.271
30.5447 33.1833
30.7297 33.1519
30.915 32.632
31.1002 32.0881
31.2855 31.8265
31.4708 31.7277
31.6563 31.3939
31.8418 31.064
32.0275 30.7592
32.2132 30.2595
32.399 29.8353
32.5848 29.4383
32.7708 28.9979
32.9569 28.8594
33.143 28.5259
33.3293 28.2784
33.5158 27.8436
33.7022 27.4398
33.8887 27.0967
34.0753 26.824
34.262 26.447
34.4488 26.1752
34.6357 25.7994
34.8227 25.4912
35.0098 25.1952
35.1969 24.9358
35.3842 24.7553
35.5716 24.5554
35.759 24.2071
35.9468 23.826
36.1345 23.5399
36.3222 23.3316
36.5101 23.0804
36.6981 22.7728
36.8861 22.4816
37.0743 22.1668
37.2626 21.9078
37.451 21.6194
37.6395 21.4897
37.8281 21.1677
38.0168 20.8258
38.2056 20.5392
38.3945 20.308
38.5837 20.0392
38.7728 19.7503
38.9621 19.5403
39.1514 19.2488
39.3409 19.0615
39.5304 18.8533
39.7201 18.5703
39.9099 18.3802
40.0999 18.1093
40.2899 17.9212
40.48 17.6634
40.6703 17.3968
40.8607 17.2535
41.0512 17.0038
41.242 16.7119
41.4327 16.5497
41.6236 16.2696
41.8146 16.1269
42.0057 15.8749
42.1969 15.6794
42.3882 15.5271
42.5797 15.2563
42.7713 15.0934
42.963 14.8804
43.1549 14.668
43.3468 14.4479
43.5389 14.2426
43.7312 14.094
43.9237 13.8521
44.1162 13.6553
44.3088 13.448
44.5016 13.2805
44.6945 13.141
44.8875 12.9646
45.0806 12.7788
45.2739 12.5523
45.4673 12.4461
45.6609 12.2306
45.8546 12.0319
46.0484 11.8705
46.2424 11.7175
46.4365 11.52
46.631 11.3443
46.8254 11.2189
47.0199 11.0159
47.2146 10.8729
47.4095 10.7053
47.6044 10.5459
47.7996 10.4025
47.9948 10.2436
48.1902 10.0712
48.3858 9.97085
48.5815 9.77592
48.7774 9.65717
48.9734 9.53901
49.1696 9.38337
49.3661 9.24803
49.5626 9.06683
49.7592 8.93544
49.956 8.83066
50.153 8.66546
50.3501 8.52408
50.5474 8.41202
50.7448 8.29432
50.9424 8.16668
51.1402 8.01225
51.3381 7.90446
51.5362 7.74754
51.7344 7.68312
51.9328 7.51721
52.1316 7.38166
52.3304 7.26139
52.5293 7.14238
52.7284 7.07903
52.9276 6.89655
53.1271 6.81105
53.3267 6.69321
53.5265 6.51756
53.7264 6.46786
53.9266 6.36467
54.1269 6.22867
54.3274 6.1166
54.528 5.96905
54.7289 5.80863
54.9301 5.62784
55.1314 5.50284
55.3328 5.31878
55.5344 5.12817
55.7361 4.91398