Folder: NiFe_MOF_catalyst_paper/XRD (part 176)

File: Ni3Fe_FD0954.xy
TT I
1.27165 6.85758
1.45013 5.7997
1.62863 5.60239
1.80712 4.59922
1.98562 4.92218
2.16411 4.44589
2.34263 5.75719
2.52115 7.48366
2.69965 8.79383
2.87818 9.03327
3.05672 11.4518
3.23527 15.4779
3.4138 18.7889
3.59237 23.6462
3.77094 26.0962
3.9495 29.7325
4.12809 34.1328
4.30669 152.735
4.4853 58.408
4.6639 54.9604
4.84253 66.5518
5.02118 85.4222
5.19981 300.637
5.37848 180.207
5.55716 100.663
5.73586 91.2383
5.91455 92.0739
6.09328 4527.74
6.27201 79.724
6.45075 67.6533
6.62952 62.1798
6.8083 58.0016
6.98711 54.8533
7.16591 55.1464
7.34475 77.0491
7.5236 53.5071
7.70247 55.9561
7.88135 56.865
8.06026 61.4727
8.23919 68.4486
8.41812 82.8186
8.59709 1181.38
8.77609 96.5592
8.9551 88.7723
9.13412 81.4434
9.31318 81.8667
9.49226 83.7004
9.67134 94.9367
9.85047 99.0884
10.0296 317.511
10.2088 362.963
10.388 101.771
10.5672 528.769
10.7465 84.7932
10.9257 77.0057
11.105 70.537
11.2844 68.2901
11.4637 63.8549
11.6431 62.4909
11.8225 61.4768
12.002 62.5961
12.1814 156.741
12.3609 67.4276
12.5405 63.7232
12.72 67.6088
12.8996 69.8387
13.0792 77.7761
13.2589 240.957
13.4386 118.601
13.6183 255.418
13.7981 94.7842
13.9779 74.8269
14.1577 70.9441
14.3376 69.571
14.5175 67.5547
14.6974 69.1721
14.8774 108.992
15.0574 143.791
15.2374 69.1008
15.4175 65.236
15.5976 64.5178
15.7778 93.0823
15.958 149.17
16.1382 60.8478
16.3185 57.3453
16.4988 54.418
16.6792 53.6204
16.8596 54.1769
17.04 54.6765
17.2205 65.8347
17.401 68.7794
17.5815 57.9947
17.7622 60.099
17.9428 71.5293
18.1237 136.431
18.3044 90.5742
18.4852 74.7531
18.666 59.3111
18.8469 56.977
19.0278 55.7161
19.2088 58.1976
19.3898 74.2443
19.5709 53.2545
19.752 52.1004
19.9332 55.0853
20.1144 68.599
20.2957 63.8449
20.477 52.6178
20.6586 48.6427
20.84 47.882
21.0215 47.8544
21.203 50.1278
21.3846 47.9781
21.5662 47.9324
21.7479 51.5989
21.9297 63.3529
22.1115 55.2576
22.2933 48.7207
22.4753 47.9976
22.6572 47.9284
22.8393 51.0436
23.0214 56.0958
23.2037 48.0573
23.3859 48.7553
23.5682 56.3195
23.7505 47.3827
23.9329 44.541
24.1154 43.5322
24.2979 42.741
24.4805 42.1966
24.6631 41.9611
24.8458 41.4286
25.0286 42.0695
25.2114 43.9508
25.3943 43.7909
25.5773 40.1498
25.7605 39.6914
25.9436 40.0192
26.1268 40.859
26.31 39.368
26.4933 39.9766
26.6767 41.4517
26.8601 39.6796
27.0437 38.2367
27.2272 37.8626
27.4109 37.7465
27.5946 37.6928
27.7784 37.2844
27.9623 37.7866
28.1462 38.2164
28.3304 36.48
28.5145 35.2565
28.6987 35.0446
28.8829 34.7866
29.0673 34.1693
29.2517 33.7699
29.4361 33.5618
29.6207 32.5835
29.8053 32.242
29.99 32.0785
30.1748 31.9369
30.3597 31.8436
30.5447 31.648
30.7297 31.6874
30.915 31.0421
31.1002 30.5565
31.2855 30.369
31.4708 30.3422
31.6563 29.9122
31.8418 29.6517
32.0275 29.4235
32.2132 28.843
32.399 28.4836
32.5848 28.0026
32.7708 27.6517
32.9569 27.6175
33.143 27.3258
33.3293 26.9534
33.5158 26.6025
33.7022 26.2251
33.8887 25.8274
34.0753 25.6483
34.262 25.2015
34.4488 24.9456
34.6357 24.5554
34.8227 24.2778
35.0098 24.1261
35.1969 23.8531
35.3842 23.6243
35.5716 23.3861
35.759 23.1251
35.9468 22.709
36.1345 22.4694
36.3222 22.2301
36.5101 22.0316
36.6981 21.7405
36.8861 21.4037
37.0743 21.191
37.2626 20.8867
37.451 20.614
37.6395 20.4784
37.8281 20.0905
38.0168 19.9151
38.2056 19.6065
38.3945 19.2999
38.5837 19.1525
38.7728 18.9135
38.9621 18.6647
39.1514 18.3559
39.3409 18.2395
39.5304 17.9922
39.7201 17.7801
39.9099 17.5472
40.0999 17.2477
40.2899 17.0647
40.48 16.7989
40.6703 16.6337
40.8607 16.455
41.0512 16.2005
41.242 16.0097
41.4327 15.7823
41.6236 15.5745
41.8146 15.3239
42.0057 15.1155
42.1969 14.9682
42.3882 14.7999
42.5797 14.6016
42.7713 14.432
42.963 14.1326
43.1549 13.9923
43.3468 13.7992
43.5389 13.6458
43.7312 13.4393
43.9237 13.2387
44.1162 13.0147
44.3088 12.8695
44.5016 12.6373
44.6945 12.4937
44.8875 12.3135
45.0806 12.1625
45.2739 11.9876
45.4673 11.8436
45.6609 11.6443
45.8546 11.5133
46.0484 11.3611
46.2424 11.1447
46.4365 10.979
46.631 10.8471
46.8254 10.6891
47.0199 10.5166
47.2146 10.4093
47.4095 10.2161
47.6044 10.0951
47.7996 9.95083
47.9948 9.79867
48.1902 9.63195
48.3858 9.52467
48.5815 9.37693
48.7774 9.21815
48.9734 9.08164
49.1696 8.95327
49.3661 8.8243
49.5626 8.67218
49.7592 8.56274
49.956 8.41508
50.153 8.26975
50.3501 8.15235
50.5474 8.02308
50.7448 7.91479
50.9424 7.80852
51.1402 7.7044
51.3381 7.55632
51.5362 7.46824
51.7344 7.27792
51.9328 7.17255
52.1316 7.05791
52.3304 6.94154
52.5293 6.83022
52.7284 6.74319
52.9276 6.61412
53.1271 6.51632
53.3267 6.38536
53.5265 6.28901
53.7264 6.15462
53.9266 6.08326
54.1269 5.96965
54.3274 5.85322
54.528 5.68245
54.7289 5.60589
54.9301 5.35903
55.1314 5.28217
55.3328 5.08306
55.5344 4.88236
55.7361 4.72035

File: Ni3Fe_FD0955.xy
TT I
1.27165 7.32978
1.45013 6.00306
1.62863 5.08777
1.80712 4.81739
1.98562 4.91731
2.16411 5.27057
2.34263 5.56473
2.52115 7.34569
2.69965 8.6018
2.87818 8.94495
3.05672 11.2355
3.23527 15.386
3.4138 18.6774
3.59237 23.289
3.77094 26.1106
3.9495 29.2964
4.12809 33.9028
4.30669 160.499
4.4853 58.8653
4.6639 54.3321
4.84253 66.3988
5.02118 84.7846
5.19981 295.424
5.37848 179.173
5.55716 100.614
5.73586 90.3963
5.91455 91.8081
6.09328 4526.2
6.27201 79.6808
6.45075 66.9152
6.62952 61.8583
6.8083 57.9474
6.98711 54.703
7.16591 54.9021
7.34475 78.914
7.5236 53.4196
7.70247 55.5667
7.88135 56.5873
8.06026 61.7483
8.23919 68.2289
8.41812 82.6934
8.59709 1174.85
8.77609 95.9458
8.9551 89.0173
9.13412 80.9834
9.31318 81.8944
9.49226 83.1661
9.67134 94.9296
9.85047 98.4986
10.0296 314.625
10.2088 367.434
10.388 101.995
10.5672 521.792
10.7465 85.1364
10.9257 76.6295
11.105 70.3504
11.2844 68.0548
11.4637 63.5816
11.6431 62.4368
11.8225 61.2777
12.002 62.1843
12.1814 156.806
12.3609 67.5528
12.5405 63.0112
12.72 67.8598
12.8996 69.3793
13.0792 77.2019
13.2589 239.476
13.4386 119.475
13.6183 253.211
13.7981 95.2152
13.9779 74.389
14.1577 70.8117
14.3376 69.7153
14.5175 67.721
14.6974 68.8165
14.8774 108.006
15.0574 145.162
15.2374 69.1266
15.4175 65.0313
15.5976 64.2525
15.7778 92.7806
15.958 150.388
16.1382 61.0326
16.3185 57.297
16.4988 54.2074
16.6792 53.354
16.8596 54.1396
17.04 54.6667
17.2205 65.5604
17.401 69.0558
17.5815 57.993
17.7622 59.9561
17.9428 71.5319
18.1237 137.375
18.3044 90.5049
18.4852 75.0091
18.666 59.3214
18.8469 56.8973
19.0278 55.8034
19.2088 58.2669
19.3898 74.4093
19.5709 53.2139
19.752 52.2103
19.9332 55.032
20.1144 68.758
20.2957 63.7232
20.477 52.6214
20.6586 48.8998
20.84 47.9255
21.0215 47.803
21.203 50.1315
21.3846 48.1664
21.5662 47.8939
21.7479 51.588
21.9297 63.5669
22.1115 55.2318
22.2933 49.163
22.4753 47.9526
22.6572 47.7429
22.8393 51.1624
23.0214 56.2233
23.2037 47.9875
23.3859 48.8273
23.5682 56.5192
23.7505 47.448
23.9329 44.4165
24.1154 43.3704
24.2979 42.7123
24.4805 42.3073
24.6631 42.0291
24.8458 41.5627
25.0286 42.0226
25.2114 43.821
25.3943 43.6632
25.5773 40.178
25.7605 39.5111
25.9436 40.131
26.1268 41.0532
26.31 39.3327
26.4933 39.9702
26.6767 41.4637
26.8601 39.7801
27.0437 38.3779
27.2272 37.9194
27.4109 37.6933
27.5946 37.8119
27.7784 37.1192
27.9623 37.8877
28.1462 38.0883
28.3304 36.498
28.5145 35.3861
28.6987 35.0264
28.8829 34.8263
29.0673 34.1258
29.2517 33.7275
29.4361 33.6151
29.6207 32.6265
29.8053 32.2803
29.99 32.0333
30.1748 31.9293
30.3597 31.7917
30.5447 31.6061
30.7297 31.7432
30.915 31.1087
31.1002 30.5696
31.2855 30.4367
31.4708 30.3485
31.6563 29.8711
31.8418 29.6586
32.0275 29.4044
32.2132 28.8443
32.399 28.4667
32.5848 28.0087
32.7708 27.7391
32.9569 27.4698
33.143 27.3829
33.3293 26.9654
33.5158 26.6609
33.7022 26.1081
33.8887 25.9198
34.0753 25.5043
34.262 25.2325
34.4488 24.8843
34.6357 24.568
34.8227 24.3908
35.0098 24.0733
35.1969 23.7638
35.3842 23.6305
35.5716 23.375
35.759 23.0876
35.9468 22.6564
36.1345 22.5481
36.3222 22.3115
36.5101 21.9917
36.6981 21.755
36.8861 21.5248
37.0743 21.125
37.2626 20.9114
37.451 20.6543
37.6395 20.4312
37.8281 20.0806
38.0168 19.8336
38.2056 19.6623
38.3945 19.3949
38.5837 19.1247
38.7728 18.8921
38.9621 18.6848
39.1514 18.3875
39.3409 18.1549
39.5304 17.8913
39.7201 17.7701
39.9099 17.5942
40.0999 17.3079
40.2899 17.0385
40.48 16.8095
40.6703 16.6237
40.8607 16.4854
41.0512 16.2245
41.242 15.9673
41.4327 15.8033
41.6236 15.5808
41.8146 15.3845
42.0057 15.1253
42.1969 15.0189
42.3882 14.773
42.5797 14.5884
42.7713 14.413
42.963 14.1717
43.1549 13.99
43.3468 13.7861
43.5389 13.6167
43.7312 13.4074
43.9237 13.2369
44.1162 13.0533
44.3088 12.8215
44.5016 12.6183
44.6945 12.5018
44.8875 12.3248
45.0806 12.1507
45.2739 12.0213
45.4673 11.9059
45.6609 11.6197
45.8546 11.5069
46.0484 11.3343
46.2424 11.1576
46.4365 11.0416
46.631 10.8504
46.8254 10.6931
47.0199 10.5555
47.2146 10.4274
47.4095 10.204
47.6044 10.0667
47.7996 9.95262
47.9948 9.77335
48.1902 9.64919
48.3858 9.51671
48.5815 9.39061
48.7774 9.25969
48.9734 9.09279
49.1696 8.93695
49.3661 8.82196
49.5626 8.65408
49.7592 8.5569
49.956 8.42218
50.153 8.32196
50.3501 8.15029
50.5474 8.07937
50.7448 7.91825
50.9424 7.81319
51.1402 7.65002
51.3381 7.54628
51.5362 7.47832
51.7344 7.31482
51.9328 7.18181
52.1316 7.09533
52.3304 6.9854
52.5293 6.86657
52.7284 6.75751
52.9276 6.58739
53.1271 6.53162
53.3267 6.39733
53.5265 6.27713
53.7264 6.20017
53.9266 6.08191
54.1269 5.95772
54.3274 5.83114
54.528 5.70255
54.7289 5.50459
54.9301 5.39577
55.1314 5.26887
55.3328 5.10519
55.5344 4.87995
55.7361 4.70484

File: Ni3Fe_FD0956.xy
TT I
1.27165 7.20557
1.45013 6.08049
1.62863 4.97202
1.80712 4.8833
1.98562 5.00693
2.16411 5.14222
2.34263 5.85847
2.52115 7.17178
2.69965 8.62421
2.87818 8.61544
3.05672 11.7067
3.23527 15.551
3.4138 18.8984
3.59237 23.8238
3.77094 26.0642
3.9495 29.0549
4.12809 33.9058
4.30669 163.871
4.4853 59.1719
4.6639 54.8596
4.84253 66.4458
5.02118 85.2971
5.19981 294.199
5.37848 178.425
5.55716 100.027
5.73586 90.5381
5.91455 91.4949
6.09328 4534.93
6.27201 79.9675
6.45075 66.9125
6.62952 61.8218
6.8083 57.8389
6.98711 54.6969
7.16591 54.4713
7.34475 79.3789
7.5236 53.7692
7.70247 55.7048
7.88135 56.7494
8.06026 61.4023
8.23919 68.3941
8.41812 82.7772
8.59709 1177.7
8.77609 96.418
8.9551 89.0697
9.13412 80.9714
9.31318 81.9523
9.49226 83.4163
9.67134 95.04
9.85047 98.4926
10.0296 314.092
10.2088 362.234
10.388 101.951
10.5672 525.08
10.7465 84.969
10.9257 76.6308
11.105 70.4905
11.2844 68.3652
11.4637 63.8458
11.6431 62.5245
11.8225 61.4202
12.002 62.0217
12.1814 156.782
12.3609 67.923
12.5405 63.586
12.72 67.6933
12.8996 70.0154
13.0792 77.5453
13.2589 239.689
13.4386 118.868
13.6183 252.911
13.7981 95.0143
13.9779 74.3485
14.1577 70.8197
14.3376 69.7906
14.5175 67.4415
14.6974 69.158
14.8774 108.353
15.0574 144.977
15.2374 69.0405
15.4175 65.1698
15.5976 64.3953
15.7778 92.7115
15.958 148.965
16.1382 60.9305
16.3185 57.3888
16.4988 54.3887
16.6792 53.3249
16.8596 54.0187
17.04 54.611
17.2205 65.8427
17.401 69.0952
17.5815 58.0695
17.7622 59.933
17.9428 71.4536
18.1237 136.938
18.3044 90.0976
18.4852 75.1256
18.666 59.4262
18.8469 57.0493
19.0278 55.6781
19.2088 58.1274
19.3898 74.3371
19.5709 53.213
19.752 52.3868
19.9332 55.1747
20.1144 68.632
20.2957 64.0424
20.477 52.6569
20.6586 48.7612
20.84 47.8811
21.0215 47.6536
21.203 50.0128
21.3846 48.0348
21.5662 47.7735
21.7479 51.609
21.9297 63.3548
22.1115 55.256
22.2933 48.9059
22.4753 47.7698
22.6572 47.7806
22.8393 50.9331
23.0214 56.1512
23.2037 47.9426
23.3859 48.6505
23.5682 56.3947
23.7505 47.4414
23.9329 44.2922
24.1154 43.4382
24.2979 42.6355
24.4805 42.1521
24.6631 42.0755
24.8458 41.464
25.0286 42.1003
25.2114 43.8885
25.3943 43.5486
25.5773 40.1894
25.7605 39.7093
25.9436 40.0921
26.1268 40.9696
26.31 39.4857
26.4933 39.9307
26.6767 41.4318
26.8601 39.8099
27.0437 38.2711
27.2272 37.8203
27.4109 37.6659
27.5946 37.6827
27.7784 37.2327
27.9623 37.8535
28.1462 38.1561
28.3304 36.4585
28.5145 35.3951
28.6987 34.9774
28.8829 34.8143
29.0673 34.1103
29.2517 33.7815
29.4361 33.5156
29.6207 32.5748
29.8053 32.3026
29.99 32.0045
30.1748 31.9013
30.3597 31.6565
30.5447 31.6372
30.7297 31.6565
30.915 30.9917
31.1002 30.6406
31.2855 30.3067
31.4708 30.3118
31.6563 29.8899
31.8418 29.6115
32.0275 29.3389
32.2132 28.8321
32.399 28.4466
32.5848 27.8651
32.7708 27.6602
32.9569 27.5254
33.143 27.2558
33.3293 26.9417
33.5158 26.5805
33.7022 26.1149
33.8887 25.9059
34.0753 25.5275
34.262 25.2373
34.4488 24.8737
34.6357 24.5216
34.8227 24.2681
35.0098 24.1056
35.1969 23.7895
35.3842 23.5986
35.5716 23.3025
35.759 23.1023
35.9468 22.7213
36.1345 22.4601
36.3222 22.2101
36.5101 22.1115
36.6981 21.7581
36.8861 21.4135
37.0743 21.1321
37.2626 20.8669
37.451 20.5809
37.6395 20.5289
37.8281 20.1745
38.0168 19.8864
38.2056 19.6011
38.3945 19.3378
38.5837 19.0852
38.7728 18.9552
38.9621 18.6877
39.1514 18.3232
39.3409 18.1385
39.5304 17.9637
39.7201 17.7795
39.9099 17.5872
40.0999 17.2881
40.2899 17.0544
40.48 16.8179
40.6703 16.6456
40.8607 16.4744
41.0512 16.2462
41.242 15.9834
41.4327 15.8274
41.6236 15.5662
41.8146 15.3695
42.0057 15.1861
42.1969 14.9658
42.3882 14.7971
42.5797 14.5574
42.7713 14.3708
42.963 14.2137
43.1549 14.026
43.3468 13.7874
43.5389 13.6165
43.7312 13.4298
43.9237 13.2494
44.1162 13.0605
44.3088 12.8772
44.5016 12.6724
44.6945 12.5123
44.8875 12.3448
45.0806 12.1698
45.2739 11.9701
45.4673 11.8667
45.6609 11.6422
45.8546 11.521
46.0484 11.3202
46.2424 11.1529
46.4365 11.0019
46.631 10.8229
46.8254 10.6753
47.0199 10.5032
47.2146 10.3747
47.4095 10.232
47.6044 10.0871
47.7996 9.88839
47.9948 9.79329
48.1902 9.61266
48.3858 9.4877
48.5815 9.37643
48.7774 9.25443
48.9734 9.10137
49.1696 8.94423
49.3661 8.8456
49.5626 8.70591
49.7592 8.57695
49.956 8.41688
50.153 8.29748
50.3501 8.1406
50.5474 8.03771
50.7448 7.9241
50.9424 7.81402
51.1402 7.68348
51.3381 7.57489
51.5362 7.43445
51.7344 7.31404
51.9328 7.20944
52.1316 7.08292
52.3304 6.96084
52.5293 6.7782
52.7284 6.73482
52.9276 6.63928
53.1271 6.53458
53.3267 6.38289
53.5265 6.27253
53.7264 6.1719
53.9266 6.08196
54.1269 5.9714
54.3274 5.84921
54.528 5.67091
54.7289 5.51715
54.9301 5.39136
55.1314 5.22533
55.3328 5.04034
55.5344 4.8641
55.7361 4.72683

File: Ni3Fe_FD0957.xy
TT I
1.27165 7.59094
1.45013 6.31323
1.62863 4.7064
1.80712 5.37246
1.98562 4.42189
2.16411 4.88087
2.34263 5.72198
2.52115 7.48066
2.69965 9.25766
2.87818 8.83958
3.05672 11.5555
3.23527 15.2981
3.4138 18.933
3.59237 23.6858
3.77094 25.855
3.9495 29.3353
4.12809 34.2599
4.30669 168.464
4.4853 60.01
4.6639 54.9124
4.84253 66.7397
5.02118 85.4079
5.19981 294.319
5.37848 177.099
5.55716 100.498
5.73586 90.8971
5.91455 91.6011
6.09328 4538.27
6.27201 80.1757
6.45075 66.9237
6.62952 61.9552
6.8083 58.046
6.98711 55.1122
7.16591 54.8749
7.34475 80.0302
7.5236 54.0321
7.70247 55.2294
7.88135 56.9623
8.06026 61.717
8.23919 68.4268
8.41812 83.2596
8.59709 1177.24
8.77609 96.6396
8.9551 89.2727
9.13412 80.8543
9.31318 81.7948
9.49226 83.4067
9.67134 95.2874
9.85047 98.2111
10.0296 314.704
10.2088 359.199
10.388 101.959
10.5672 528.665
10.7465 84.9478
10.9257 76.9607
11.105 70.8447
11.2844 68.5005
11.4637 63.4933
11.6431 62.6849
11.8225 61.3965
12.002 62.3102
12.1814 156.526
12.3609 67.8692
12.5405 63.3278
12.72 67.9537
12.8996 69.8159
13.0792 78.1759
13.2589 239.444
13.4386 118.36
13.6183 253.451
13.7981 94.7227
13.9779 74.5972
14.1577 70.9139
14.3376 69.9144
14.5175 67.5809
14.6974 69.0239
14.8774 108.247
15.0574 143.672
15.2374 69.1141
15.4175 65.1943
15.5976 64.5819
15.7778 92.534
15.958 148.153
16.1382 60.9777
16.3185 57.4169
16.4988 54.4633
16.6792 53.6847
16.8596 54.1557
17.04 54.5302
17.2205 65.7344
17.401 68.8439
17.5815 58.2169
17.7622 60.0883
17.9428 71.3324
18.1237 136.719
18.3044 90.1749
18.4852 74.7203
18.666 59.1813
18.8469 57.216
19.0278 55.6597
19.2088 58.1648
19.3898 74.1586
19.5709 53.327
19.752 52.2628
19.9332 55.1422
20.1144 68.4886
20.2957 63.7612
20.477 52.4745
20.6586 48.7292
20.84 47.8916
21.0215 47.7876
21.203 50.0098
21.3846 47.9926
21.5662 47.8034
21.7479 51.6439
21.9297 63.2052
22.1115 55.2029
22.2933 48.9163
22.4753 47.8124
22.6572 47.8806
22.8393 51.0879
23.0214 55.989
23.2037 47.7589
23.3859 48.7144
23.5682 56.4701
23.7505 47.2825
23.9329 44.4473
24.1154 43.4166
24.2979 42.793
24.4805 42.1486
24.6631 42.0351
24.8458 41.5274
25.0286 42.0228
25.2114 43.9003
25.3943 43.7525
25.5773 40.2338
25.7605 39.6874
25.9436 40.0965
26.1268 40.9147
26.31 39.3337
26.4933 40.0677
26.6767 41.4449
26.8601 39.7192
27.0437 38.1579
27.2272 37.9219
27.4109 37.7429
27.5946 37.6399
27.7784 37.2167
27.9623 37.7512
28.1462 38.1578
28.3304 36.4526
28.5145 35.3202
28.6987 34.9748
28.8829 34.8032
29.0673 34.2048
29.2517 33.817
29.4361 33.6182
29.6207 32.5104
29.8053 32.3815
29.99 32.0648
30.1748 31.9494
30.3597 31.75
30.5447 31.5765
30.7297 31.6217
30.915 31.0174
31.1002 30.6571
31.2855 30.2978
31.4708 30.2685
31.6563 29.8522
31.8418 29.6145
32.0275 29.3432
32.2132 29.0221
32.399 28.4053
32.5848 27.9225
32.7708 27.6382
32.9569 27.5063
33.143 27.3062
33.3293 26.9829
33.5158 26.5491
33.7022 26.0331
33.8887 25.917
34.0753 25.569
34.262 25.1209
34.4488 24.9055
34.6357 24.6023
34.8227 24.3049
35.0098 24.1106
35.1969 23.8282
35.3842 23.6164
35.5716 23.4261
35.759 23.1089
35.9468 22.6749
36.1345 22.526
36.3222 22.3344
36.5101 22.0473
36.6981 21.727
36.8861 21.482
37.0743 21.12
37.2626 20.907
37.451 20.5882
37.6395 20.5034
37.8281 20.0782
38.0168 19.8512
38.2056 19.6195
38.3945 19.2944
38.5837 19.1288
38.7728 18.884
38.9621 18.6631
39.1514 18.4175
39.3409 18.1459
39.5304 17.9191
39.7201 17.7739
39.9099 17.5588
40.0999 17.2507
40.2899 17.0689
40.48 16.8068
40.6703 16.6597
40.8607 16.4447
41.0512 16.2413
41.242 15.9164
41.4327 15.8771
41.6236 15.5908
41.8146 15.4251
42.0057 15.1392
42.1969 14.9247
42.3882 14.8184
42.5797 14.6002
42.7713 14.4344
42.963 14.1838
43.1549 13.9751
43.3468 13.774
43.5389 13.6553
43.7312 13.4295
43.9237 13.2368
44.1162 13.0693
44.3088 12.8483
44.5016 12.6765
44.6945 12.5321
44.8875 12.3715
45.0806 12.2068
45.2739 11.975
45.4673 11.8235
45.6609 11.6281
45.8546 11.504
46.0484 11.3647
46.2424 11.2093
46.4365 11.0239
46.631 10.8628
46.8254 10.6637
47.0199 10.5539
47.2146 10.392
47.4095 10.2125
47.6044 10.0863
47.7996 9.91014
47.9948 9.7947
48.1902 9.62383
48.3858 9.50943
48.5815 9.36865
48.7774 9.24374
48.9734 9.09694
49.1696 8.95322
49.3661 8.81158
49.5626 8.68117
49.7592 8.55422
49.956 8.44932
50.153 8.29154
50.3501 8.16178
50.5474 8.03985
50.7448 7.94991
50.9424 7.80729
51.1402 7.65405
51.3381 7.55285
51.5362 7.44456
51.7344 7.32115
51.9328 7.19864
52.1316 7.06257
52.3304 7.00971
52.5293 6.82406
52.7284 6.71427
52.9276 6.60479
53.1271 6.51877
53.3267 6.42517
53.5265 6.26431
53.7264 6.19219
53.9266 6.0258
54.1269 5.96494
54.3274 5.84098
54.528 5.74502
54.7289 5.5931
54.9301 5.39029
55.1314 5.30561
55.3328 5.07896
55.5344 4.85429
55.7361 4.77486

File: Ni3Fe_FD0958.xy
TT I
1.27165 6.9885
1.45013 6.0756
1.62863 5.03695
1.80712 4.77861
1.98562 4.51428
2.16411 5.19178
2.34263 5.74338
2.52115 7.16724
2.69965 8.64282
2.87818 8.97491
3.05672 10.8388
3.23527 15.4216
3.4138 18.8947
3.59237 23.4829
3.77094 25.6375
3.9495 29.6273
4.12809 34.8362
4.30669 172.089
4.4853 60.1579
4.6639 54.4515
4.84253 66.6615
5.02118 85.1438
5.19981 291.977
5.37848 176.147
5.55716 100.244
5.73586 90.1887
5.91455 91.1848
6.09328 4547.33
6.27201 80.1247
6.45075 66.8842
6.62952 61.5233
6.8083 57.8408
6.98711 54.8974
7.16591 54.9334
7.34475 80.9161
7.5236 53.8464
7.70247 55.5012
7.88135 57.2666
8.06026 61.6881
8.23919 68.5556
8.41812 82.8914
8.59709 1174.45
8.77609 96.311
8.9551 89.1656
9.13412 80.7153
9.31318 81.5331
9.49226 83.5129
9.67134 95.3896
9.85047 98.4239
10.0296 312.391
10.2088 358.559
10.388 102.055
10.5672 527.578
10.7465 84.869
10.9257 76.8279
11.105 70.3567
11.2844 68.3896
11.4637 63.7204
11.6431 62.2468
11.8225 61.5181
12.002 62.1185
12.1814 156.182
12.3609 68.0665
12.5405 63.4365
12.72 67.7694
12.8996 69.711
13.0792 78.3868
13.2589 239.094
13.4386 118.42
13.6183 252.287
13.7981 94.7781
13.9779 74.5632
14.1577 70.9451
14.3376 69.7385
14.5175 67.6365
14.6974 69.1082
14.8774 108.074
15.0574 144.161
15.2374 69.3833
15.4175 65.1335
15.5976 64.3275
15.7778 92.4208
15.958 148.134
16.1382 61.1639
16.3185 57.4315
16.4988 54.5766
16.6792 53.4719
16.8596 54.1864
17.04 54.7173
17.2205 65.6628
17.401 68.9016
17.5815 58.0425
17.7622 60.0793
17.9428 71.3562
18.1237 136.786
18.3044 90.3482
18.4852 74.8186
18.666 59.3251
18.8469 56.9781
19.0278 56.0244
19.2088 58.1199
19.3898 74.5639
19.5709 53.1575
19.752 52.2386
19.9332 54.9848
20.1144 68.6771
20.2957 63.7648
20.477 52.4612
20.6586 48.7033
20.84 48.1665
21.0215 47.6482
21.203 50.0731
21.3846 47.9074
21.5662 47.9853
21.7479 51.4835
21.9297 63.347
22.1115 55.2189
22.2933 48.7459
22.4753 47.8655
22.6572 47.8711
22.8393 50.9765
23.0214 56.1664
23.2037 47.8896
23.3859 48.8459
23.5682 56.4797
23.7505 47.3517
23.9329 44.3718
24.1154 43.2812
24.2979 42.5579
24.4805 42.1574
24.6631 42.108
24.8458 41.3252
25.0286 42.1231
25.2114 43.8416
25.3943 43.6344
25.5773 40.217
25.7605 39.7378
25.9436 40.1778
26.1268 41.002
26.31 39.3442
26.4933 39.9546
26.6767 41.4482
26.8601 39.8098
27.0437 38.187
27.2272 37.8147
27.4109 37.7248
27.5946 37.6924
27.7784 37.2566
27.9623 37.7414
28.1462 38.1526
28.3304 36.4995
28.5145 35.3701
28.6987 34.9944
28.8829 34.817
29.0673 33.9997
29.2517 33.7487
29.4361 33.4574
29.6207 32.5857
29.8053 32.3413
29.99 32.1142
30.1748 31.8718
30.3597 31.7225
30.5447 31.6558
30.7297 31.6953
30.915 31.067
31.1002 30.6352
31.2855 30.3818
31.4708 30.3014
31.6563 29.8509
31.8418 29.7082
32.0275 29.322
32.2132 28.9305
32.399 28.4514
32.5848 28.0521
32.7708 27.7062
32.9569 27.5325
33.143 27.2964
33.3293 26.8733
33.5158 26.5628
33.7022 26.1947
33.8887 25.8934
34.0753 25.6757
34.262 25.263
34.4488 24.8331
34.6357 24.4961
34.8227 24.2681
35.0098 24.1295
35.1969 23.8533
35.3842 23.6057
35.5716 23.4438
35.759 23.0562
35.9468 22.7569
36.1345 22.4645
36.3222 22.2577
36.5101 22.0212
36.6981 21.7663
36.8861 21.4101
37.0743 21.1136
37.2626 20.9139
37.451 20.6602
37.6395 20.4767
37.8281 20.1414
38.0168 19.8927
38.2056 19.6775
38.3945 19.3158
38.5837 19.1377
38.7728 18.9278
38.9621 18.6687
39.1514 18.3849
39.3409 18.0986
39.5304 17.971
39.7201 17.7774
39.9099 17.5243
40.0999 17.2828
40.2899 17.0738
40.48 16.7921
40.6703 16.6343
40.8607 16.4678
41.0512 16.1944
41.242 15.962
41.4327 15.7453
41.6236 15.5454
41.8146 15.4043
42.0057 15.248
42.1969 14.9439
42.3882 14.8286
42.5797 14.6479
42.7713 14.3936
42.963 14.1978
43.1549 13.9975
43.3468 13.7836
43.5389 13.6191
43.7312 13.3951
43.9237 13.2473
44.1162 13.0183
44.3088 12.9066
44.5016 12.6741
44.6945 12.4992
44.8875 12.3872
45.0806 12.1638
45.2739 12.0212
45.4673 11.8401
45.6609 11.6657
45.8546 11.4861
46.0484 11.3545
46.2424 11.2175
46.4365 11.0367
46.631 10.8766
46.8254 10.692
47.0199 10.5174
47.2146 10.3807
47.4095 10.2419
47.6044 10.0246
47.7996 9.93303
47.9948 9.7883
48.1902 9.6583
48.3858 9.49013
48.5815 9.36835
48.7774 9.26008
48.9734 9.13016
49.1696 8.95786
49.3661 8.77346
49.5626 8.65514
49.7592 8.55738
49.956 8.45908
50.153 8.27776
50.3501 8.18969
50.5474 8.03754
50.7448 7.94627
50.9424 7.7864
51.1402 7.68972
51.3381 7.52221
51.5362 7.49086
51.7344 7.35514
51.9328 7.19338
52.1316 7.05429
52.3304 6.95306
52.5293 6.81084
52.7284 6.75963
52.9276 6.6227
53.1271 6.51219
53.3267 6.39156
53.5265 6.272
53.7264 6.17329
53.9266 6.08527
54.1269 5.94775
54.3274 5.83864
54.528 5.75823
54.7289 5.53927
54.9301 5.42176
55.1314 5.27073
55.3328 5.04804
55.5344 4.85603
55.7361 4.77524