Folder: NiFe_MOF_catalyst_paper/XRD (part 100)

File: Ni3Fe_FD0542.xy
TT I
1.27165 7.4409
1.45013 6.55715
1.62863 5.59363
1.80712 4.67579
1.98562 4.76761
2.16411 5.59074
2.34263 5.80662
2.52115 6.17807
2.69965 7.86129
2.87818 8.13819
3.05672 11.3024
3.23527 15.2309
3.4138 18.8158
3.59237 25.1566
3.77094 26.2245
3.9495 29.9255
4.12809 35.7879
4.30669 287.036
4.4853 73.033
4.6639 55.595
4.84253 67.3724
5.02118 87.0902
5.19981 366.253
5.37848 207.17
5.55716 102.864
5.73586 92.4361
5.91455 94.5582
6.09328 4093.81
6.27201 85.2141
6.45075 68.081
6.62952 64.028
6.8083 59.7662
6.98711 56.9034
7.16591 56.2514
7.34475 106.732
7.5236 55.8403
7.70247 56.9647
7.88135 58.5999
8.06026 62.7389
8.23919 70.393
8.41812 86.5992
8.59709 1080.4
8.77609 101.617
8.9551 94.6592
9.13412 82.4601
9.31318 83.1358
9.49226 84.7412
9.67134 102.609
9.85047 100.352
10.0296 326.149
10.2088 458.013
10.388 105.946
10.5672 494.797
10.7465 87.4987
10.9257 79.5766
11.105 72.6804
11.2844 72.0703
11.4637 65.5941
11.6431 64.3399
11.8225 63.3648
12.002 63.5479
12.1814 145.649
12.3609 73.4463
12.5405 65.3566
12.72 72.1408
12.8996 71.4094
13.0792 79.1618
13.2589 223.211
13.4386 132.074
13.6183 230.706
13.7981 103.413
13.9779 76.5312
14.1577 73.4928
14.3376 73.3234
14.5175 69.3804
14.6974 71.2487
14.8774 107.649
15.0574 161.169
15.2374 72.7244
15.4175 67.0902
15.5976 66.4063
15.7778 93.1268
15.958 166.023
16.1382 64.2986
16.3185 59.8994
16.4988 56.2623
16.6792 55.3138
16.8596 55.917
17.04 56.4096
17.2205 66.3608
17.401 73.8693
17.5815 59.7739
17.7622 62.0339
17.9428 73.6434
18.1237 139.055
18.3044 89.2798
18.4852 81.2502
18.666 61.1093
18.8469 58.6266
19.0278 57.4772
19.2088 59.9896
19.3898 77.6293
19.5709 55.0002
19.752 53.882
19.9332 56.6378
20.1144 70.4595
20.2957 63.7119
20.477 54.9641
20.6586 50.3099
20.84 49.3354
21.0215 49.057
21.203 51.214
21.3846 49.6625
21.5662 49.2802
21.7479 52.6964
21.9297 65.4709
22.1115 56.7297
22.2933 50.7353
22.4753 49.5356
22.6572 49.3383
22.8393 52.1428
23.0214 58.4573
23.2037 49.4403
23.3859 50.1043
23.5682 57.0458
23.7505 49.2354
23.9329 45.7863
24.1154 44.5403
24.2979 43.957
24.4805 43.356
24.6631 43.4199
24.8458 42.6199
25.0286 43.287
25.2114 45.0258
25.3943 45.3712
25.5773 41.3519
25.7605 40.8995
25.9436 41.1811
26.1268 42.2062
26.31 40.6646
26.4933 41.1791
26.6767 42.743
26.8601 40.9107
27.0437 39.3078
27.2272 39.0879
27.4109 38.8979
27.5946 38.7856
27.7784 38.1623
27.9623 38.8106
28.1462 39.334
28.3304 37.6416
28.5145 36.4151
28.6987 36.028
28.8829 35.9154
29.0673 35.1651
29.2517 34.6901
29.4361 34.5159
29.6207 33.5382
29.8053 33.3361
29.99 33.0439
30.1748 32.87
30.3597 32.6884
30.5447 32.5948
30.7297 32.5683
30.915 31.9657
31.1002 31.4552
31.2855 31.1932
31.4708 31.2225
31.6563 30.7111
31.8418 30.5363
32.0275 30.2862
32.2132 29.8283
32.399 29.2774
32.5848 28.7904
32.7708 28.5412
32.9569 28.4026
33.143 28.0999
33.3293 27.7172
33.5158 27.361
33.7022 26.8668
33.8887 26.6674
34.0753 26.3203
34.262 25.92
34.4488 25.6614
34.6357 25.319
34.8227 24.9891
35.0098 24.7549
35.1969 24.4429
35.3842 24.2513
35.5716 24.0427
35.759 23.708
35.9468 23.3567
36.1345 23.2012
36.3222 22.9699
36.5101 22.6922
36.6981 22.3682
36.8861 22.0857
37.0743 21.7327
37.2626 21.4673
37.451 21.2853
37.6395 21.0712
37.8281 20.6999
38.0168 20.469
38.2056 20.1739
38.3945 19.9397
38.5837 19.6842
38.7728 19.4642
38.9621 19.2045
39.1514 18.8793
39.3409 18.6974
39.5304 18.4423
39.7201 18.322
39.9099 18.0678
40.0999 17.7969
40.2899 17.5469
40.48 17.3975
40.6703 17.1573
40.8607 16.9616
41.0512 16.7118
41.242 16.4736
41.4327 16.1964
41.6236 16.0195
41.8146 15.8821
42.0057 15.5889
42.1969 15.4175
42.3882 15.1872
42.5797 15.0055
42.7713 14.813
42.963 14.6379
43.1549 14.4235
43.3468 14.2012
43.5389 14.0221
43.7312 13.8385
43.9237 13.6757
44.1162 13.4477
44.3088 13.2476
44.5016 13.0365
44.6945 12.9223
44.8875 12.705
45.0806 12.5174
45.2739 12.3442
45.4673 12.1976
45.6609 11.9586
45.8546 11.8863
46.0484 11.6578
46.2424 11.5024
46.4365 11.3578
46.631 11.1341
46.8254 10.9746
47.0199 10.8641
47.2146 10.7184
47.4095 10.5135
47.6044 10.3581
47.7996 10.2061
47.9948 10.0274
48.1902 9.94422
48.3858 9.74279
48.5815 9.63647
48.7774 9.53369
48.9734 9.37666
49.1696 9.22537
49.3661 9.10881
49.5626 8.94446
49.7592 8.83481
49.956 8.67357
50.153 8.5623
50.3501 8.39037
50.5474 8.31141
50.7448 8.18379
50.9424 8.03652
51.1402 7.93164
51.3381 7.77488
51.5362 7.6425
51.7344 7.49183
51.9328 7.36705
52.1316 7.23528
52.3304 7.18616
52.5293 7.03415
52.7284 6.92913
52.9276 6.8023
53.1271 6.76168
53.3267 6.57599
53.5265 6.44349
53.7264 6.35029
53.9266 6.25227
54.1269 6.12192
54.3274 6.01968
54.528 5.82229
54.7289 5.75766
54.9301 5.54854
55.1314 5.43831
55.3328 5.21297
55.5344 5.07
55.7361 4.91119

File: Ni3Fe_FD0543.xy
TT I
1.27165 7.25088
1.45013 6.01842
1.62863 5.35201
1.80712 4.67749
1.98562 4.31088
2.16411 5.17645
2.34263 4.97483
2.52115 6.6972
2.69965 7.96124
2.87818 8.25065
3.05672 10.7463
3.23527 15.5279
3.4138 18.9587
3.59237 24.561
3.77094 26.6319
3.9495 30.4115
4.12809 35.2493
4.30669 257.905
4.4853 70.0792
4.6639 56.2078
4.84253 67.9495
5.02118 87.4118
5.19981 365.478
5.37848 203.194
5.55716 103.133
5.73586 92.5142
5.91455 94.988
6.09328 4243.47
6.27201 84.797
6.45075 68.0996
6.62952 63.3495
6.8083 59.4094
6.98711 56.1228
7.16591 56.363
7.34475 100.585
7.5236 55.5036
7.70247 56.7235
7.88135 58.1764
8.06026 62.9797
8.23919 70.2709
8.41812 86.5884
8.59709 1130.68
8.77609 101.009
8.9551 93.7072
9.13412 82.1809
9.31318 83.0087
9.49226 85.0833
9.67134 101.321
9.85047 100.318
10.0296 332.319
10.2088 412.835
10.388 105.657
10.5672 514.044
10.7465 87.3207
10.9257 79.4149
11.105 72.4632
11.2844 71.5944
11.4637 65.4093
11.6431 64.3079
11.8225 62.9425
12.002 64.1112
12.1814 149.342
12.3609 72.1317
12.5405 65.3632
12.72 71.2591
12.8996 71.1929
13.0792 79.4933
13.2589 229.983
13.4386 126.503
13.6183 238.888
13.7981 100.197
13.9779 76.5122
14.1577 73.365
14.3376 73.0162
14.5175 69.5904
14.6974 71.2163
14.8774 109.013
15.0574 153.924
15.2374 72.4464
15.4175 67.0103
15.5976 66.3902
15.7778 94.2884
15.958 160.168
16.1382 63.888
16.3185 59.6155
16.4988 56.1253
16.6792 55.1192
16.8596 55.9451
17.04 56.2211
17.2205 66.6713
17.401 72.513
17.5815 59.9868
17.7622 61.8763
17.9428 73.992
18.1237 141.422
18.3044 90.2685
18.4852 79.4042
18.666 61.2082
18.8469 58.4744
19.0278 57.5228
19.2088 60.221
19.3898 77.9239
19.5709 54.6231
19.752 53.7543
19.9332 56.6899
20.1144 70.8915
20.2957 64.2375
20.477 54.3067
20.6586 50.2308
20.84 49.1387
21.0215 49.032
21.203 51.3723
21.3846 49.5299
21.5662 49.1429
21.7479 53.0082
21.9297 65.6574
22.1115 56.5787
22.2933 50.2823
22.4753 49.4118
22.6572 49.4116
22.8393 52.2353
23.0214 58.3338
23.2037 49.1355
23.3859 50.0851
23.5682 57.5114
23.7505 48.7609
23.9329 45.6819
24.1154 44.6119
24.2979 43.8639
24.4805 43.3447
24.6631 43.2229
24.8458 42.5571
25.0286 43.0811
25.2114 45.13
25.3943 45.1012
25.5773 41.298
25.7605 40.8088
25.9436 41.18
26.1268 42.1158
26.31 40.5188
26.4933 41.0809
26.6767 42.6919
26.8601 41.0133
27.0437 39.2654
27.2272 38.8124
27.4109 38.7879
27.5946 38.8244
27.7784 38.2644
27.9623 38.6033
28.1462 39.1927
28.3304 37.548
28.5145 36.2566
28.6987 35.9571
28.8829 35.7732
29.0673 35.0032
29.2517 34.7043
29.4361 34.4706
29.6207 33.5125
29.8053 33.1919
29.99 32.8768
30.1748 32.7543
30.3597 32.5467
30.5447 32.4737
30.7297 32.4744
30.915 31.9849
31.1002 31.4892
31.2855 31.1328
31.4708 31.1803
31.6563 30.6472
31.8418 30.4076
32.0275 30.1884
32.2132 29.6822
32.399 29.2052
32.5848 28.7587
32.7708 28.436
32.9569 28.3249
33.143 27.9976
33.3293 27.6483
33.5158 27.301
33.7022 26.8388
33.8887 26.5149
34.0753 26.2834
34.262 25.8935
34.4488 25.5529
34.6357 25.2637
34.8227 24.885
35.0098 24.8155
35.1969 24.3783
35.3842 24.2124
35.5716 23.9858
35.759 23.7136
35.9468 23.3308
36.1345 23.0836
36.3222 22.8803
36.5101 22.681
36.6981 22.3711
36.8861 22.0525
37.0743 21.6877
37.2626 21.4512
37.451 21.1737
37.6395 21.0967
37.8281 20.698
38.0168 20.376
38.2056 20.2054
38.3945 19.8852
38.5837 19.6311
38.7728 19.452
38.9621 19.1766
39.1514 18.9063
39.3409 18.6334
39.5304 18.4404
39.7201 18.2467
39.9099 18.0125
40.0999 17.7221
40.2899 17.5605
40.48 17.2942
40.6703 17.0914
40.8607 16.8625
41.0512 16.6398
41.242 16.437
41.4327 16.219
41.6236 16.0064
41.8146 15.8697
42.0057 15.5826
42.1969 15.3973
42.3882 15.2013
42.5797 14.9807
42.7713 14.7483
42.963 14.5756
43.1549 14.3803
43.3468 14.1645
43.5389 13.9712
43.7312 13.8038
43.9237 13.6114
44.1162 13.4356
44.3088 13.2288
44.5016 13.0437
44.6945 12.8619
44.8875 12.6867
45.0806 12.4996
45.2739 12.3376
45.4673 12.1736
45.6609 11.9619
45.8546 11.7961
46.0484 11.6678
46.2424 11.4694
46.4365 11.3133
46.631 11.1562
46.8254 10.961
47.0199 10.8111
47.2146 10.6684
47.4095 10.4975
47.6044 10.3502
47.7996 10.1826
47.9948 10.0656
48.1902 9.94253
48.3858 9.77786
48.5815 9.63713
48.7774 9.49382
48.9734 9.31312
49.1696 9.19148
49.3661 9.05467
49.5626 8.91252
49.7592 8.83305
49.956 8.63774
50.153 8.52556
50.3501 8.39043
50.5474 8.26251
50.7448 8.15888
50.9424 8.0254
51.1402 7.90547
51.3381 7.75389
51.5362 7.65246
51.7344 7.51491
51.9328 7.36402
52.1316 7.28402
52.3304 7.15908
52.5293 7.0489
52.7284 6.90284
52.9276 6.79939
53.1271 6.6957
53.3267 6.5962
53.5265 6.45294
53.7264 6.35144
53.9266 6.2166
54.1269 6.09496
54.3274 5.99134
54.528 5.86538
54.7289 5.67885
54.9301 5.53855
55.1314 5.45724
55.3328 5.18503
55.5344 4.97868
55.7361 4.88963

File: Ni3Fe_FD0545.xy
TT I
1.27165 7.47185
1.45013 5.63845
1.62863 5.07769
1.80712 4.87297
1.98562 4.20989
2.16411 4.68508
2.34263 5.33264
2.52115 6.64003
2.69965 8.2106
2.87818 8.69918
3.05672 11.2294
3.23527 15.4107
3.4138 19.0218
3.59237 24.4936
3.77094 26.3634
3.9495 30.2155
4.12809 34.9853
4.30669 224.558
4.4853 66.8671
4.6639 55.7395
4.84253 68.1185
5.02118 87.8178
5.19981 373.431
5.37848 200.889
5.55716 103.043
5.73586 93.0477
5.91455 95.435
6.09328 4325.81
6.27201 84.1567
6.45075 67.7563
6.62952 63.5016
6.8083 59.0842
6.98711 56.5016
7.16591 56.0627
7.34475 93.8582
7.5236 55.0526
7.70247 56.7004
7.88135 58.4558
8.06026 62.346
8.23919 70.0212
8.41812 86.5172
8.59709 1174.16
8.77609 100.557
8.9551 92.5025
9.13412 82.5098
9.31318 83.3427
9.49226 85.3647
9.67134 99.41
9.85047 100.932
10.0296 347.671
10.2088 398.829
10.388 105.627
10.5672 519.658
10.7465 87.2111
10.9257 79.0205
11.105 72.4537
11.2844 71.1409
11.4637 65.6545
11.6431 64.2953
11.8225 63.0778
12.002 64.3188
12.1814 151.837
12.3609 70.9974
12.5405 65.2789
12.72 70.8816
12.8996 71.4549
13.0792 79.6123
13.2589 237.404
13.4386 124.165
13.6183 244.813
13.7981 98.0794
13.9779 76.4134
14.1577 73.1792
14.3376 72.2428
14.5175 69.4133
14.6974 70.9252
14.8774 111.595
15.0574 149.57
15.2374 71.7107
15.4175 66.932
15.5976 66.2484
15.7778 95.6549
15.958 155.794
16.1382 63.3231
16.3185 59.1672
16.4988 56.0486
16.6792 55.0685
16.8596 55.6514
17.04 56.2737
17.2205 67.1297
17.401 71.8128
17.5815 59.6277
17.7622 61.8787
17.9428 74.4661
18.1237 141.556
18.3044 90.782
18.4852 78.0669
18.666 61.0442
18.8469 58.3912
19.0278 57.3994
19.2088 60.1801
19.3898 77.5949
19.5709 54.6945
19.752 53.5694
19.9332 56.715
20.1144 70.7074
20.2957 64.5451
20.477 54.2306
20.6586 50.0699
20.84 49.145
21.0215 49.0642
21.203 51.2476
21.3846 49.2664
21.5662 49.1561
21.7479 53.0596
21.9297 65.3734
22.1115 56.3069
22.2933 50.1871
22.4753 49.4056
22.6572 49.1388
22.8393 52.2586
23.0214 57.9302
23.2037 49.068
23.3859 50.1457
23.5682 57.4279
23.7505 48.435
23.9329 45.661
24.1154 44.4993
24.2979 43.8981
24.4805 43.4075
24.6631 43.229
24.8458 42.5977
25.0286 43.2565
25.2114 45.0583
25.3943 45.0202
25.5773 41.3165
25.7605 40.8086
25.9436 41.017
26.1268 42.0191
26.31 40.4522
26.4933 41.0981
26.6767 42.5257
26.8601 40.7166
27.0437 39.1463
27.2272 38.7957
27.4109 38.6845
27.5946 38.6949
27.7784 38.1416
27.9623 38.6317
28.1462 39.1526
28.3304 37.5339
28.5145 36.2937
28.6987 35.8819
28.8829 35.73
29.0673 35.0102
29.2517 34.6129
29.4361 34.4406
29.6207 33.4398
29.8053 33.1705
29.99 32.8339
30.1748 32.6703
30.3597 32.483
30.5447 32.525
30.7297 32.4418
30.915 31.8916
31.1002 31.3471
31.2855 30.9683
31.4708 31.0413
31.6563 30.5946
31.8418 30.4864
32.0275 30.1997
32.2132 29.6595
32.399 29.1326
32.5848 28.7342
32.7708 28.3117
32.9569 28.2525
33.143 28.0862
33.3293 27.6336
33.5158 27.2368
33.7022 26.882
33.8887 26.5769
34.0753 26.1709
34.262 25.8989
34.4488 25.5499
34.6357 25.2328
34.8227 24.9311
35.0098 24.6015
35.1969 24.4322
35.3842 24.2617
35.5716 24.027
35.759 23.6498
35.9468 23.2761
36.1345 23.0748
36.3222 22.853
36.5101 22.6039
36.6981 22.3528
36.8861 22.0409
37.0743 21.6676
37.2626 21.4108
37.451 21.1508
37.6395 21.0278
37.8281 20.63
38.0168 20.3965
38.2056 20.1486
38.3945 19.8923
38.5837 19.5765
38.7728 19.3671
38.9621 19.1273
39.1514 18.82
39.3409 18.6156
39.5304 18.4098
39.7201 18.1992
39.9099 17.9633
40.0999 17.7564
40.2899 17.4934
40.48 17.2297
40.6703 17.116
40.8607 16.9055
41.0512 16.6679
41.242 16.3784
41.4327 16.2336
41.6236 16.0047
41.8146 15.8042
42.0057 15.5767
42.1969 15.3243
42.3882 15.1986
42.5797 14.9553
42.7713 14.7404
42.963 14.5532
43.1549 14.4138
43.3468 14.1406
43.5389 13.9515
43.7312 13.7141
43.9237 13.5602
44.1162 13.4238
44.3088 13.1803
44.5016 13.0239
44.6945 12.822
44.8875 12.6735
45.0806 12.4859
45.2739 12.3163
45.4673 12.141
45.6609 11.9439
45.8546 11.7754
46.0484 11.6115
46.2424 11.4287
46.4365 11.3226
46.631 11.1117
46.8254 10.9616
47.0199 10.7559
47.2146 10.638
47.4095 10.4621
47.6044 10.3136
47.7996 10.1621
47.9948 10.0326
48.1902 9.89032
48.3858 9.7401
48.5815 9.59945
48.7774 9.4637
48.9734 9.34193
49.1696 9.17778
49.3661 9.06396
49.5626 8.89352
49.7592 8.77318
49.956 8.66257
50.153 8.49936
50.3501 8.36976
50.5474 8.2469
50.7448 8.10769
50.9424 7.99718
51.1402 7.8474
51.3381 7.74941
51.5362 7.63373
51.7344 7.45848
51.9328 7.33977
52.1316 7.20715
52.3304 7.15022
52.5293 7.00926
52.7284 6.94371
52.9276 6.77239
53.1271 6.65049
53.3267 6.55461
53.5265 6.44832
53.7264 6.35209
53.9266 6.19641
54.1269 6.09404
54.3274 5.96684
54.528 5.81723
54.7289 5.68839
54.9301 5.5527
55.1314 5.42515
55.3328 5.16429
55.5344 5.05229
55.7361 4.82803

File: Ni3Fe_FD0546.xy
TT I
1.27165 7.93816
1.45013 6.37053
1.62863 5.61346
1.80712 4.95067
1.98562 4.45576
2.16411 5.1328
2.34263 5.38732
2.52115 6.59998
2.69965 7.76065
2.87818 9.02012
3.05672 10.9966
3.23527 14.9565
3.4138 19.5624
3.59237 24.2697
3.77094 26.6154
3.9495 30.1856
4.12809 34.886
4.30669 215.52
4.4853 65.6117
4.6639 56.3188
4.84253 67.6808
5.02118 87.7722
5.19981 374.712
5.37848 199.575
5.55716 102.749
5.73586 93.0106
5.91455 96.1403
6.09328 4333.72
6.27201 83.69
6.45075 67.9713
6.62952 63.2641
6.8083 59.0019
6.98711 56.2446
7.16591 55.8309
7.34475 92.4819
7.5236 55.4882
7.70247 56.7412
7.88135 58.1821
8.06026 62.9259
8.23919 70.149
8.41812 86.3638
8.59709 1184.33
8.77609 100.664
8.9551 92.4137
9.13412 82.6004
9.31318 83.1679
9.49226 85.0193
9.67134 99.4697
9.85047 100.725
10.0296 350.871
10.2088 400.934
10.388 105.636
10.5672 517.996
10.7465 86.5291
10.9257 79.0796
11.105 72.2517
11.2844 70.7843
11.4637 65.2862
11.6431 63.8061
11.8225 62.8655
12.002 64.1113
12.1814 152.083
12.3609 70.8284
12.5405 64.9707
12.72 70.5422
12.8996 71.5349
13.0792 79.488
13.2589 238.866
13.4386 124.249
13.6183 248.161
13.7981 97.8352
13.9779 76.2374
14.1577 72.9299
14.3376 72.1014
14.5175 69.5301
14.6974 70.9138
14.8774 111.943
15.0574 149.432
15.2374 71.4976
15.4175 66.8102
15.5976 66.2078
15.7778 95.9757
15.958 155.734
16.1382 63.2825
16.3185 59.2381
16.4988 55.7934
16.6792 54.8592
16.8596 55.6773
17.04 56.1527
17.2205 67.2664
17.401 71.5623
17.5815 59.7002
17.7622 61.7598
17.9428 74.5628
18.1237 141.974
18.3044 90.9768
18.4852 78.1533
18.666 60.9071
18.8469 58.462
19.0278 57.1698
19.2088 60.0252
19.3898 77.1407
19.5709 54.4582
19.752 53.6296
19.9332 56.5779
20.1144 70.8734
20.2957 64.3983
20.477 53.996
20.6586 50.0242
20.84 49.2844
21.0215 48.8829
21.203 51.3468
21.3846 49.2429
21.5662 49.0634
21.7479 52.9524
21.9297 65.2415
22.1115 56.5649
22.2933 50.3403
22.4753 49.3147
22.6572 49.2081
22.8393 52.2534
23.0214 58.0903
23.2037 49.1181
23.3859 50.0185
23.5682 57.7272
23.7505 48.4581
23.9329 45.5734
24.1154 44.4771
24.2979 43.8879
24.4805 43.3187
24.6631 43.2333
24.8458 42.6233
25.0286 43.2214
25.2114 44.9062
25.3943 44.9663
25.5773 41.1851
25.7605 40.7744
25.9436 41.2185
26.1268 42.0857
26.31 40.3921
26.4933 41.099
26.6767 42.57
26.8601 40.7072
27.0437 39.1346
27.2272 38.8425
27.4109 38.6392
27.5946 38.6613
27.7784 38.2819
27.9623 38.7226
28.1462 39.1892
28.3304 37.4413
28.5145 36.2242
28.6987 36.0007
28.8829 35.7274
29.0673 34.8673
29.2517 34.6106
29.4361 34.4748
29.6207 33.4203
29.8053 33.1606
29.99 32.8501
30.1748 32.6576
30.3597 32.4763
30.5447 32.3565
30.7297 32.6015
30.915 31.8432
31.1002 31.3389
31.2855 31.0735
31.4708 31.1036
31.6563 30.735
31.8418 30.3555
32.0275 30.1656
32.2132 29.6058
32.399 29.1418
32.5848 28.7318
32.7708 28.4733
32.9569 28.2012
33.143 28.0698
33.3293 27.6318
33.5158 27.2565
33.7022 26.8329
33.8887 26.5107
34.0753 26.2212
34.262 25.908
34.4488 25.4466
34.6357 25.1475
34.8227 24.8911
35.0098 24.6821
35.1969 24.4167
35.3842 24.1726
35.5716 23.9086
35.759 23.5832
35.9468 23.2341
36.1345 23.086
36.3222 22.8428
36.5101 22.606
36.6981 22.288
36.8861 21.9716
37.0743 21.67
37.2626 21.3806
37.451 21.1403
37.6395 20.9938
37.8281 20.6493
38.0168 20.342
38.2056 20.1269
38.3945 19.8538
38.5837 19.6454
38.7728 19.3516
38.9621 19.148
39.1514 18.8944
39.3409 18.6343
39.5304 18.3834
39.7201 18.1836
39.9099 18.017
40.0999 17.6839
40.2899 17.5408
40.48 17.2779
40.6703 17.0568
40.8607 16.8781
41.0512 16.6626
41.242 16.3671
41.4327 16.1824
41.6236 15.9698
41.8146 15.7653
42.0057 15.5557
42.1969 15.3799
42.3882 15.1436
42.5797 14.9141
42.7713 14.7638
42.963 14.5482
43.1549 14.3418
43.3468 14.1282
43.5389 13.9196
43.7312 13.7625
43.9237 13.5515
44.1162 13.3493
44.3088 13.1943
44.5016 12.9953
44.6945 12.8157
44.8875 12.6316
45.0806 12.4434
45.2739 12.2982
45.4673 12.128
45.6609 11.8915
45.8546 11.8406
46.0484 11.639
46.2424 11.4363
46.4365 11.3036
46.631 11.1039
46.8254 10.9558
47.0199 10.804
47.2146 10.6549
47.4095 10.4903
47.6044 10.2974
47.7996 10.1219
47.9948 10.0254
48.1902 9.84856
48.3858 9.70062
48.5815 9.63232
48.7774 9.49635
48.9734 9.33514
49.1696 9.19375
49.3661 9.05358
49.5626 8.86781
49.7592 8.74534
49.956 8.6613
50.153 8.50936
50.3501 8.36722
50.5474 8.26567
50.7448 8.13393
50.9424 7.97029
51.1402 7.86331
51.3381 7.74649
51.5362 7.62458
51.7344 7.48688
51.9328 7.37052
52.1316 7.19804
52.3304 7.09773
52.5293 6.99778
52.7284 6.90707
52.9276 6.77907
53.1271 6.69473
53.3267 6.53754
53.5265 6.45616
53.7264 6.35097
53.9266 6.2431
54.1269 6.14267
54.3274 5.98894
54.528 5.83977
54.7289 5.70097
54.9301 5.53326
55.1314 5.42963
55.3328 5.17263
55.5344 4.9995
55.7361 4.85294

File: Ni3Fe_FD0547.xy
TT I
1.27165 7.41989
1.45013 6.1794
1.62863 5.08295
1.80712 4.66467
1.98562 4.77074
2.16411 4.82055
2.34263 5.28748
2.52115 6.9523
2.69965 7.61428
2.87818 8.84709
3.05672 11.0258
3.23527 14.9966
3.4138 18.5383
3.59237 24.095
3.77094 26.4017
3.9495 29.9405
4.12809 35.3415
4.30669 206.658
4.4853 64.9901
4.6639 55.593
4.84253 67.7849
5.02118 87.9381
5.19981 380.052
5.37848 198.369
5.55716 102.734
5.73586 93.109
5.91455 95.5238
6.09328 4358.37
6.27201 83.8254
6.45075 67.8973
6.62952 63.1097
6.8083 59.0538
6.98711 55.9757
7.16591 55.6478
7.34475 90.2694
7.5236 55.1984
7.70247 56.3594
7.88135 58.2125
8.06026 62.4875
8.23919 70.1857
8.41812 85.7617
8.59709 1194.25
8.77609 100.284
8.9551 91.6045
9.13412 82.2477
9.31318 83.2319
9.49226 85.2899
9.67134 98.6461
9.85047 100.506
10.0296 354.328
10.2088 395.331
10.388 105.472
10.5672 518.782
10.7465 86.8645
10.9257 78.7841
11.105 72.2917
11.2844 70.823
11.4637 65.3331
11.6431 64.0763
11.8225 62.6436
12.002 64.054
12.1814 153.107
12.3609 70.5245
12.5405 65.0812
12.72 70.3549
12.8996 71.1237
13.0792 79.6343
13.2589 241.295
13.4386 123.442
13.6183 250.19
13.7981 97.776
13.9779 76.2177
14.1577 72.7658
14.3376 72.0451
14.5175 69.5477
14.6974 70.9534
14.8774 111.939
15.0574 148.566
15.2374 71.6358
15.4175 66.9533
15.5976 66.3209
15.7778 96.5282
15.958 154.817
16.1382 63.1181
16.3185 59.1388
16.4988 55.9079
16.6792 54.9781
16.8596 55.6028
17.04 56.2209
17.2205 67.3589
17.401 71.6488
17.5815 59.8052
17.7622 61.7954
17.9428 74.5614
18.1237 141.729
18.3044 91.0438
18.4852 77.6765
18.666 60.8848
18.8469 58.5774
19.0278 57.2622
19.2088 60.0983
19.3898 76.9464
19.5709 54.5305
19.752 53.899
19.9332 56.8793
20.1144 70.535
20.2957 64.3965
20.477 53.8221
20.6586 50.0023
20.84 49.136
21.0215 48.9016
21.203 51.1389
21.3846 49.356
21.5662 49.1893
21.7479 53.0975
21.9297 65.2484
22.1115 56.5306
22.2933 50.2832
22.4753 49.2908
22.6572 49.3678
22.8393 52.2948
23.0214 57.8356
23.2037 49.15
23.3859 50.1284
23.5682 57.3545
23.7505 48.3277
23.9329 45.4821
24.1154 44.5242
24.2979 43.7609
24.4805 43.1666
24.6631 43.0649
24.8458 42.4912
25.0286 43.1659
25.2114 45.111
25.3943 45.0098
25.5773 41.2643
25.7605 40.7928
25.9436 41.0567
26.1268 42.0745
26.31 40.4422
26.4933 41.0199
26.6767 42.4704
26.8601 40.7263
27.0437 39.0972
27.2272 38.7592
27.4109 38.6738
27.5946 38.7102
27.7784 38.0927
27.9623 38.6988
28.1462 39.064
28.3304 37.5118
28.5145 36.3005
28.6987 35.7501
28.8829 35.6749
29.0673 34.9467
29.2517 34.626
29.4361 34.3823
29.6207 33.3387
29.8053 33.0965
29.99 32.8058
30.1748 32.6927
30.3597 32.4361
30.5447 32.3429
30.7297 32.5005
30.915 31.8987
31.1002 31.3334
31.2855 31.0459
31.4708 31.0962
31.6563 30.5597
31.8418 30.347
32.0275 30.2134
32.2132 29.5698
32.399 29.1469
32.5848 28.6741
32.7708 28.3767
32.9569 28.2028
33.143 27.9598
33.3293 27.6906
33.5158 27.1447
33.7022 26.8517
33.8887 26.5105
34.0753 26.1602
34.262 25.8408
34.4488 25.5523
34.6357 25.1569
34.8227 24.8969
35.0098 24.6341
35.1969 24.4296
35.3842 24.1496
35.5716 23.9199
35.759 23.5993
35.9468 23.3006
36.1345 23.0903
36.3222 22.817
36.5101 22.6039
36.6981 22.3187
36.8861 21.9218
37.0743 21.6709
37.2626 21.4352
37.451 21.1546
37.6395 20.9782
37.8281 20.6386
38.0168 20.3251
38.2056 20.0743
38.3945 19.8322
38.5837 19.6143
38.7728 19.4401
38.9621 19.1357
39.1514 18.8364
39.3409 18.6303
39.5304 18.366
39.7201 18.1787
39.9099 17.9843
40.0999 17.7307
40.2899 17.5434
40.48 17.2213
40.6703 17.0462
40.8607 16.818
41.0512 16.6154
41.242 16.3154
41.4327 16.1894
41.6236 15.8874
41.8146 15.8048
42.0057 15.5675
42.1969 15.2941
42.3882 15.1555
42.5797 14.9817
42.7713 14.7792
42.963 14.5587
43.1549 14.281
43.3468 14.1439
43.5389 13.9232
43.7312 13.7677
43.9237 13.5559
44.1162 13.3582
44.3088 13.1688
44.5016 12.9979
44.6945 12.7845
44.8875 12.6477
45.0806 12.4657
45.2739 12.3349
45.4673 12.1415
45.6609 11.9043
45.8546 11.7893
46.0484 11.5896
46.2424 11.4641
46.4365 11.2858
46.631 11.1199
46.8254 10.9628
47.0199 10.746
47.2146 10.6399
47.4095 10.4508
47.6044 10.319
47.7996 10.1555
47.9948 10.0431
48.1902 9.84587
48.3858 9.72959
48.5815 9.60886
48.7774 9.44501
48.9734 9.32883
49.1696 9.14409
49.3661 9.01053
49.5626 8.87503
49.7592 8.74092
49.956 8.61448
50.153 8.50577
50.3501 8.35352
50.5474 8.25126
50.7448 8.10237
50.9424 7.95743
51.1402 7.85947
51.3381 7.70716
51.5362 7.58956
51.7344 7.50704
51.9328 7.31806
52.1316 7.20528
52.3304 7.10774
52.5293 7.00875
52.7284 6.8644
52.9276 6.74558
53.1271 6.67584
53.3267 6.51384
53.5265 6.3993
53.7264 6.28797
53.9266 6.17714
54.1269 6.09391
54.3274 5.94913
54.528 5.84126
54.7289 5.72759
54.9301 5.49815
55.1314 5.35095
55.3328 5.18785
55.5344 5.02804
55.7361 4.85309