Folder: NiFe_MOF_catalyst_paper/XRD (part 93)

File: Ni3Fe_FD0501.xy
TT I
1.27165 7.58059
1.45013 5.84587
1.62863 5.75066
1.80712 5.06874
1.98562 5.21723
2.16411 5.07936
2.34263 5.28348
2.52115 6.24154
2.69965 7.76813
2.87818 8.50147
3.05672 10.7632
3.23527 15.168
3.4138 19.109
3.59237 24.2655
3.77094 26.6656
3.9495 30.2294
4.12809 35.1868
4.30669 204.113
4.4853 65.3491
4.6639 55.9711
4.84253 68.4498
5.02118 88.7068
5.19981 400.334
5.37848 204.965
5.55716 104.097
5.73586 93.9447
5.91455 96.2472
6.09328 4146.94
6.27201 85.0349
6.45075 68.2038
6.62952 63.7136
6.8083 59.4742
6.98711 56.4231
7.16591 55.7374
7.34475 89.2725
7.5236 55.2515
7.70247 56.9176
7.88135 58.5331
8.06026 62.8419
8.23919 70.5669
8.41812 86.2295
8.59709 1185.26
8.77609 102.255
8.9551 92.7394
9.13412 83.3391
9.31318 84.0346
9.49226 85.6551
9.67134 99.1058
9.85047 101.435
10.0296 362.688
10.2088 447.138
10.388 106.037
10.5672 497.214
10.7465 88.0513
10.9257 79.2762
11.105 72.838
11.2844 70.8995
11.4637 65.823
11.6431 64.6048
11.8225 63.2563
12.002 64.5114
12.1814 154.085
12.3609 71.4491
12.5405 65.432
12.72 70.5136
12.8996 71.8529
13.0792 80.1132
13.2589 238.999
13.4386 132.109
13.6183 245.583
13.7981 103.12
13.9779 76.9183
14.1577 73.2836
14.3376 72.4666
14.5175 69.7354
14.6974 71.1377
14.8774 112.639
15.0574 156.423
15.2374 71.9524
15.4175 67.1888
15.5976 66.532
15.7778 96.956
15.958 159.904
16.1382 63.5782
16.3185 59.4542
16.4988 56.1737
16.6792 55.2733
16.8596 56.0286
17.04 56.4407
17.2205 67.5572
17.401 72.7163
17.5815 60.1812
17.7622 62.1355
17.9428 75.0842
18.1237 136.499
18.3044 91.6067
18.4852 80.6293
18.666 61.2072
18.8469 58.7374
19.0278 57.6494
19.2088 60.4307
19.3898 76.5793
19.5709 55.1489
19.752 54.1732
19.9332 57.1313
20.1144 69.8429
20.2957 64.0278
20.477 54.6921
20.6586 50.3806
20.84 49.5319
21.0215 49.3048
21.203 51.4089
21.3846 49.6048
21.5662 49.4156
21.7479 53.3575
21.9297 64.6237
22.1115 56.6097
22.2933 50.6495
22.4753 49.5775
22.6572 49.5553
22.8393 52.7398
23.0214 57.9313
23.2037 49.3619
23.3859 50.5947
23.5682 57.2145
23.7505 49.3245
23.9329 45.8544
24.1154 44.7294
24.2979 44.0155
24.4805 43.4364
24.6631 43.3933
24.8458 42.8566
25.0286 43.5261
25.2114 45.1758
25.3943 44.9991
25.5773 41.4996
25.7605 40.9767
25.9436 41.398
26.1268 42.1285
26.31 40.8116
26.4933 41.451
26.6767 42.6201
26.8601 41.0635
27.0437 39.4138
27.2272 39.1562
27.4109 38.8891
27.5946 38.9838
27.7784 38.4523
27.9623 38.9129
28.1462 39.272
28.3304 37.7642
28.5145 36.4203
28.6987 36.1412
28.8829 36.0262
29.0673 35.0983
29.2517 34.7978
29.4361 34.5291
29.6207 33.6707
29.8053 33.3219
29.99 33.0623
30.1748 32.8838
30.3597 32.6208
30.5447 32.6105
30.7297 32.6109
30.915 32.1141
31.1002 31.5619
31.2855 31.3877
31.4708 31.2135
31.6563 30.7248
31.8418 30.5271
32.0275 30.4401
32.2132 29.8946
32.399 29.3057
32.5848 28.889
32.7708 28.4794
32.9569 28.4219
33.143 28.1155
33.3293 27.717
33.5158 27.4547
33.7022 26.9747
33.8887 26.6773
34.0753 26.3494
34.262 26.0658
34.4488 25.6273
34.6357 25.3492
34.8227 25.0517
35.0098 24.9258
35.1969 24.5511
35.3842 24.2883
35.5716 24.0968
35.759 23.8064
35.9468 23.3909
36.1345 23.2402
36.3222 23.0185
36.5101 22.7635
36.6981 22.4283
36.8861 22.083
37.0743 21.8187
37.2626 21.6425
37.451 21.2763
37.6395 21.1518
37.8281 20.7893
38.0168 20.5299
38.2056 20.2456
38.3945 19.9328
38.5837 19.725
38.7728 19.472
38.9621 19.2578
39.1514 18.9653
39.3409 18.7019
39.5304 18.5178
39.7201 18.2359
39.9099 18.116
40.0999 17.8741
40.2899 17.6488
40.48 17.3665
40.6703 17.1452
40.8607 16.9906
41.0512 16.6912
41.242 16.5272
41.4327 16.2918
41.6236 16.0527
41.8146 15.89
42.0057 15.6333
42.1969 15.4372
42.3882 15.2801
42.5797 15.0181
42.7713 14.8324
42.963 14.6157
43.1549 14.4226
43.3468 14.1991
43.5389 14.0085
43.7312 13.805
43.9237 13.6531
44.1162 13.4653
44.3088 13.2787
44.5016 13.0467
44.6945 12.8907
44.8875 12.7066
45.0806 12.5426
45.2739 12.3777
45.4673 12.1944
45.6609 11.9935
45.8546 11.8673
46.0484 11.6809
46.2424 11.5519
46.4365 11.3554
46.631 11.2066
46.8254 10.977
47.0199 10.8344
47.2146 10.6942
47.4095 10.5401
47.6044 10.3714
47.7996 10.2277
47.9948 10.0795
48.1902 9.91989
48.3858 9.78948
48.5815 9.63671
48.7774 9.53047
48.9734 9.38631
49.1696 9.25599
49.3661 9.07802
49.5626 8.93031
49.7592 8.80692
49.956 8.69189
50.153 8.55233
50.3501 8.42669
50.5474 8.29936
50.7448 8.1969
50.9424 8.0216
51.1402 7.93861
51.3381 7.74892
51.5362 7.65397
51.7344 7.55009
51.9328 7.36786
52.1316 7.26312
52.3304 7.15262
52.5293 7.02963
52.7284 6.95842
52.9276 6.80884
53.1271 6.70709
53.3267 6.58489
53.5265 6.49607
53.7264 6.38092
53.9266 6.24942
54.1269 6.12599
54.3274 6.00283
54.528 5.88486
54.7289 5.71616
54.9301 5.5302
55.1314 5.44697
55.3328 5.19053
55.5344 5.04101
55.7361 4.87582

File: Ni3Fe_FD0503.xy
TT I
1.27165 7.54971
1.45013 6.25095
1.62863 5.36298
1.80712 4.56796
1.98562 4.40605
2.16411 4.65629
2.34263 5.0995
2.52115 7.13268
2.69965 7.28342
2.87818 8.91365
3.05672 10.7344
3.23527 15.2874
3.4138 18.8628
3.59237 24.6091
3.77094 26.3979
3.9495 29.863
4.12809 35.0741
4.30669 208.406
4.4853 65.4353
4.6639 55.7996
4.84253 68.3473
5.02118 88.3761
5.19981 395.222
5.37848 205.202
5.55716 103.993
5.73586 93.732
5.91455 96.3679
6.09328 4148.7
6.27201 85.3365
6.45075 68.3802
6.62952 63.6707
6.8083 59.5481
6.98711 56.4573
7.16591 56.1945
7.34475 90.3357
7.5236 55.6385
7.70247 56.9869
7.88135 58.5721
8.06026 63.0565
8.23919 70.3924
8.41812 86.4944
8.59709 1173.21
8.77609 101.907
8.9551 92.5075
9.13412 82.8041
9.31318 83.6343
9.49226 85.8131
9.67134 99.6592
9.85047 101.211
10.0296 360.546
10.2088 445.228
10.388 106.429
10.5672 500.355
10.7465 88.0451
10.9257 79.4204
11.105 72.7189
11.2844 71.1858
11.4637 65.8927
11.6431 64.4089
11.8225 63.0318
12.002 64.4525
12.1814 153.978
12.3609 71.8935
12.5405 65.3794
12.72 70.6261
12.8996 71.8737
13.0792 80.1696
13.2589 238.8
13.4386 131.988
13.6183 245.214
13.7981 102.918
13.9779 76.8918
14.1577 73.1641
14.3376 72.6441
14.5175 69.875
14.6974 71.3704
14.8774 112.43
15.0574 155.66
15.2374 71.8548
15.4175 67.4286
15.5976 66.6657
15.7778 96.6243
15.958 160.272
16.1382 63.6261
16.3185 59.5474
16.4988 56.3281
16.6792 55.1465
16.8596 55.9822
17.04 56.5021
17.2205 67.4514
17.401 72.966
17.5815 59.904
17.7622 62.1872
17.9428 75.0688
18.1237 136.606
18.3044 91.3886
18.4852 80.4943
18.666 61.4115
18.8469 58.9038
19.0278 57.5339
19.2088 60.2745
19.3898 76.5676
19.5709 54.9711
19.752 54.1136
19.9332 57.1592
20.1144 70.2006
20.2957 64.002
20.477 54.8138
20.6586 50.2826
20.84 49.5374
21.0215 49.3869
21.203 51.3626
21.3846 49.7244
21.5662 49.435
21.7479 53.2341
21.9297 64.8247
22.1115 56.5214
22.2933 50.65
22.4753 49.7104
22.6572 49.4847
22.8393 52.7682
23.0214 57.9891
23.2037 49.5277
23.3859 50.5144
23.5682 57.0707
23.7505 49.1733
23.9329 45.9119
24.1154 44.6681
24.2979 44.0365
24.4805 43.562
24.6631 43.4683
24.8458 42.9392
25.0286 43.5095
25.2114 45.2509
25.3943 45.1844
25.5773 41.5786
25.7605 41.1042
25.9436 41.5331
26.1268 42.2779
26.31 40.6703
26.4933 41.2322
26.6767 42.7207
26.8601 41.0776
27.0437 39.4032
27.2272 39.0585
27.4109 38.8805
27.5946 39.0207
27.7784 38.4682
27.9623 38.8652
28.1462 39.3837
28.3304 37.7209
28.5145 36.4551
28.6987 36.2373
28.8829 35.905
29.0673 35.1887
29.2517 34.834
29.4361 34.5953
29.6207 33.6766
29.8053 33.3557
29.99 33.0627
30.1748 32.8704
30.3597 32.7613
30.5447 32.6689
30.7297 32.5841
30.915 32.0699
31.1002 31.5693
31.2855 31.2576
31.4708 31.2242
31.6563 30.7617
31.8418 30.5531
32.0275 30.2832
32.2132 29.7786
32.399 29.2058
32.5848 28.8578
32.7708 28.5168
32.9569 28.422
33.143 28.1801
33.3293 27.7913
33.5158 27.4711
33.7022 27.0009
33.8887 26.7147
34.0753 26.4145
34.262 25.9939
34.4488 25.6566
34.6357 25.4247
34.8227 24.9648
35.0098 24.8304
35.1969 24.5468
35.3842 24.2554
35.5716 24.0356
35.759 23.7818
35.9468 23.3572
36.1345 23.2375
36.3222 22.9986
36.5101 22.7065
36.6981 22.4368
36.8861 22.1177
37.0743 21.7523
37.2626 21.5708
37.451 21.3396
37.6395 21.1408
37.8281 20.7403
38.0168 20.4922
38.2056 20.2327
38.3945 19.9787
38.5837 19.7698
38.7728 19.4938
38.9621 19.1706
39.1514 19.0109
39.3409 18.6927
39.5304 18.5425
39.7201 18.2552
39.9099 18.1017
40.0999 17.8472
40.2899 17.5752
40.48 17.3628
40.6703 17.1678
40.8607 17.005
41.0512 16.7334
41.242 16.4265
41.4327 16.3315
41.6236 16.0431
41.8146 15.8357
42.0057 15.6052
42.1969 15.4311
42.3882 15.2741
42.5797 15.0395
42.7713 14.7847
42.963 14.6104
43.1549 14.441
43.3468 14.1566
43.5389 14.0647
43.7312 13.8449
43.9237 13.6629
44.1162 13.4391
44.3088 13.2801
44.5016 13.0595
44.6945 12.9103
44.8875 12.7592
45.0806 12.467
45.2739 12.3917
45.4673 12.1594
45.6609 11.9955
45.8546 11.8798
46.0484 11.6695
46.2424 11.5191
46.4365 11.3868
46.631 11.1377
46.8254 11.016
47.0199 10.8585
47.2146 10.6962
47.4095 10.5092
47.6044 10.3487
47.7996 10.2166
47.9948 10.0488
48.1902 9.93205
48.3858 9.81357
48.5815 9.63723
48.7774 9.51799
48.9734 9.39632
49.1696 9.20606
49.3661 9.07746
49.5626 8.91277
49.7592 8.82613
49.956 8.65751
50.153 8.55528
50.3501 8.42344
50.5474 8.27167
50.7448 8.15488
50.9424 8.03733
51.1402 7.91915
51.3381 7.77477
51.5362 7.66633
51.7344 7.49262
51.9328 7.38181
52.1316 7.25781
52.3304 7.18377
52.5293 7.08524
52.7284 6.92611
52.9276 6.76785
53.1271 6.69703
53.3267 6.57969
53.5265 6.46066
53.7264 6.35577
53.9266 6.25216
54.1269 6.11408
54.3274 6.01715
54.528 5.89018
54.7289 5.71047
54.9301 5.53618
55.1314 5.43687
55.3328 5.18367
55.5344 5.04122
55.7361 4.84415

File: Ni3Fe_FD0504.xy
TT I
1.27165 7.59768
1.45013 6.02227
1.62863 5.09875
1.80712 5.14108
1.98562 4.49243
2.16411 5.14561
2.34263 4.92239
2.52115 6.24963
2.69965 7.53371
2.87818 8.38968
3.05672 11.2069
3.23527 14.8932
3.4138 19.1854
3.59237 23.9532
3.77094 26.3578
3.9495 29.9272
4.12809 35.4564
4.30669 213.727
4.4853 66.0347
4.6639 55.7054
4.84253 68.1086
5.02118 88.4471
5.19981 392.619
5.37848 205.246
5.55716 103.702
5.73586 93.9471
5.91455 96.173
6.09328 4172.78
6.27201 85.0088
6.45075 68.2276
6.62952 63.7066
6.8083 59.0819
6.98711 56.4801
7.16591 56.0793
7.34475 91.4017
7.5236 55.2906
7.70247 56.7566
7.88135 58.7889
8.06026 62.9138
8.23919 70.0196
8.41812 86.5543
8.59709 1169.53
8.77609 102.269
8.9551 92.8446
9.13412 82.6298
9.31318 83.6093
9.49226 85.7567
9.67134 99.777
9.85047 101.373
10.0296 359.194
10.2088 448.865
10.388 106.231
10.5672 497.512
10.7465 87.9218
10.9257 79.1711
11.105 72.9266
11.2844 71.5733
11.4637 65.7294
11.6431 64.3691
11.8225 63.3571
12.002 64.2014
12.1814 153.49
12.3609 72.0804
12.5405 65.2593
12.72 70.7657
12.8996 71.754
13.0792 79.8636
13.2589 237.947
13.4386 132.254
13.6183 245.337
13.7981 103.258
13.9779 76.9524
14.1577 73.2125
14.3376 72.5154
14.5175 69.5719
14.6974 71.3377
14.8774 112.539
15.0574 156.485
15.2374 72.1693
15.4175 67.0545
15.5976 66.4871
15.7778 96.4738
15.958 160.836
16.1382 63.6617
16.3185 59.438
16.4988 56.434
16.6792 55.3069
16.8596 56.1039
17.04 56.5679
17.2205 67.359
17.401 72.9354
17.5815 60.1062
17.7622 62.1289
17.9428 74.9362
18.1237 137.226
18.3044 91.2052
18.4852 80.8473
18.666 61.2532
18.8469 58.7631
19.0278 57.6564
19.2088 60.5751
19.3898 76.836
19.5709 55.2895
19.752 54.0011
19.9332 57.1061
20.1144 70.2628
20.2957 64.0973
20.477 54.7548
20.6586 50.3994
20.84 49.3121
21.0215 49.1311
21.203 51.4604
21.3846 49.555
21.5662 49.5519
21.7479 53.4363
21.9297 64.7973
22.1115 56.5228
22.2933 50.736
22.4753 49.4324
22.6572 49.4677
22.8393 52.7128
23.0214 58.1265
23.2037 49.5401
23.3859 50.572
23.5682 57.0073
23.7505 49.3189
23.9329 45.8559
24.1154 44.7839
24.2979 44.0274
24.4805 43.5276
24.6631 43.2434
24.8458 42.6612
25.0286 43.4671
25.2114 45.326
25.3943 45.113
25.5773 41.6523
25.7605 41.0143
25.9436 41.5258
26.1268 42.2123
26.31 40.7179
26.4933 41.2012
26.6767 42.7782
26.8601 41.0661
27.0437 39.5061
27.2272 39.1578
27.4109 38.9118
27.5946 38.9464
27.7784 38.3369
27.9623 38.9564
28.1462 39.3176
28.3304 37.7342
28.5145 36.3992
28.6987 36.1633
28.8829 35.8245
29.0673 35.1925
29.2517 34.8634
29.4361 34.5441
29.6207 33.6105
29.8053 33.357
29.99 33.0131
30.1748 32.8439
30.3597 32.6819
30.5447 32.7083
30.7297 32.741
30.915 32.0976
31.1002 31.6172
31.2855 31.2887
31.4708 31.257
31.6563 30.7884
31.8418 30.3953
32.0275 30.3882
32.2132 29.7671
32.399 29.3566
32.5848 28.8507
32.7708 28.446
32.9569 28.4605
33.143 28.2141
33.3293 27.7133
33.5158 27.4086
33.7022 26.9648
33.8887 26.7113
34.0753 26.4268
34.262 26.0036
34.4488 25.7151
34.6357 25.3394
34.8227 25.0344
35.0098 24.8541
35.1969 24.5937
35.3842 24.3031
35.5716 24.0836
35.759 23.8891
35.9468 23.4822
36.1345 23.2008
36.3222 23.0285
36.5101 22.7507
36.6981 22.4579
36.8861 22.1074
37.0743 21.7533
37.2626 21.5369
37.451 21.2674
37.6395 21.1399
37.8281 20.818
38.0168 20.4046
38.2056 20.2678
38.3945 19.956
38.5837 19.6742
38.7728 19.4757
38.9621 19.1782
39.1514 18.9536
39.3409 18.7057
39.5304 18.514
39.7201 18.3235
39.9099 18.1327
40.0999 17.8606
40.2899 17.5987
40.48 17.3183
40.6703 17.1936
40.8607 16.9463
41.0512 16.7787
41.242 16.502
41.4327 16.3844
41.6236 16.0833
41.8146 15.8581
42.0057 15.6089
42.1969 15.4257
42.3882 15.2568
42.5797 15.0338
42.7713 14.8445
42.963 14.6317
43.1549 14.4216
43.3468 14.2395
43.5389 14.074
43.7312 13.8077
43.9237 13.6128
44.1162 13.4444
44.3088 13.2828
44.5016 13.0021
44.6945 12.9308
44.8875 12.7695
45.0806 12.5371
45.2739 12.3791
45.4673 12.2194
45.6609 12.02
45.8546 11.8348
46.0484 11.6798
46.2424 11.5059
46.4365 11.3678
46.631 11.1807
46.8254 11.017
47.0199 10.8738
47.2146 10.7446
47.4095 10.5512
47.6044 10.399
47.7996 10.257
47.9948 10.0692
48.1902 9.94919
48.3858 9.77078
48.5815 9.66301
48.7774 9.49467
48.9734 9.39262
49.1696 9.21426
49.3661 9.07615
49.5626 8.91882
49.7592 8.86344
49.956 8.69031
50.153 8.57558
50.3501 8.43234
50.5474 8.29427
50.7448 8.16578
50.9424 8.05052
51.1402 7.93521
51.3381 7.77627
51.5362 7.68788
51.7344 7.5137
51.9328 7.38681
52.1316 7.29046
52.3304 7.20047
52.5293 7.05675
52.7284 6.93326
52.9276 6.80798
53.1271 6.6878
53.3267 6.60737
53.5265 6.48076
53.7264 6.33581
53.9266 6.25591
54.1269 6.18517
54.3274 6.07018
54.528 5.85555
54.7289 5.72546
54.9301 5.55173
55.1314 5.47453
55.3328 5.18176
55.5344 5.0187
55.7361 4.90084

File: Ni3Fe_FD0505.xy
TT I
1.27165 7.61976
1.45013 6.77004
1.62863 5.50146
1.80712 5.02568
1.98562 5.01099
2.16411 4.8631
2.34263 5.05935
2.52115 6.726
2.69965 7.03236
2.87818 8.37964
3.05672 11.0586
3.23527 15.2994
3.4138 19.0753
3.59237 24.3462
3.77094 26.3156
3.9495 30.2124
4.12809 35.229
4.30669 214.895
4.4853 66.1645
4.6639 56.0468
4.84253 68.1459
5.02118 87.748
5.19981 393.282
5.37848 206.009
5.55716 104.004
5.73586 93.7632
5.91455 96.3556
6.09328 4196.34
6.27201 85.0246
6.45075 68.092
6.62952 63.7639
6.8083 59.4312
6.98711 56.459
7.16591 56.1933
7.34475 91.4194
7.5236 55.2698
7.70247 57.012
7.88135 58.7341
8.06026 63.2422
8.23919 70.4119
8.41812 86.8552
8.59709 1166.23
8.77609 102.114
8.9551 92.7545
9.13412 83.2209
9.31318 83.5679
9.49226 85.7164
9.67134 99.3933
9.85047 101.209
10.0296 358.628
10.2088 447.497
10.388 105.806
10.5672 493.07
10.7465 88.1236
10.9257 79.4724
11.105 72.6566
11.2844 71.4119
11.4637 65.8269
11.6431 64.6566
11.8225 63.2922
12.002 64.2829
12.1814 153.977
12.3609 72.1223
12.5405 65.6707
12.72 70.797
12.8996 71.89
13.0792 79.9388
13.2589 237.67
13.4386 131.674
13.6183 245.225
13.7981 103.358
13.9779 76.7628
14.1577 73.5505
14.3376 72.7488
14.5175 69.8548
14.6974 71.3649
14.8774 112.22
15.0574 155.041
15.2374 71.756
15.4175 67.2966
15.5976 66.6752
15.7778 96.4721
15.958 160.18
16.1382 63.4986
16.3185 59.3985
16.4988 56.443
16.6792 55.3486
16.8596 55.989
17.04 56.4831
17.2205 67.3368
17.401 72.7658
17.5815 60.1623
17.7622 62.0682
17.9428 74.8992
18.1237 137.608
18.3044 91.1567
18.4852 80.462
18.666 61.1228
18.8469 58.6657
19.0278 57.5688
19.2088 60.2057
19.3898 76.7809
19.5709 55.0454
19.752 53.8158
19.9332 57.0911
20.1144 70.2202
20.2957 64.1742
20.477 54.6634
20.6586 50.4468
20.84 49.4645
21.0215 49.3227
21.203 51.5162
21.3846 49.872
21.5662 49.4389
21.7479 53.2404
21.9297 64.9843
22.1115 56.5717
22.2933 50.7434
22.4753 49.6215
22.6572 49.5058
22.8393 52.5524
23.0214 58.1068
23.2037 49.4429
23.3859 50.4374
23.5682 56.9574
23.7505 49.3706
23.9329 45.7448
24.1154 44.6509
24.2979 44.075
24.4805 43.5849
24.6631 43.3828
24.8458 42.9509
25.0286 43.3602
25.2114 45.1782
25.3943 45.2359
25.5773 41.594
25.7605 41.1395
25.9436 41.5286
26.1268 42.2375
26.31 40.6549
26.4933 41.4172
26.6767 42.6569
26.8601 41.0195
27.0437 39.4334
27.2272 38.9891
27.4109 39.0478
27.5946 38.7816
27.7784 38.4805
27.9623 38.9806
28.1462 39.3885
28.3304 37.7902
28.5145 36.4526
28.6987 36.0474
28.8829 35.9432
29.0673 35.1888
29.2517 34.9172
29.4361 34.5457
29.6207 33.6407
29.8053 33.3572
29.99 33.0155
30.1748 32.9066
30.3597 32.7236
30.5447 32.5928
30.7297 32.5988
30.915 32.0092
31.1002 31.4816
31.2855 31.3854
31.4708 31.2062
31.6563 30.7864
31.8418 30.4983
32.0275 30.3542
32.2132 29.7162
32.399 29.3555
32.5848 28.8609
32.7708 28.537
32.9569 28.432
33.143 28.1537
33.3293 27.6938
33.5158 27.3321
33.7022 27.0111
33.8887 26.776
34.0753 26.4391
34.262 25.9947
34.4488 25.6004
34.6357 25.319
34.8227 24.9802
35.0098 24.8617
35.1969 24.5192
35.3842 24.2881
35.5716 24.0183
35.759 23.7693
35.9468 23.365
36.1345 23.1623
36.3222 22.9108
36.5101 22.7044
36.6981 22.4468
36.8861 22.0886
37.0743 21.7875
37.2626 21.6166
37.451 21.2908
37.6395 21.1691
37.8281 20.7172
38.0168 20.5306
38.2056 20.2006
38.3945 19.9578
38.5837 19.7634
38.7728 19.4907
38.9621 19.2238
39.1514 18.9351
39.3409 18.6811
39.5304 18.5567
39.7201 18.302
39.9099 18.082
40.0999 17.8173
40.2899 17.5954
40.48 17.3791
40.6703 17.1574
40.8607 16.9537
41.0512 16.7457
41.242 16.4973
41.4327 16.3514
41.6236 16.1283
41.8146 15.9247
42.0057 15.6239
42.1969 15.4266
42.3882 15.2049
42.5797 15.014
42.7713 14.8419
42.963 14.6147
43.1549 14.4361
43.3468 14.1648
43.5389 14.024
43.7312 13.7774
43.9237 13.6523
44.1162 13.4379
44.3088 13.2457
44.5016 13.0849
44.6945 12.8926
44.8875 12.7518
45.0806 12.5655
45.2739 12.3871
45.4673 12.1792
45.6609 11.9981
45.8546 11.8237
46.0484 11.7112
46.2424 11.5141
46.4365 11.3416
46.631 11.138
46.8254 10.9858
47.0199 10.8576
47.2146 10.6902
47.4095 10.5105
47.6044 10.3942
47.7996 10.216
47.9948 10.074
48.1902 9.92718
48.3858 9.7706
48.5815 9.66511
48.7774 9.49734
48.9734 9.36388
49.1696 9.23733
49.3661 9.0916
49.5626 8.92839
49.7592 8.8306
49.956 8.71688
50.153 8.60062
50.3501 8.40033
50.5474 8.25111
50.7448 8.16341
50.9424 8.07688
51.1402 7.93283
51.3381 7.74483
51.5362 7.65629
51.7344 7.52767
51.9328 7.42783
52.1316 7.24829
52.3304 7.14306
52.5293 7.02257
52.7284 6.89111
52.9276 6.83942
53.1271 6.71399
53.3267 6.57897
53.5265 6.4723
53.7264 6.38202
53.9266 6.25279
54.1269 6.15148
54.3274 6.04483
54.528 5.88623
54.7289 5.71143
54.9301 5.51548
55.1314 5.42283
55.3328 5.25458
55.5344 4.98358
55.7361 4.83843

File: Ni3Fe_FD0506.xy
TT I
1.27165 7.65447
1.45013 6.22699
1.62863 5.45882
1.80712 4.74091
1.98562 4.41966
2.16411 5.5464
2.34263 5.3066
2.52115 6.81986
2.69965 7.90157
2.87818 8.5496
3.05672 11.6184
3.23527 15.1439
3.4138 18.519
3.59237 24.2013
3.77094 26.3937
3.9495 29.9156
4.12809 35.4859
4.30669 216.184
4.4853 65.7512
4.6639 56.0115
4.84253 68.4027
5.02118 88.2724
5.19981 394.776
5.37848 204.641
5.55716 104.1
5.73586 93.3501
5.91455 97.0275
6.09328 4168.1
6.27201 85.1308
6.45075 68.4011
6.62952 63.6869
6.8083 59.5054
6.98711 56.7225
7.16591 55.9414
7.34475 91.9215
7.5236 55.4995
7.70247 56.9745
7.88135 58.5072
8.06026 62.985
8.23919 70.0838
8.41812 86.6561
8.59709 1166.57
8.77609 102.74
8.9551 93.1215
9.13412 83.1484
9.31318 83.5451
9.49226 85.6189
9.67134 100.017
9.85047 101.044
10.0296 358.514
10.2088 444.308
10.388 106.479
10.5672 494.767
10.7465 88.2037
10.9257 79.4171
11.105 72.5364
11.2844 71.373
11.4637 65.9411
11.6431 64.6792
11.8225 63.3009
12.002 64.5017
12.1814 154.551
12.3609 72.0831
12.5405 65.45
12.72 70.9224
12.8996 71.8199
13.0792 79.8438
13.2589 237.916
13.4386 131.362
13.6183 244.8
13.7981 103.061
13.9779 76.938
14.1577 73.4473
14.3376 72.8307
14.5175 69.6509
14.6974 71.5846
14.8774 112.141
15.0574 155.018
15.2374 72.2124
15.4175 67.6138
15.5976 66.4975
15.7778 96.3783
15.958 159.889
16.1382 63.8124
16.3185 59.6297
16.4988 56.2673
16.6792 55.2552
16.8596 56.0126
17.04 56.5656
17.2205 67.3944
17.401 72.588
17.5815 60.1397
17.7622 62.067
17.9428 74.7866
18.1237 137.4
18.3044 91.1822
18.4852 80.6638
18.666 61.1299
18.8469 58.9306
19.0278 57.7796
19.2088 60.4784
19.3898 76.5606
19.5709 55.2859
19.752 54.0028
19.9332 57.292
20.1144 70.0328
20.2957 64.2165
20.477 54.9438
20.6586 50.2152
20.84 49.6004
21.0215 49.2842
21.203 51.3935
21.3846 49.741
21.5662 49.4113
21.7479 53.3429
21.9297 64.7759
22.1115 56.5979
22.2933 50.8296
22.4753 49.5254
22.6572 49.5918
22.8393 52.5598
23.0214 57.9655
23.2037 49.5876
23.3859 50.4741
23.5682 56.9045
23.7505 49.2679
23.9329 45.9477
24.1154 44.7949
24.2979 44.1113
24.4805 43.4987
24.6631 43.4416
24.8458 42.8396
25.0286 43.4509
25.2114 45.2224
25.3943 45.2899
25.5773 41.5518
25.7605 41.0768
25.9436 41.4112
26.1268 42.173
26.31 40.6696
26.4933 41.2565
26.6767 42.6615
26.8601 40.8527
27.0437 39.4464
27.2272 39.1058
27.4109 38.8482
27.5946 38.9636
27.7784 38.4568
27.9623 38.8431
28.1462 39.3544
28.3304 37.6833
28.5145 36.483
28.6987 36.0831
28.8829 35.8288
29.0673 35.1368
29.2517 34.7687
29.4361 34.5837
29.6207 33.5162
29.8053 33.4053
29.99 33.0885
30.1748 32.8896
30.3597 32.7154
30.5447 32.639
30.7297 32.5961
30.915 32.085
31.1002 31.5671
31.2855 31.2618
31.4708 31.2007
31.6563 30.7357
31.8418 30.5202
32.0275 30.3138
32.2132 29.7674
32.399 29.2673
32.5848 28.8454
32.7708 28.5463
32.9569 28.4028
33.143 28.2362
33.3293 27.6918
33.5158 27.5113
33.7022 27.0486
33.8887 26.6586
34.0753 26.3298
34.262 25.9216
34.4488 25.6989
34.6357 25.3366
34.8227 25.036
35.0098 24.7213
35.1969 24.5346
35.3842 24.2293
35.5716 24.0332
35.759 23.801
35.9468 23.3601
36.1345 23.1667
36.3222 22.8676
36.5101 22.6543
36.6981 22.4392
36.8861 22.1199
37.0743 21.7614
37.2626 21.5045
37.451 21.2789
37.6395 21.0517
37.8281 20.8422
38.0168 20.4136
38.2056 20.2822
38.3945 19.973
38.5837 19.7556
38.7728 19.4903
38.9621 19.1818
39.1514 18.9632
39.3409 18.6705
39.5304 18.4647
39.7201 18.2855
39.9099 18.0462
40.0999 17.8463
40.2899 17.6049
40.48 17.3716
40.6703 17.1514
40.8607 16.9768
41.0512 16.7491
41.242 16.5065
41.4327 16.2292
41.6236 16.0246
41.8146 15.8418
42.0057 15.6222
42.1969 15.4016
42.3882 15.276
42.5797 15.0242
42.7713 14.7967
42.963 14.5935
43.1549 14.4253
43.3468 14.1743
43.5389 14.0237
43.7312 13.8491
43.9237 13.6636
44.1162 13.4407
44.3088 13.2586
44.5016 13.0588
44.6945 12.9096
44.8875 12.7159
45.0806 12.4936
45.2739 12.3613
45.4673 12.2424
45.6609 12.0177
45.8546 11.8825
46.0484 11.6603
46.2424 11.4681
46.4365 11.3751
46.631 11.1703
46.8254 10.9939
47.0199 10.8433
47.2146 10.6889
47.4095 10.5547
47.6044 10.3416
47.7996 10.2137
47.9948 10.0761
48.1902 9.923
48.3858 9.75206
48.5815 9.65894
48.7774 9.53943
48.9734 9.35808
49.1696 9.21389
49.3661 9.10135
49.5626 8.92881
49.7592 8.81211
49.956 8.6827
50.153 8.51666
50.3501 8.41241
50.5474 8.27717
50.7448 8.17107
50.9424 8.00513
51.1402 7.90029
51.3381 7.78489
51.5362 7.64289
51.7344 7.53552
51.9328 7.37587
52.1316 7.2896
52.3304 7.16738
52.5293 7.05628
52.7284 6.93967
52.9276 6.80553
53.1271 6.72543
53.3267 6.61797
53.5265 6.47342
53.7264 6.32987
53.9266 6.18698
54.1269 6.12617
54.3274 6.02352
54.528 5.91188
54.7289 5.67066
54.9301 5.54552
55.1314 5.44911
55.3328 5.20589
55.5344 5.05354
55.7361 4.85514