Folder: NiFe_MOF_catalyst_paper/XRD (part 42)

File: Ni3Fe_FD0215.xy
TT I
1.27165 7.763
1.45013 6.71508
1.62863 6.01644
1.80712 5.40265
1.98562 4.96917
2.16411 4.8391
2.34263 4.95196
2.52115 5.10902
2.69965 6.45951
2.87818 8.22896
3.05672 11.1632
3.23527 15.6737
3.4138 19.3023
3.59237 22.2126
3.77094 25.8814
3.9495 30.0858
4.12809 34.6457
4.30669 40.8387
4.4853 48.852
4.6639 58.1792
4.84253 71.939
5.02118 97.1974
5.19981 898.151
5.37848 278.102
5.55716 112.892
5.73586 101.524
5.91455 111.47
6.09328 3589.18
6.27201 89.563
6.45075 71.3239
6.62952 64.4501
6.8083 59.923
6.98711 57.6374
7.16591 56.547
7.34475 56.1006
7.5236 56.5948
7.70247 58.2819
7.88135 60.456
8.06026 65.1834
8.23919 73.4045
8.41812 90.8188
8.59709 1055.44
8.77609 111.652
8.9551 91.0959
9.13412 87.1212
9.31318 88.4054
9.49226 89.8943
9.67134 95.9616
9.85047 107.009
10.0296 525.532
10.2088 567.253
10.388 114.832
10.5672 436.726
10.7465 93.0289
10.9257 81.1341
11.105 75.1981
11.2844 71.1983
11.4637 68.0512
11.6431 66.455
11.8225 65.7351
12.002 68.7532
12.1814 139.046
12.3609 70.8003
12.5405 67.73
12.72 69.8953
12.8996 74.7636
13.0792 86.2784
13.2589 227.141
13.4386 151.917
13.6183 223.808
13.7981 113.216
13.9779 80.3354
14.1577 75.846
14.3376 73.501
14.5175 73.0941
14.6974 74.8508
14.8774 119.213
15.0574 174.628
15.2374 72.6218
15.4175 70.1043
15.5976 70.2249
15.7778 103.579
15.958 178.989
16.1382 64.1369
16.3185 60.3856
16.4988 58.1318
16.6792 57.1846
16.8596 57.5894
17.04 59.1919
17.2205 68.9226
17.401 77.927
17.5815 62.4478
17.7622 64.8545
17.9428 82.9065
18.1237 138.255
18.3044 90.1888
18.4852 84.8351
18.666 63.5961
18.8469 61.0288
19.0278 59.6413
19.2088 63.1289
19.3898 76.227
19.5709 57.2506
19.752 56.1976
19.9332 59.8419
20.1144 72.5587
20.2957 64.2961
20.477 56.9377
20.6586 52.2961
20.84 51.2118
21.0215 51.4403
21.203 52.5648
21.3846 51.7815
21.5662 51.9766
21.7479 55.5113
21.9297 66.5153
22.1115 57.7541
22.2933 52.7803
22.4753 51.0496
22.6572 52.0366
22.8393 54.1883
23.0214 60.0477
23.2037 51.4682
23.3859 52.8162
23.5682 57.4103
23.7505 51.6309
23.9329 47.454
24.1154 46.3285
24.2979 45.6558
24.4805 45.0227
24.6631 45.0081
24.8458 44.3899
25.0286 45.1874
25.2114 46.6638
25.3943 46.7811
25.5773 43.0254
25.7605 42.7218
25.9436 42.7567
26.1268 43.7158
26.31 42.2981
26.4933 42.5524
26.6767 43.984
26.8601 42.4307
27.0437 40.7358
27.2272 40.503
27.4109 40.2489
27.5946 40.4311
27.7784 39.8483
27.9623 39.9683
28.1462 40.6078
28.3304 39.0788
28.5145 37.602
28.6987 37.3643
28.8829 37.0159
29.0673 36.5008
29.2517 35.9551
29.4361 35.7395
29.6207 34.8334
29.8053 34.6257
29.99 34.1297
30.1748 34.0215
30.3597 33.8777
30.5447 33.655
30.7297 33.6318
30.915 33.1147
31.1002 32.6178
31.2855 32.3904
31.4708 32.195
31.6563 31.829
31.8418 31.5783
32.0275 31.2648
32.2132 30.8316
32.399 30.3829
32.5848 29.847
32.7708 29.5327
32.9569 29.4666
33.143 29.0904
33.3293 28.7786
33.5158 28.2709
33.7022 27.8842
33.8887 27.5018
34.0753 27.1957
34.262 26.8362
34.4488 26.4987
34.6357 26.1831
34.8227 25.8819
35.0098 25.7455
35.1969 25.3983
35.3842 25.0665
35.5716 24.8657
35.759 24.5924
35.9468 24.2102
36.1345 23.9215
36.3222 23.7331
36.5101 23.57
36.6981 23.1762
36.8861 22.8892
37.0743 22.5017
37.2626 22.2286
37.451 22.0066
37.6395 21.8533
37.8281 21.396
38.0168 21.1678
38.2056 20.9203
38.3945 20.5602
38.5837 20.3509
38.7728 20.0876
38.9621 19.8022
39.1514 19.6111
39.3409 19.3787
39.5304 19.127
39.7201 18.9656
39.9099 18.668
40.0999 18.4571
40.2899 18.23
40.48 17.8858
40.6703 17.7136
40.8607 17.4967
41.0512 17.2634
41.242 17.0011
41.4327 16.8842
41.6236 16.6275
41.8146 16.3831
42.0057 16.1469
42.1969 15.8932
42.3882 15.7489
42.5797 15.5099
42.7713 15.3083
42.963 15.1049
43.1549 14.9163
43.3468 14.688
43.5389 14.5006
43.7312 14.2507
43.9237 14.0534
44.1162 13.8661
44.3088 13.6959
44.5016 13.5018
44.6945 13.317
44.8875 13.1983
45.0806 12.9482
45.2739 12.7634
45.4673 12.5679
45.6609 12.4178
45.8546 12.2387
46.0484 12.0569
46.2424 11.8654
46.4365 11.7342
46.631 11.5596
46.8254 11.3884
47.0199 11.1921
47.2146 11.031
47.4095 10.8508
47.6044 10.705
47.7996 10.5573
47.9948 10.3852
48.1902 10.2713
48.3858 10.1118
48.5815 9.97389
48.7774 9.75467
48.9734 9.65063
49.1696 9.52934
49.3661 9.36797
49.5626 9.22976
49.7592 9.09732
49.956 8.96705
50.153 8.8135
50.3501 8.6839
50.5474 8.55752
50.7448 8.44444
50.9424 8.30652
51.1402 8.13121
51.3381 8.00143
51.5362 7.87601
51.7344 7.78486
51.9328 7.59809
52.1316 7.50122
52.3304 7.3996
52.5293 7.27406
52.7284 7.14915
52.9276 7.00932
53.1271 6.94006
53.3267 6.77756
53.5265 6.68293
53.7264 6.53849
53.9266 6.4261
54.1269 6.29261
54.3274 6.21619
54.528 6.04813
54.7289 5.86472
54.9301 5.6732
55.1314 5.57817
55.3328 5.29121
55.5344 5.13865
55.7361 5.0558

File: Ni3Fe_FD0216.xy
TT I
1.27165 8.38821
1.45013 6.7142
1.62863 6.35266
1.80712 5.10313
1.98562 4.71289
2.16411 5.12203
2.34263 4.18662
2.52115 4.99252
2.69965 6.82299
2.87818 8.29613
3.05672 11.2671
3.23527 14.6091
3.4138 19.0499
3.59237 22.4355
3.77094 26.132
3.9495 30.2217
4.12809 35.0706
4.30669 41.3767
4.4853 47.9595
4.6639 58.3429
4.84253 71.6754
5.02118 96.889
5.19981 893.935
5.37848 279.717
5.55716 112.858
5.73586 101.011
5.91455 111.095
6.09328 3576.96
6.27201 89.6452
6.45075 71.2924
6.62952 64.3241
6.8083 59.8334
6.98711 57.5306
7.16591 56.6664
7.34475 55.8272
7.5236 56.5189
7.70247 58.462
7.88135 60.1101
8.06026 65.3674
8.23919 73.7107
8.41812 90.8019
8.59709 1052.9
8.77609 111.827
8.9551 91.0018
9.13412 87.3763
9.31318 88.513
9.49226 89.7917
9.67134 95.7588
9.85047 106.655
10.0296 525.088
10.2088 575.306
10.388 115.143
10.5672 434.881
10.7465 92.4766
10.9257 80.7323
11.105 75.1444
11.2844 71.0241
11.4637 68.0246
11.6431 66.5629
11.8225 65.2714
12.002 68.6133
12.1814 139.581
12.3609 70.7095
12.5405 67.6909
12.72 69.8558
12.8996 74.9459
13.0792 86.4727
13.2589 227.149
13.4386 152.351
13.6183 223.649
13.7981 113.913
13.9779 80.3817
14.1577 75.4032
14.3376 73.4796
14.5175 72.681
14.6974 74.7782
14.8774 119.339
15.0574 175.249
15.2374 72.8539
15.4175 69.9881
15.5976 70.2012
15.7778 103.755
15.958 179.046
16.1382 64.1128
16.3185 60.3518
16.4988 58.3204
16.6792 57.394
16.8596 57.3689
17.04 59.189
17.2205 68.8442
17.401 78.1133
17.5815 62.213
17.7622 64.888
17.9428 82.9892
18.1237 138.035
18.3044 90.257
18.4852 84.8464
18.666 63.555
18.8469 61.2019
19.0278 59.7779
19.2088 63.2089
19.3898 76.1175
19.5709 57.0166
19.752 56.1862
19.9332 59.6524
20.1144 72.5895
20.2957 64.2571
20.477 57.0112
20.6586 52.1915
20.84 51.2254
21.0215 51.4512
21.203 52.7
21.3846 51.8552
21.5662 51.8225
21.7479 55.5914
21.9297 66.7598
22.1115 57.716
22.2933 52.7466
22.4753 50.9698
22.6572 52.041
22.8393 54.261
23.0214 60.0563
23.2037 51.6069
23.3859 52.6884
23.5682 57.3827
23.7505 51.5227
23.9329 47.4916
24.1154 46.2139
24.2979 45.4591
24.4805 44.9418
24.6631 44.9173
24.8458 44.4408
25.0286 45.1396
25.2114 46.7063
25.3943 46.6343
25.5773 42.8781
25.7605 42.5485
25.9436 42.8427
26.1268 43.6687
26.31 42.1733
26.4933 42.63
26.6767 44.0523
26.8601 42.3438
27.0437 40.8637
27.2272 40.4398
27.4109 40.2802
27.5946 40.3292
27.7784 39.8184
27.9623 40.0736
28.1462 40.8103
28.3304 39.0836
28.5145 37.6094
28.6987 37.3892
28.8829 37.0081
29.0673 36.4711
29.2517 35.9716
29.4361 35.7406
29.6207 34.8479
29.8053 34.5264
29.99 34.2028
30.1748 34.053
30.3597 33.8892
30.5447 33.7967
30.7297 33.6876
30.915 33.1545
31.1002 32.6764
31.2855 32.2826
31.4708 32.3185
31.6563 31.8486
31.8418 31.5667
32.0275 31.3624
32.2132 30.8332
32.399 30.3306
32.5848 29.9665
32.7708 29.4913
32.9569 29.3703
33.143 29.072
33.3293 28.728
33.5158 28.3323
33.7022 27.8556
33.8887 27.575
34.0753 27.1455
34.262 26.8777
34.4488 26.5187
34.6357 26.1673
34.8227 25.8874
35.0098 25.7361
35.1969 25.3381
35.3842 25.1467
35.5716 24.9033
35.759 24.5769
35.9468 24.2798
36.1345 24.0553
36.3222 23.8232
36.5101 23.4509
36.6981 23.1299
36.8861 22.8529
37.0743 22.5199
37.2626 22.2823
37.451 22.0026
37.6395 21.8168
37.8281 21.4919
38.0168 21.154
38.2056 20.8436
38.3945 20.5976
38.5837 20.4192
38.7728 20.1292
38.9621 19.8299
39.1514 19.5451
39.3409 19.3497
39.5304 19.088
39.7201 18.9832
39.9099 18.6388
40.0999 18.3569
40.2899 18.1615
40.48 17.9246
40.6703 17.7093
40.8607 17.5334
41.0512 17.2756
41.242 17.0027
41.4327 16.802
41.6236 16.5641
41.8146 16.3891
42.0057 16.1716
42.1969 15.9682
42.3882 15.7672
42.5797 15.5145
42.7713 15.3228
42.963 15.0741
43.1549 14.8712
43.3468 14.6425
43.5389 14.4888
43.7312 14.2746
43.9237 14.1125
44.1162 13.8321
44.3088 13.7171
44.5016 13.4842
44.6945 13.3412
44.8875 13.1036
45.0806 12.9262
45.2739 12.7198
45.4673 12.5843
45.6609 12.4011
45.8546 12.2358
46.0484 12.1167
46.2424 11.8946
46.4365 11.679
46.631 11.5438
46.8254 11.3441
47.0199 11.1814
47.2146 11.0318
47.4095 10.848
47.6044 10.6481
47.7996 10.5266
47.9948 10.3917
48.1902 10.2474
48.3858 10.1452
48.5815 9.93522
48.7774 9.82607
48.9734 9.64118
49.1696 9.52444
49.3661 9.34705
49.5626 9.20395
49.7592 9.08703
49.956 8.95409
50.153 8.82899
50.3501 8.65916
50.5474 8.53702
50.7448 8.4028
50.9424 8.29655
51.1402 8.19284
51.3381 8.01862
51.5362 7.90953
51.7344 7.76972
51.9328 7.60603
52.1316 7.47396
52.3304 7.43122
52.5293 7.25834
52.7284 7.1577
52.9276 7.00392
53.1271 6.93582
53.3267 6.78935
53.5265 6.64227
53.7264 6.5699
53.9266 6.42712
54.1269 6.34691
54.3274 6.2144
54.528 6.00401
54.7289 5.83409
54.9301 5.69735
55.1314 5.5527
55.3328 5.34225
55.5344 5.13206
55.7361 5.01575

File: Ni3Fe_FD0217.xy
TT I
1.27165 7.77492
1.45013 6.48014
1.62863 5.81716
1.80712 5.63639
1.98562 5.33706
2.16411 4.46606
2.34263 4.39189
2.52115 4.96311
2.69965 6.28127
2.87818 7.84639
3.05672 10.8117
3.23527 15.2812
3.4138 19.0995
3.59237 22.2215
3.77094 25.9299
3.9495 30.3206
4.12809 35.0711
4.30669 40.9362
4.4853 48.8148
4.6639 58.6852
4.84253 72.0054
5.02118 97.3484
5.19981 900.117
5.37848 278.144
5.55716 112.993
5.73586 101.779
5.91455 111.293
6.09328 3591.37
6.27201 89.9204
6.45075 71.2046
6.62952 64.5482
6.8083 60.0865
6.98711 57.706
7.16591 56.6633
7.34475 56.1006
7.5236 56.768
7.70247 58.3788
7.88135 60.7385
8.06026 65.6638
8.23919 73.1416
8.41812 91.0132
8.59709 1059.55
8.77609 111.694
8.9551 91.0328
9.13412 87.3149
9.31318 88.3162
9.49226 89.953
9.67134 95.9918
9.85047 107.26
10.0296 524.961
10.2088 564.47
10.388 115.148
10.5672 436.894
10.7465 92.7965
10.9257 81.0612
11.105 75.2598
11.2844 71.1987
11.4637 67.9668
11.6431 66.7975
11.8225 65.7302
12.002 68.8303
12.1814 139.567
12.3609 70.648
12.5405 67.5216
12.72 70.0409
12.8996 75.3392
13.0792 86.5879
13.2589 227.462
13.4386 151.653
13.6183 223.889
13.7981 113.438
13.9779 80.2833
14.1577 75.5894
14.3376 73.2731
14.5175 72.8268
14.6974 74.9034
14.8774 119.584
15.0574 173.262
15.2374 72.8273
15.4175 70.2132
15.5976 69.8389
15.7778 103.695
15.958 178.141
16.1382 64.1559
16.3185 60.4463
16.4988 58.4055
16.6792 57.0535
16.8596 57.4305
17.04 59.3672
17.2205 68.8801
17.401 77.6858
17.5815 62.3968
17.7622 64.8046
17.9428 83.0559
18.1237 138.092
18.3044 90.1461
18.4852 84.5409
18.666 63.5872
18.8469 61.0683
19.0278 59.9475
19.2088 63.1443
19.3898 76.3779
19.5709 57.3784
19.752 56.0875
19.9332 59.8881
20.1144 72.5074
20.2957 64.5312
20.477 56.7841
20.6586 52.1657
20.84 51.4321
21.0215 51.235
21.203 52.6737
21.3846 51.7805
21.5662 51.805
21.7479 55.6262
21.9297 66.5861
22.1115 57.7774
22.2933 52.7701
22.4753 51.1467
22.6572 51.9679
22.8393 54.4472
23.0214 60.1193
23.2037 51.4356
23.3859 52.8081
23.5682 57.5495
23.7505 51.4095
23.9329 47.4971
24.1154 46.1145
24.2979 45.6704
24.4805 45.197
24.6631 44.8658
24.8458 44.6042
25.0286 45.2185
25.2114 46.6743
25.3943 46.8053
25.5773 43.1646
25.7605 42.5775
25.9436 42.7166
26.1268 43.553
26.31 42.2218
26.4933 42.6322
26.6767 43.978
26.8601 42.4489
27.0437 41.0158
27.2272 40.4293
27.4109 40.3069
27.5946 40.3361
27.7784 39.902
27.9623 40.0393
28.1462 40.5487
28.3304 39.1687
28.5145 37.6972
28.6987 37.2409
28.8829 36.9212
29.0673 36.3403
29.2517 36.0102
29.4361 35.7229
29.6207 34.8307
29.8053 34.5719
29.99 34.1177
30.1748 33.955
30.3597 33.8094
30.5447 33.6819
30.7297 33.7701
30.915 33.181
31.1002 32.682
31.2855 32.4612
31.4708 32.2787
31.6563 31.9032
31.8418 31.4699
32.0275 31.3401
32.2132 30.8534
32.399 30.3727
32.5848 29.932
32.7708 29.4964
32.9569 29.4385
33.143 29.0895
33.3293 28.624
33.5158 28.3322
33.7022 27.8876
33.8887 27.5285
34.0753 27.2888
34.262 26.8505
34.4488 26.503
34.6357 26.1715
34.8227 25.836
35.0098 25.7276
35.1969 25.3673
35.3842 25.0827
35.5716 24.9221
35.759 24.5697
35.9468 24.2284
36.1345 23.999
36.3222 23.8139
36.5101 23.5152
36.6981 23.132
36.8861 22.8448
37.0743 22.5446
37.2626 22.3069
37.451 22.0369
37.6395 21.8118
37.8281 21.4804
38.0168 21.1611
38.2056 20.9085
38.3945 20.6147
38.5837 20.4146
38.7728 20.144
38.9621 19.8932
39.1514 19.5997
39.3409 19.3474
39.5304 19.0504
39.7201 18.9387
39.9099 18.6292
40.0999 18.4677
40.2899 18.1538
40.48 17.8983
40.6703 17.7111
40.8607 17.5368
41.0512 17.2638
41.242 17.0524
41.4327 16.7978
41.6236 16.5772
41.8146 16.3818
42.0057 16.2082
42.1969 15.9206
42.3882 15.7819
42.5797 15.4769
42.7713 15.3429
42.963 15.0832
43.1549 14.9671
43.3468 14.6752
43.5389 14.4703
43.7312 14.2455
43.9237 14.1178
44.1162 13.9087
44.3088 13.735
44.5016 13.5049
44.6945 13.3336
44.8875 13.1101
45.0806 12.9409
45.2739 12.7893
45.4673 12.5768
45.6609 12.3931
45.8546 12.2418
46.0484 12.0591
46.2424 11.9097
46.4365 11.7439
46.631 11.5397
46.8254 11.3339
47.0199 11.2128
47.2146 11.0714
47.4095 10.8575
47.6044 10.6655
47.7996 10.5291
47.9948 10.4121
48.1902 10.254
48.3858 10.0867
48.5815 9.9184
48.7774 9.80088
48.9734 9.6509
49.1696 9.52937
49.3661 9.3716
49.5626 9.22172
49.7592 9.09116
49.956 8.94816
50.153 8.80737
50.3501 8.68177
50.5474 8.5371
50.7448 8.43361
50.9424 8.2847
51.1402 8.20911
51.3381 8.04071
51.5362 7.89206
51.7344 7.73892
51.9328 7.62858
52.1316 7.488
52.3304 7.35506
52.5293 7.2666
52.7284 7.16899
52.9276 7.0253
53.1271 6.94558
53.3267 6.77759
53.5265 6.68785
53.7264 6.60601
53.9266 6.44198
54.1269 6.30885
54.3274 6.22337
54.528 5.99689
54.7289 5.86588
54.9301 5.66923
55.1314 5.55042
55.3328 5.3131
55.5344 5.14355
55.7361 4.97981

File: Ni3Fe_FD0218.xy
TT I
1.27165 7.53797
1.45013 6.62149
1.62863 5.88546
1.80712 5.46428
1.98562 5.28244
2.16411 4.60597
2.34263 4.44806
2.52115 4.51399
2.69965 6.07645
2.87818 7.46554
3.05672 11.0516
3.23527 15.1812
3.4138 18.8978
3.59237 22.5234
3.77094 26.0495
3.9495 29.9714
4.12809 34.5713
4.30669 40.335
4.4853 48.5769
4.6639 58.375
4.84253 71.5403
5.02118 97.0518
5.19981 892.449
5.37848 282.812
5.55716 112.477
5.73586 101.309
5.91455 111.21
6.09328 3581.73
6.27201 89.8923
6.45075 71.0646
6.62952 64.0517
6.8083 59.8401
6.98711 57.5186
7.16591 56.6161
7.34475 55.921
7.5236 56.3968
7.70247 58.255
7.88135 60.3995
8.06026 65.2947
8.23919 73.3467
8.41812 91.094
8.59709 1053.65
8.77609 111.674
8.9551 91.0027
9.13412 86.8176
9.31318 88.0544
9.49226 89.6614
9.67134 95.6082
9.85047 106.992
10.0296 522.849
10.2088 576.528
10.388 114.623
10.5672 432.241
10.7465 92.7588
10.9257 80.7527
11.105 74.9409
11.2844 70.8058
11.4637 67.808
11.6431 66.7812
11.8225 65.4888
12.002 68.5736
12.1814 139.662
12.3609 70.2003
12.5405 67.4806
12.72 69.9982
12.8996 74.7629
13.0792 86.38
13.2589 226.776
13.4386 151.071
13.6183 223.468
13.7981 112.521
13.9779 80.1938
14.1577 75.5942
14.3376 73.2756
14.5175 72.6985
14.6974 74.492
14.8774 119.283
15.0574 174.46
15.2374 72.493
15.4175 70.044
15.5976 69.9863
15.7778 103.511
15.958 178.971
16.1382 64.0118
16.3185 60.2815
16.4988 58.0774
16.6792 57.1432
16.8596 57.5977
17.04 59.4901
17.2205 68.7885
17.401 77.8824
17.5815 62.2586
17.7622 64.651
17.9428 82.9835
18.1237 138.635
18.3044 90.161
18.4852 84.8382
18.666 63.3053
18.8469 61.0108
19.0278 59.6662
19.2088 63.2439
19.3898 76.2744
19.5709 57.0433
19.752 56.257
19.9332 59.5397
20.1144 72.4878
20.2957 64.3327
20.477 57.1645
20.6586 52.2936
20.84 51.4424
21.0215 51.3918
21.203 52.6937
21.3846 51.6075
21.5662 51.9359
21.7479 55.591
21.9297 66.6952
22.1115 57.6905
22.2933 52.7029
22.4753 51.0619
22.6572 52.0901
22.8393 54.1274
23.0214 60.1104
23.2037 51.6013
23.3859 52.6778
23.5682 57.5425
23.7505 51.5459
23.9329 47.5754
24.1154 46.3536
24.2979 45.4987
24.4805 45.0242
24.6631 44.9381
24.8458 44.3797
25.0286 45.2253
25.2114 46.5741
25.3943 46.6419
25.5773 43.1125
25.7605 42.5436
25.9436 42.7557
26.1268 43.5244
26.31 42.3523
26.4933 42.7577
26.6767 43.8867
26.8601 42.5008
27.0437 40.9267
27.2272 40.3512
27.4109 40.3057
27.5946 40.4177
27.7784 39.7713
27.9623 40.003
28.1462 40.6364
28.3304 39.0717
28.5145 37.6412
28.6987 37.2229
28.8829 37.038
29.0673 36.3958
29.2517 36.0006
29.4361 35.7052
29.6207 34.6951
29.8053 34.5016
29.99 34.2809
30.1748 34.0242
30.3597 33.7917
30.5447 33.6884
30.7297 33.6989
30.915 33.2332
31.1002 32.6974
31.2855 32.4923
31.4708 32.3899
31.6563 31.9038
31.8418 31.5526
32.0275 31.3621
32.2132 30.8052
32.399 30.2816
32.5848 29.7194
32.7708 29.4896
32.9569 29.3365
33.143 29.1947
33.3293 28.7091
33.5158 28.2828
33.7022 27.9759
33.8887 27.6194
34.0753 27.2332
34.262 26.873
34.4488 26.5284
34.6357 26.16
34.8227 25.8006
35.0098 25.6654
35.1969 25.3223
35.3842 25.1452
35.5716 24.8932
35.759 24.5956
35.9468 24.1659
36.1345 23.8956
36.3222 23.7624
36.5101 23.5063
36.6981 23.1315
36.8861 22.8248
37.0743 22.5012
37.2626 22.3245
37.451 21.9922
37.6395 21.755
37.8281 21.5176
38.0168 21.2168
38.2056 20.8518
38.3945 20.6177
38.5837 20.2564
38.7728 20.1214
38.9621 19.8626
39.1514 19.5414
39.3409 19.3559
39.5304 19.0835
39.7201 18.8762
39.9099 18.6844
40.0999 18.3821
40.2899 18.1808
40.48 17.8909
40.6703 17.7814
40.8607 17.5337
41.0512 17.2688
41.242 17.066
41.4327 16.7804
41.6236 16.5602
41.8146 16.4061
42.0057 16.1466
42.1969 15.9345
42.3882 15.7412
42.5797 15.5159
42.7713 15.2972
42.963 15.076
43.1549 14.893
43.3468 14.6324
43.5389 14.4568
43.7312 14.2492
43.9237 14.0867
44.1162 13.8813
44.3088 13.7109
44.5016 13.5065
44.6945 13.322
44.8875 13.1355
45.0806 12.9086
45.2739 12.786
45.4673 12.6054
45.6609 12.4129
45.8546 12.2468
46.0484 12.0356
46.2424 11.8811
46.4365 11.7267
46.631 11.517
46.8254 11.3713
47.0199 11.178
47.2146 11.0536
47.4095 10.846
47.6044 10.6982
47.7996 10.5323
47.9948 10.4147
48.1902 10.2139
48.3858 10.0674
48.5815 9.96588
48.7774 9.81395
48.9734 9.66046
49.1696 9.54403
49.3661 9.38719
49.5626 9.19866
49.7592 9.09632
49.956 8.99044
50.153 8.79469
50.3501 8.68836
50.5474 8.54798
50.7448 8.40932
50.9424 8.27975
51.1402 8.13565
51.3381 8.00778
51.5362 7.8855
51.7344 7.76488
51.9328 7.64125
52.1316 7.5106
52.3304 7.39263
52.5293 7.24554
52.7284 7.14539
52.9276 7.01117
53.1271 6.93533
53.3267 6.77997
53.5265 6.6219
53.7264 6.52319
53.9266 6.4228
54.1269 6.31089
54.3274 6.1562
54.528 6.01674
54.7289 5.82338
54.9301 5.65862
55.1314 5.54197
55.3328 5.27155
55.5344 5.12547
55.7361 4.96663

File: Ni3Fe_FD0219.xy
TT I
1.27165 8.11922
1.45013 6.1566
1.62863 5.1909
1.80712 5.54605
1.98562 4.99196
2.16411 4.81739
2.34263 4.88695
2.52115 4.63509
2.69965 6.09279
2.87818 7.74486
3.05672 11.0796
3.23527 15.303
3.4138 19.2273
3.59237 22.2357
3.77094 26.3949
3.9495 30.0924
4.12809 34.8006
4.30669 40.5106
4.4853 48.567
4.6639 58.4421
4.84253 71.6693
5.02118 96.3294
5.19981 888.915
5.37848 278.078
5.55716 112.717
5.73586 100.765
5.91455 110.711
6.09328 3586.84
6.27201 89.6821
6.45075 71.1249
6.62952 64.0429
6.8083 59.6393
6.98711 57.6419
7.16591 56.7163
7.34475 55.9349
7.5236 56.1525
7.70247 57.9718
7.88135 60.2127
8.06026 65.4164
8.23919 73.1054
8.41812 90.7032
8.59709 1055.79
8.77609 111.875
8.9551 90.9699
9.13412 86.8107
9.31318 87.6731
9.49226 89.6149
9.67134 95.7391
9.85047 106.857
10.0296 521.904
10.2088 565.464
10.388 114.957
10.5672 433.619
10.7465 92.4744
10.9257 81.1093
11.105 75.0757
11.2844 70.8286
11.4637 67.9554
11.6431 66.5451
11.8225 65.3605
12.002 68.7296
12.1814 139.995
12.3609 70.4051
12.5405 67.4768
12.72 69.6419
12.8996 74.9609
13.0792 86.2514
13.2589 227.339
13.4386 150.316
13.6183 224.329
13.7981 112.569
13.9779 80.2524
14.1577 75.5276
14.3376 73.3167
14.5175 72.6022
14.6974 74.5022
14.8774 119.081
15.0574 173.84
15.2374 72.5744
15.4175 70.0127
15.5976 70.0177
15.7778 103.593
15.958 178.657
16.1382 64.0296
16.3185 60.501
16.4988 58.0881
16.6792 57.042
16.8596 57.4746
17.04 59.3927
17.2205 68.8912
17.401 78.0242
17.5815 62.1332
17.7622 64.6949
17.9428 82.8474
18.1237 139.025
18.3044 90.0144
18.4852 84.4241
18.666 63.5452
18.8469 60.9863
19.0278 59.6969
19.2088 63.0323
19.3898 76.2746
19.5709 57.2151
19.752 56.2841
19.9332 59.8084
20.1144 72.4888
20.2957 64.353
20.477 57.0754
20.6586 52.024
20.84 51.3444
21.0215 51.3702
21.203 52.6522
21.3846 51.6189
21.5662 51.9649
21.7479 55.5756
21.9297 66.6472
22.1115 57.912
22.2933 52.6924
22.4753 51.016
22.6572 51.9885
22.8393 54.2465
23.0214 60.1515
23.2037 51.4912
23.3859 52.8348
23.5682 57.6806
23.7505 51.474
23.9329 47.5641
24.1154 46.2222
24.2979 45.5283
24.4805 45.0418
24.6631 44.9889
24.8458 44.3371
25.0286 45.0831
25.2114 46.6237
25.3943 46.8957
25.5773 42.9573
25.7605 42.5464
25.9436 42.7263
26.1268 43.7258
26.31 42.2408
26.4933 42.659
26.6767 44.165
26.8601 42.527
27.0437 40.8239
27.2272 40.472
27.4109 40.1715
27.5946 40.2028
27.7784 39.763
27.9623 40.0348
28.1462 40.7406
28.3304 39.1224
28.5145 37.7068
28.6987 37.2503
28.8829 37.0546
29.0673 36.3545
29.2517 36.0007
29.4361 35.7695
29.6207 34.8049
29.8053 34.4457
29.99 34.2251
30.1748 33.9595
30.3597 33.8496
30.5447 33.7856
30.7297 33.6411
30.915 33.1459
31.1002 32.5988
31.2855 32.2751
31.4708 32.2689
31.6563 31.9095
31.8418 31.5842
32.0275 31.3037
32.2132 30.8791
32.399 30.4112
32.5848 29.9134
32.7708 29.4924
32.9569 29.3763
33.143 29.1435
33.3293 28.7002
33.5158 28.3558
33.7022 27.8442
33.8887 27.5772
34.0753 27.2625
34.262 26.8422
34.4488 26.5148
34.6357 26.1113
34.8227 25.8115
35.0098 25.7297
35.1969 25.3218
35.3842 25.0946
35.5716 24.9831
35.759 24.589
35.9468 24.2642
36.1345 24.0076
36.3222 23.7213
36.5101 23.4621
36.6981 23.1936
36.8861 22.8701
37.0743 22.5485
37.2626 22.2308
37.451 21.9276
37.6395 21.827
37.8281 21.483
38.0168 21.1162
38.2056 20.8795
38.3945 20.6457
38.5837 20.3809
38.7728 20.0765
38.9621 19.8215
39.1514 19.5872
39.3409 19.301
39.5304 19.1277
39.7201 18.8975
39.9099 18.6946
40.0999 18.4275
40.2899 18.2046
40.48 17.956
40.6703 17.6778
40.8607 17.493
41.0512 17.2646
41.242 16.9903
41.4327 16.8648
41.6236 16.6002
41.8146 16.3505
42.0057 16.09
42.1969 15.9386
42.3882 15.733
42.5797 15.5489
42.7713 15.2889
42.963 15.0862
43.1549 14.8874
43.3468 14.6082
43.5389 14.4623
43.7312 14.2923
43.9237 14.0377
44.1162 13.9032
44.3088 13.6994
44.5016 13.4963
44.6945 13.3187
44.8875 13.1214
45.0806 12.9431
45.2739 12.7695
45.4673 12.5812
45.6609 12.3862
45.8546 12.2473
46.0484 12.0239
46.2424 11.8468
46.4365 11.7125
46.631 11.5479
46.8254 11.3684
47.0199 11.1689
47.2146 11.0652
47.4095 10.8751
47.6044 10.6395
47.7996 10.5438
47.9948 10.3808
48.1902 10.2242
48.3858 10.0841
48.5815 9.97716
48.7774 9.82504
48.9734 9.64636
49.1696 9.50996
49.3661 9.35761
49.5626 9.2174
49.7592 9.07308
49.956 8.94424
50.153 8.80735
50.3501 8.66721
50.5474 8.58115
50.7448 8.42724
50.9424 8.26816
51.1402 8.1575
51.3381 8.01829
51.5362 7.88548
51.7344 7.73185
51.9328 7.63925
52.1316 7.44944
52.3304 7.38748
52.5293 7.29711
52.7284 7.16359
52.9276 7.021
53.1271 6.89028
53.3267 6.77812
53.5265 6.673
53.7264 6.5148
53.9266 6.41048
54.1269 6.34853
54.3274 6.20257
54.528 6.01689
54.7289 5.87907
54.9301 5.71468
55.1314 5.53736
55.3328 5.3153
55.5344 5.10932
55.7361 4.9946