Folder: NiFe_MOF_catalyst_paper/XRD (part 53)

File: Ni3Fe_FD0273.xy
TT I
1.27165 7.87108
1.45013 6.13552
1.62863 5.59027
1.80712 5.36319
1.98562 5.10037
2.16411 5.03981
2.34263 5.20994
2.52115 6.12257
2.69965 6.44477
2.87818 7.79417
3.05672 11.6911
3.23527 15.0107
3.4138 19.4454
3.59237 24.538
3.77094 27.0935
3.9495 30.4964
4.12809 35.8991
4.30669 207.322
4.4853 65.6799
4.6639 57.0734
4.84253 70.1884
5.02118 92.8734
5.19981 527.361
5.37848 267.011
5.55716 109.287
5.73586 98.2375
5.91455 103.533
6.09328 3738.67
6.27201 89.5109
6.45075 71.0408
6.62952 65.5696
6.8083 60.8603
6.98711 58.2603
7.16591 58.0727
7.34475 92.2148
7.5236 56.811
7.70247 58.1552
7.88135 59.8885
8.06026 64.7907
8.23919 72.4405
8.41812 89.7042
8.59709 1067.85
8.77609 109.408
8.9551 95.6343
9.13412 85.6396
9.31318 86.475
9.49226 88.3848
9.67134 102.138
9.85047 104.982
10.0296 423.475
10.2088 591.932
10.388 111.112
10.5672 455.678
10.7465 91.4702
10.9257 81.7634
11.105 74.9332
11.2844 73.2319
11.4637 67.5562
11.6431 66.4769
11.8225 65.3204
12.002 66.4465
12.1814 141.529
12.3609 75.1375
12.5405 67.4894
12.72 72.576
12.8996 74.1128
13.0792 82.7001
13.2589 224.509
13.4386 153.314
13.6183 225.784
13.7981 114.909
13.9779 79.1584
14.1577 75.8018
14.3376 74.2066
14.5175 71.6447
14.6974 73.7352
14.8774 114.491
15.0574 174.696
15.2374 73.8605
15.4175 69.2781
15.5976 68.6559
15.7778 99.5513
15.958 174.599
16.1382 65.5437
16.3185 61.0115
16.4988 57.9269
16.6792 56.7809
16.8596 57.3508
17.04 58.0557
17.2205 68.292
17.401 77.557
17.5815 61.8177
17.7622 63.9723
17.9428 79.3938
18.1237 136.916
18.3044 90.5445
18.4852 85.9154
18.666 63.2106
18.8469 60.5765
19.0278 59.3924
19.2088 62.6389
19.3898 77.4071
19.5709 57.0653
19.752 55.6889
19.9332 58.8522
20.1144 71.8617
20.2957 64.7361
20.477 57.353
20.6586 51.8457
20.84 50.8697
21.0215 50.8288
21.203 52.3944
21.3846 51.2927
21.5662 50.9076
21.7479 54.831
21.9297 66.4172
22.1115 57.8912
22.2933 52.4604
22.4753 50.9481
22.6572 51.0432
22.8393 53.6652
23.0214 59.8808
23.2037 51.1367
23.3859 52.1201
23.5682 57.7706
23.7505 51.3964
23.9329 47.2229
24.1154 46.0414
24.2979 45.3049
24.4805 44.665
24.6631 44.5785
24.8458 44.235
25.0286 44.5647
25.2114 46.3107
25.3943 46.495
25.5773 42.7581
25.7605 42.1329
25.9436 42.6279
26.1268 43.3941
26.31 41.9419
26.4933 42.3687
26.6767 43.76
26.8601 42.2746
27.0437 40.6547
27.2272 40.2017
27.4109 39.9554
27.5946 40.0177
27.7784 39.5539
27.9623 39.8694
28.1462 40.4857
28.3304 38.7876
28.5145 37.5628
28.6987 37.0898
28.8829 36.8978
29.0673 36.2232
29.2517 35.7678
29.4361 35.544
29.6207 34.5237
29.8053 34.2073
29.99 33.9228
30.1748 33.676
30.3597 33.6326
30.5447 33.5334
30.7297 33.4664
30.915 33.0715
31.1002 32.4389
31.2855 32.1982
31.4708 32.1418
31.6563 31.7579
31.8418 31.3378
32.0275 31.1595
32.2132 30.706
32.399 30.1793
32.5848 29.652
32.7708 29.4338
32.9569 29.3047
33.143 29.0177
33.3293 28.484
33.5158 28.1958
33.7022 27.7133
33.8887 27.3929
34.0753 27.106
34.262 26.6684
34.4488 26.3608
34.6357 26.0669
34.8227 25.6868
35.0098 25.4566
35.1969 25.1962
35.3842 24.9516
35.5716 24.7174
35.759 24.4456
35.9468 24.1094
36.1345 23.8228
36.3222 23.7053
36.5101 23.2891
36.6981 23.0667
36.8861 22.7084
37.0743 22.3819
37.2626 22.2181
37.451 21.9559
37.6395 21.6559
37.8281 21.4035
38.0168 21.0726
38.2056 20.7892
38.3945 20.4884
38.5837 20.2311
38.7728 20.0315
38.9621 19.728
39.1514 19.5109
39.3409 19.2257
39.5304 19.04
39.7201 18.7385
39.9099 18.597
40.0999 18.3453
40.2899 18.1191
40.48 17.8223
40.6703 17.6469
40.8607 17.4719
41.0512 17.2075
41.242 16.9833
41.4327 16.7422
41.6236 16.5388
41.8146 16.2881
42.0057 16.0658
42.1969 15.8738
42.3882 15.6848
42.5797 15.4412
42.7713 15.2607
42.963 15.0242
43.1549 14.828
43.3468 14.6325
43.5389 14.4551
43.7312 14.2014
43.9237 14.0744
44.1162 13.8819
44.3088 13.6753
44.5016 13.4108
44.6945 13.2858
44.8875 13.0799
45.0806 12.8775
45.2739 12.7116
45.4673 12.5631
45.6609 12.3358
45.8546 12.1389
46.0484 11.9713
46.2424 11.8169
46.4365 11.6491
46.631 11.483
46.8254 11.3189
47.0199 11.1593
47.2146 11.005
47.4095 10.8336
47.6044 10.641
47.7996 10.5004
47.9948 10.3735
48.1902 10.2182
48.3858 10.0352
48.5815 9.9095
48.7774 9.75888
48.9734 9.66631
49.1696 9.49545
49.3661 9.3332
49.5626 9.16818
49.7592 9.07489
49.956 8.95272
50.153 8.78099
50.3501 8.64449
50.5474 8.49168
50.7448 8.38992
50.9424 8.22815
51.1402 8.16029
51.3381 7.98483
51.5362 7.85976
51.7344 7.73456
51.9328 7.62662
52.1316 7.4759
52.3304 7.3667
52.5293 7.23999
52.7284 7.08366
52.9276 6.96977
53.1271 6.89412
53.3267 6.77115
53.5265 6.60845
53.7264 6.55446
53.9266 6.43016
54.1269 6.33451
54.3274 6.17582
54.528 6.02303
54.7289 5.8369
54.9301 5.70102
55.1314 5.58798
55.3328 5.29491
55.5344 5.13326
55.7361 5.02546

File: Ni3Fe_FD0274.xy
TT I
1.27165 7.75286
1.45013 6.20661
1.62863 5.01207
1.80712 5.09139
1.98562 4.36748
2.16411 4.43121
2.34263 4.54245
2.52115 5.75705
2.69965 6.8162
2.87818 8.29931
3.05672 10.9911
3.23527 15.181
3.4138 19.1787
3.59237 24.3674
3.77094 26.6413
3.9495 30.4124
4.12809 35.7947
4.30669 210.785
4.4853 66.3402
4.6639 57.4972
4.84253 70.4862
5.02118 92.3776
5.19981 527.285
5.37848 267.214
5.55716 108.404
5.73586 97.8666
5.91455 102.752
6.09328 3756.8
6.27201 90.0222
6.45075 70.7162
6.62952 65.3177
6.8083 61.1249
6.98711 57.8146
7.16591 57.5531
7.34475 93.2407
7.5236 56.6285
7.70247 58.5109
7.88135 59.9808
8.06026 64.8412
8.23919 72.6821
8.41812 89.6369
8.59709 1064.77
8.77609 109.524
8.9551 95.638
9.13412 85.6385
9.31318 86.6446
9.49226 88.2779
9.67134 102.29
9.85047 104.915
10.0296 422.332
10.2088 599.926
10.388 111.303
10.5672 453.222
10.7465 91.623
10.9257 81.8806
11.105 75.0834
11.2844 73.4346
11.4637 67.5028
11.6431 66.3118
11.8225 65.4612
12.002 66.5323
12.1814 141.501
12.3609 75.355
12.5405 67.4058
12.72 72.603
12.8996 73.9032
13.0792 82.664
13.2589 223.308
13.4386 152.865
13.6183 226.5
13.7981 114.901
13.9779 79.0691
14.1577 75.447
14.3376 74.52
14.5175 71.5744
14.6974 73.4514
14.8774 114.142
15.0574 174.503
15.2374 74.1356
15.4175 69.2736
15.5976 68.5909
15.7778 99.3395
15.958 175.453
16.1382 65.5444
16.3185 61.0794
16.4988 57.9922
16.6792 56.8389
16.8596 57.4487
17.04 58.2384
17.2205 68.0245
17.401 77.704
17.5815 61.9946
17.7622 63.8456
17.9428 79.1089
18.1237 136.739
18.3044 90.4779
18.4852 86.0128
18.666 63.0884
18.8469 60.6927
19.0278 59.3933
19.2088 62.5319
19.3898 77.8709
19.5709 57.0276
19.752 55.5452
19.9332 58.9404
20.1144 71.586
20.2957 64.6862
20.477 57.2334
20.6586 51.965
20.84 50.9375
21.0215 50.8826
21.203 52.4984
21.3846 51.3075
21.5662 50.9871
21.7479 54.6988
21.9297 66.4218
22.1115 57.9906
22.2933 52.622
22.4753 50.9645
22.6572 51.1032
22.8393 53.5774
23.0214 60.071
23.2037 51.1306
23.3859 51.9364
23.5682 57.7616
23.7505 51.4041
23.9329 47.156
24.1154 45.9927
24.2979 45.3746
24.4805 44.7086
24.6631 44.7865
24.8458 44.0131
25.0286 44.5573
25.2114 46.3798
25.3943 46.5533
25.5773 42.9046
25.7605 42.202
25.9436 42.4108
26.1268 43.4102
26.31 41.9861
26.4933 42.2809
26.6767 43.7298
26.8601 42.1996
27.0437 40.6451
27.2272 40.2609
27.4109 39.9019
27.5946 40.0345
27.7784 39.6069
27.9623 39.8729
28.1462 40.4074
28.3304 38.8576
28.5145 37.4458
28.6987 37.1124
28.8829 36.8253
29.0673 36.2081
29.2517 35.7654
29.4361 35.6047
29.6207 34.5931
29.8053 34.3259
29.99 33.8948
30.1748 33.8419
30.3597 33.7061
30.5447 33.4755
30.7297 33.564
30.915 32.9923
31.1002 32.3539
31.2855 32.0695
31.4708 32.091
31.6563 31.6223
31.8418 31.4577
32.0275 31.1457
32.2132 30.6658
32.399 30.2349
32.5848 29.7251
32.7708 29.346
32.9569 29.2209
33.143 28.9109
33.3293 28.5803
33.5158 28.1752
33.7022 27.8018
33.8887 27.4001
34.0753 27.0685
34.262 26.777
34.4488 26.4138
34.6357 26.001
34.8227 25.7691
35.0098 25.5298
35.1969 25.164
35.3842 24.9422
35.5716 24.8249
35.759 24.3846
35.9468 24.0328
36.1345 23.8455
36.3222 23.6804
36.5101 23.3993
36.6981 23.0046
36.8861 22.7398
37.0743 22.3826
37.2626 22.1317
37.451 21.8823
37.6395 21.6782
37.8281 21.3828
38.0168 21.0935
38.2056 20.805
38.3945 20.5243
38.5837 20.2819
38.7728 20.0345
38.9621 19.8196
39.1514 19.442
39.3409 19.2521
39.5304 19.0266
39.7201 18.8247
39.9099 18.5777
40.0999 18.3668
40.2899 18.1035
40.48 17.8525
40.6703 17.6601
40.8607 17.4736
41.0512 17.225
41.242 16.9233
41.4327 16.7776
41.6236 16.5123
41.8146 16.3405
42.0057 16.0842
42.1969 15.8722
42.3882 15.6429
42.5797 15.4289
42.7713 15.2374
42.963 15.0241
43.1549 14.8001
43.3468 14.5608
43.5389 14.3959
43.7312 14.2018
43.9237 14.0081
44.1162 13.8296
44.3088 13.6237
44.5016 13.4318
44.6945 13.2206
44.8875 13.0724
45.0806 12.8883
45.2739 12.6494
45.4673 12.5379
45.6609 12.3216
45.8546 12.2048
46.0484 12.0028
46.2424 11.791
46.4365 11.693
46.631 11.5338
46.8254 11.3196
47.0199 11.1062
47.2146 10.9355
47.4095 10.8429
47.6044 10.6198
47.7996 10.4945
47.9948 10.343
48.1902 10.2473
48.3858 10.0466
48.5815 9.88654
48.7774 9.74526
48.9734 9.65195
49.1696 9.47507
49.3661 9.31013
49.5626 9.18949
49.7592 9.04577
49.956 8.90462
50.153 8.7739
50.3501 8.59676
50.5474 8.52764
50.7448 8.33959
50.9424 8.25417
51.1402 8.10641
51.3381 7.9985
51.5362 7.86141
51.7344 7.71891
51.9328 7.62734
52.1316 7.47227
52.3304 7.37692
52.5293 7.26341
52.7284 7.10748
52.9276 6.9438
53.1271 6.9081
53.3267 6.78199
53.5265 6.64717
53.7264 6.51946
53.9266 6.42207
54.1269 6.24832
54.3274 6.16217
54.528 6.04304
54.7289 5.87375
54.9301 5.69678
55.1314 5.55476
55.3328 5.3162
55.5344 5.09906
55.7361 4.97086

File: Ni3Fe_FD0276.xy
TT I
1.27165 8.05287
1.45013 6.89035
1.62863 5.38323
1.80712 4.99441
1.98562 5.16862
2.16411 4.90491
2.34263 5.05812
2.52115 5.9166
2.69965 6.61354
2.87818 8.11646
3.05672 10.9278
3.23527 15.1206
3.4138 19.642
3.59237 25.2087
3.77094 26.7556
3.9495 30.1516
4.12809 35.8704
4.30669 218.358
4.4853 67.0504
4.6639 57.594
4.84253 70.1973
5.02118 92.4122
5.19981 524.446
5.37848 266.074
5.55716 108.997
5.73586 97.7162
5.91455 103.064
6.09328 3736.85
6.27201 89.9498
6.45075 70.9114
6.62952 65.7026
6.8083 61.3606
6.98711 58.113
7.16591 57.9152
7.34475 94.1467
7.5236 56.6615
7.70247 58.5185
7.88135 59.8935
8.06026 65.0411
8.23919 72.6121
8.41812 89.9086
8.59709 1070.45
8.77609 109.557
8.9551 96.1046
9.13412 85.6838
9.31318 86.4451
9.49226 88.3606
9.67134 103.179
9.85047 105.094
10.0296 419.368
10.2088 607.74
10.388 111.017
10.5672 454.973
10.7465 91.6562
10.9257 82.1728
11.105 75.0995
11.2844 73.1626
11.4637 67.6335
11.6431 66.3842
11.8225 65.226
12.002 66.7297
12.1814 141.407
12.3609 75.6337
12.5405 67.1823
12.72 73.0765
12.8996 74.1442
13.0792 82.6908
13.2589 222.792
13.4386 152.06
13.6183 225.654
13.7981 115.162
13.9779 79.2229
14.1577 75.7559
14.3376 74.845
14.5175 71.7927
14.6974 73.501
14.8774 113.932
15.0574 174.011
15.2374 74.4691
15.4175 69.2651
15.5976 68.5813
15.7778 99.0115
15.958 176.206
16.1382 65.6036
16.3185 61.2317
16.4988 57.9579
16.6792 56.8697
16.8596 57.4305
17.04 58.2339
17.2205 68.0156
17.401 77.9558
17.5815 61.7882
17.7622 63.9466
17.9428 79.0555
18.1237 136.613
18.3044 90.2317
18.4852 85.6508
18.666 63.1076
18.8469 60.5532
19.0278 59.4164
19.2088 62.3071
19.3898 77.7875
19.5709 56.9851
19.752 55.7727
19.9332 58.9137
20.1144 71.83
20.2957 64.5302
20.477 57.2118
20.6586 51.8885
20.84 51.1729
21.0215 50.8093
21.203 52.4859
21.3846 51.2433
21.5662 50.8197
21.7479 54.5946
21.9297 66.2039
22.1115 57.7484
22.2933 52.5246
22.4753 50.8887
22.6572 51.024
22.8393 53.5817
23.0214 59.8187
23.2037 50.8917
23.3859 52.0881
23.5682 57.8018
23.7505 51.1799
23.9329 47.3121
24.1154 46.0081
24.2979 45.4289
24.4805 44.7165
24.6631 44.5016
24.8458 44.1073
25.0286 44.623
25.2114 46.4406
25.3943 46.392
25.5773 42.6596
25.7605 42.3273
25.9436 42.3836
26.1268 43.4105
26.31 41.7977
26.4933 42.3475
26.6767 43.7605
26.8601 42.2968
27.0437 40.6009
27.2272 40.122
27.4109 39.9915
27.5946 40.0875
27.7784 39.5198
27.9623 39.8329
28.1462 40.3685
28.3304 38.8022
28.5145 37.5162
28.6987 37.1072
28.8829 36.8649
29.0673 36.2017
29.2517 35.686
29.4361 35.594
29.6207 34.4531
29.8053 34.297
29.99 33.9374
30.1748 33.7136
30.3597 33.6893
30.5447 33.4401
30.7297 33.4259
30.915 32.9547
31.1002 32.4098
31.2855 32.0614
31.4708 32.0768
31.6563 31.7826
31.8418 31.2555
32.0275 31.2054
32.2132 30.7514
32.399 30.0758
32.5848 29.6526
32.7708 29.3228
32.9569 29.1886
33.143 28.888
33.3293 28.5347
33.5158 28.1714
33.7022 27.7545
33.8887 27.3891
34.0753 27.082
34.262 26.7725
34.4488 26.3758
34.6357 26.0602
34.8227 25.6836
35.0098 25.4988
35.1969 25.3191
35.3842 24.9515
35.5716 24.7667
35.759 24.4157
35.9468 24.0211
36.1345 23.8453
36.3222 23.5748
36.5101 23.3933
36.6981 22.9799
36.8861 22.7205
37.0743 22.3336
37.2626 22.1495
37.451 21.8679
37.6395 21.7216
37.8281 21.3512
38.0168 21.0574
38.2056 20.8179
38.3945 20.4989
38.5837 20.2742
38.7728 19.965
38.9621 19.8111
39.1514 19.5025
39.3409 19.2333
39.5304 19.0232
39.7201 18.8138
39.9099 18.5592
40.0999 18.4145
40.2899 18.0659
40.48 17.7677
40.6703 17.6579
40.8607 17.4495
41.0512 17.2156
41.242 16.9971
41.4327 16.7242
41.6236 16.5001
41.8146 16.2949
42.0057 16.0661
42.1969 15.8616
42.3882 15.6936
42.5797 15.4707
42.7713 15.2326
42.963 15.0041
43.1549 14.8219
43.3468 14.6324
43.5389 14.3929
43.7312 14.2347
43.9237 14.0091
44.1162 13.7892
44.3088 13.6518
44.5016 13.4496
44.6945 13.2806
44.8875 13.0568
45.0806 12.891
45.2739 12.6754
45.4673 12.5462
45.6609 12.3427
45.8546 12.2033
46.0484 11.9996
46.2424 11.8189
46.4365 11.6507
46.631 11.4609
46.8254 11.2846
47.0199 11.1192
47.2146 10.9866
47.4095 10.8179
47.6044 10.6378
47.7996 10.479
47.9948 10.3744
48.1902 10.1967
48.3858 10.09
48.5815 9.8978
48.7774 9.77524
48.9734 9.57711
49.1696 9.47767
49.3661 9.31085
49.5626 9.18442
49.7592 9.06608
49.956 8.93642
50.153 8.80297
50.3501 8.5932
50.5474 8.52468
50.7448 8.39271
50.9424 8.25398
51.1402 8.14311
51.3381 7.98868
51.5362 7.88485
51.7344 7.76555
51.9328 7.56019
52.1316 7.49271
52.3304 7.31273
52.5293 7.22437
52.7284 7.11009
52.9276 6.97128
53.1271 6.87289
53.3267 6.75362
53.5265 6.64234
53.7264 6.50312
53.9266 6.4357
54.1269 6.26021
54.3274 6.18699
54.528 6.03436
54.7289 5.86178
54.9301 5.69239
55.1314 5.59986
55.3328 5.32501
55.5344 5.13341
55.7361 5.00814

File: Ni3Fe_FD0277.xy
TT I
1.27165 8.0488
1.45013 6.46438
1.62863 5.529
1.80712 5.02258
1.98562 5.1438
2.16411 4.91962
2.34263 5.17656
2.52115 5.23279
2.69965 6.33684
2.87818 7.70137
3.05672 11.199
3.23527 14.7662
3.4138 19.243
3.59237 24.4643
3.77094 26.9901
3.9495 30.6819
4.12809 36.0335
4.30669 224.864
4.4853 67.1292
4.6639 57.3684
4.84253 69.8649
5.02118 92.1329
5.19981 520.757
5.37848 269.063
5.55716 108.652
5.73586 97.5583
5.91455 102.591
6.09328 3716.86
6.27201 90.5187
6.45075 70.6293
6.62952 65.3856
6.8083 61.2729
6.98711 58.325
7.16591 57.8089
7.34475 96.0275
7.5236 56.5708
7.70247 58.3171
7.88135 60.3056
8.06026 64.714
8.23919 72.4784
8.41812 89.9046
8.59709 1065.91
8.77609 109.177
8.9551 95.9034
9.13412 85.5799
9.31318 86.4214
9.49226 88.2394
9.67134 103.263
9.85047 104.934
10.0296 415.611
10.2088 607.592
10.388 111.007
10.5672 451.825
10.7465 91.4833
10.9257 81.8162
11.105 74.9653
11.2844 73.497
11.4637 67.2901
11.6431 66.2153
11.8225 65.2568
12.002 66.666
12.1814 140.634
12.3609 75.4279
12.5405 67.2511
12.72 73.3813
12.8996 74.1106
13.0792 82.545
13.2589 222.401
13.4386 152.349
13.6183 223.988
13.7981 115.293
13.9779 79.2019
14.1577 75.5222
14.3376 74.6907
14.5175 71.5051
14.6974 73.7563
14.8774 113.726
15.0574 173.544
15.2374 74.1736
15.4175 69.341
15.5976 68.5777
15.7778 98.435
15.958 177.45
16.1382 65.7772
16.3185 61.1824
16.4988 57.861
16.6792 56.9183
16.8596 57.6535
17.04 58.3818
17.2205 68.0622
17.401 78.0122
17.5815 61.8549
17.7622 64.1645
17.9428 79.0289
18.1237 136.824
18.3044 90.3222
18.4852 86.0447
18.666 63.1104
18.8469 60.6719
19.0278 59.3335
19.2088 62.5985
19.3898 77.7074
19.5709 57.0373
19.752 55.6953
19.9332 58.939
20.1144 71.6362
20.2957 64.8488
20.477 57.0187
20.6586 51.7667
20.84 50.8994
21.0215 50.6325
21.203 52.6811
21.3846 51.3479
21.5662 50.9146
21.7479 54.657
21.9297 66.2285
22.1115 57.9357
22.2933 52.5948
22.4753 51.003
22.6572 51.013
22.8393 53.5975
23.0214 59.8659
23.2037 51.0205
23.3859 51.9706
23.5682 57.7076
23.7505 51.2203
23.9329 47.147
24.1154 46.087
24.2979 45.2974
24.4805 44.6757
24.6631 44.5963
24.8458 44.0144
25.0286 44.5293
25.2114 46.2575
25.3943 46.3559
25.5773 42.8018
25.7605 42.1099
25.9436 42.4927
26.1268 43.4322
26.31 42.0135
26.4933 42.2777
26.6767 43.6871
26.8601 42.2175
27.0437 40.5777
27.2272 40.1665
27.4109 39.9759
27.5946 39.8567
27.7784 39.4782
27.9623 39.8484
28.1462 40.4874
28.3304 38.8802
28.5145 37.6446
28.6987 37.1173
28.8829 36.8439
29.0673 36.1952
29.2517 35.7149
29.4361 35.4545
29.6207 34.5903
29.8053 34.2195
29.99 33.9067
30.1748 33.7345
30.3597 33.555
30.5447 33.4797
30.7297 33.6029
30.915 32.9893
31.1002 32.3466
31.2855 32.1272
31.4708 32.0391
31.6563 31.7209
31.8418 31.3003
32.0275 31.212
32.2132 30.5806
32.399 30.1653
32.5848 29.7272
32.7708 29.2771
32.9569 29.2021
33.143 28.8947
33.3293 28.4809
33.5158 28.1613
33.7022 27.6184
33.8887 27.3954
34.0753 27.1207
34.262 26.6302
34.4488 26.3595
34.6357 26.0143
34.8227 25.6797
35.0098 25.5106
35.1969 25.2524
35.3842 24.9579
35.5716 24.723
35.759 24.4037
35.9468 24.0679
36.1345 23.8662
36.3222 23.646
36.5101 23.3281
36.6981 23.0536
36.8861 22.7356
37.0743 22.392
37.2626 22.1204
37.451 21.8685
37.6395 21.6695
37.8281 21.3566
38.0168 21.0728
38.2056 20.776
38.3945 20.4916
38.5837 20.2409
38.7728 19.9633
38.9621 19.7746
39.1514 19.4618
39.3409 19.2274
39.5304 19.0021
39.7201 18.7891
39.9099 18.5894
40.0999 18.3457
40.2899 18.0938
40.48 17.8029
40.6703 17.5984
40.8607 17.4076
41.0512 17.1932
41.242 16.9726
41.4327 16.7323
41.6236 16.4581
41.8146 16.2879
42.0057 16.0581
42.1969 15.8491
42.3882 15.683
42.5797 15.4032
42.7713 15.2365
42.963 14.9714
43.1549 14.831
43.3468 14.6243
43.5389 14.3806
43.7312 14.2111
43.9237 14.0429
44.1162 13.8102
44.3088 13.5897
44.5016 13.4138
44.6945 13.215
44.8875 13.091
45.0806 12.8691
45.2739 12.7293
45.4673 12.5653
45.6609 12.3522
45.8546 12.2277
46.0484 12.0316
46.2424 11.8545
46.4365 11.6628
46.631 11.4571
46.8254 11.304
47.0199 11.1505
47.2146 10.9971
47.4095 10.8143
47.6044 10.6028
47.7996 10.4627
47.9948 10.3402
48.1902 10.1967
48.3858 10.0445
48.5815 9.89617
48.7774 9.80825
48.9734 9.63897
49.1696 9.46435
49.3661 9.324
49.5626 9.17666
49.7592 9.09108
49.956 8.93086
50.153 8.75899
50.3501 8.64485
50.5474 8.51177
50.7448 8.39175
50.9424 8.23627
51.1402 8.08764
51.3381 7.96368
51.5362 7.8556
51.7344 7.69349
51.9328 7.58121
52.1316 7.45598
52.3304 7.38041
52.5293 7.20359
52.7284 7.11246
52.9276 6.96701
53.1271 6.87795
53.3267 6.71426
53.5265 6.62548
53.7264 6.57015
53.9266 6.44729
54.1269 6.27021
54.3274 6.16289
54.528 5.9743
54.7289 5.82852
54.9301 5.65674
55.1314 5.54918
55.3328 5.35936
55.5344 5.14614
55.7361 4.92907

File: Ni3Fe_FD0278.xy
TT I
1.27165 8.27713
1.45013 6.48277
1.62863 5.29062
1.80712 5.56285
1.98562 5.15502
2.16411 4.86721
2.34263 5.51983
2.52115 5.98693
2.69965 6.58097
2.87818 7.85808
3.05672 11.0899
3.23527 14.9762
3.4138 19.0408
3.59237 24.4178
3.77094 26.5284
3.9495 30.43
4.12809 35.649
4.30669 231.308
4.4853 67.6485
4.6639 57.8509
4.84253 69.9412
5.02118 92.0166
5.19981 517.823
5.37848 269.187
5.55716 108.527
5.73586 96.9418
5.91455 102.16
6.09328 3675.45
6.27201 89.865
6.45075 70.4493
6.62952 65.1853
6.8083 61.1821
6.98711 57.7538
7.16591 57.6564
7.34475 97.6417
7.5236 56.3862
7.70247 58.3514
7.88135 60.2564
8.06026 65.3981
8.23919 72.4695
8.41812 89.8285
8.59709 1056.68
8.77609 109.397
8.9551 96.0067
9.13412 85.6386
9.31318 86.0706
9.49226 87.8993
9.67134 102.831
9.85047 104.284
10.0296 410.548
10.2088 595.551
10.388 110.591
10.5672 454.796
10.7465 91.4835
10.9257 81.4039
11.105 75.0335
11.2844 73.2666
11.4637 67.4417
11.6431 66.2213
11.8225 64.9547
12.002 66.5637
12.1814 140.524
12.3609 75.9149
12.5405 67.077
12.72 72.9772
12.8996 73.8092
13.0792 82.2565
13.2589 220.811
13.4386 152.021
13.6183 222.553
13.7981 114.632
13.9779 79.008
14.1577 75.492
14.3376 74.5227
14.5175 71.558
14.6974 73.0873
14.8774 113.005
15.0574 174.605
15.2374 74.1319
15.4175 69.0639
15.5976 68.5188
15.7778 98.1644
15.958 177.889
16.1382 65.8021
16.3185 61.1306
16.4988 57.7438
16.6792 56.7517
16.8596 57.4726
17.04 58.1526
17.2205 67.7546
17.401 77.9648
17.5815 61.8509
17.7622 63.8376
17.9428 78.8417
18.1237 136.717
18.3044 90.0011
18.4852 86.3482
18.666 63.3172
18.8469 60.292
19.0278 59.4237
19.2088 62.3309
19.3898 77.6487
19.5709 56.9214
19.752 55.5004
19.9332 58.786
20.1144 71.4784
20.2957 64.8825
20.477 57.4246
20.6586 51.9122
20.84 50.8396
21.0215 50.8254
21.203 52.5262
21.3846 51.3932
21.5662 50.7813
21.7479 54.5657
21.9297 66.3858
22.1115 57.6798
22.2933 52.3791
22.4753 50.9338
22.6572 50.8993
22.8393 53.6056
23.0214 60.0699
23.2037 50.879
23.3859 51.8945
23.5682 57.91
23.7505 51.3513
23.9329 47.1843
24.1154 46.0102
24.2979 45.2868
24.4805 44.4387
24.6631 44.5218
24.8458 44.0709
25.0286 44.4629
25.2114 46.1215
25.3943 46.6023
25.5773 42.6209
25.7605 42.0997
25.9436 42.3961
26.1268 43.3347
26.31 41.8499
26.4933 42.4294
26.6767 43.7507
26.8601 42.1578
27.0437 40.5384
27.2272 40.194
27.4109 39.8859
27.5946 39.8763
27.7784 39.5304
27.9623 39.765
28.1462 40.4231
28.3304 38.8547
28.5145 37.4143
28.6987 37.1711
28.8829 36.7322
29.0673 36.0336
29.2517 35.7174
29.4361 35.5102
29.6207 34.5934
29.8053 34.2408
29.99 33.949
30.1748 33.7004
30.3597 33.5394
30.5447 33.4603
30.7297 33.4085
30.915 33.0211
31.1002 32.4771
31.2855 32.1706
31.4708 32.0926
31.6563 31.6942
31.8418 31.3789
32.0275 31.1437
32.2132 30.6509
32.399 30.2352
32.5848 29.683
32.7708 29.3235
32.9569 29.1648
33.143 28.8823
33.3293 28.5476
33.5158 28.0986
33.7022 27.7739
33.8887 27.4467
34.0753 27.0929
34.262 26.727
34.4488 26.3165
34.6357 25.9764
34.8227 25.7482
35.0098 25.4876
35.1969 25.1825
35.3842 24.9642
35.5716 24.7619
35.759 24.3953
35.9468 24.105
36.1345 23.8045
36.3222 23.6308
36.5101 23.3389
36.6981 23.0733
36.8861 22.7433
37.0743 22.3781
37.2626 22.1689
37.451 21.8544
37.6395 21.6439
37.8281 21.3407
38.0168 21.0462
38.2056 20.7836
38.3945 20.4832
38.5837 20.2607
38.7728 20.0375
38.9621 19.7119
39.1514 19.503
39.3409 19.2117
39.5304 19.0359
39.7201 18.8065
39.9099 18.6243
40.0999 18.2845
40.2899 18.0793
40.48 17.7863
40.6703 17.5966
40.8607 17.4284
41.0512 17.1745
41.242 16.9822
41.4327 16.7601
41.6236 16.5149
41.8146 16.3259
42.0057 16.0478
42.1969 15.8945
42.3882 15.6762
42.5797 15.4321
42.7713 15.2726
42.963 15.02
43.1549 14.8301
43.3468 14.5787
43.5389 14.4355
43.7312 14.1305
43.9237 14.0305
44.1162 13.7403
44.3088 13.599
44.5016 13.4047
44.6945 13.2504
44.8875 13.0779
45.0806 12.8079
45.2739 12.6625
45.4673 12.5044
45.6609 12.3019
45.8546 12.2003
46.0484 11.9728
46.2424 11.8306
46.4365 11.6627
46.631 11.4329
46.8254 11.2807
47.0199 11.1643
47.2146 10.9985
47.4095 10.8005
47.6044 10.6392
47.7996 10.4571
47.9948 10.3452
48.1902 10.1858
48.3858 10.0342
48.5815 9.89269
48.7774 9.7633
48.9734 9.60093
49.1696 9.43653
49.3661 9.35084
49.5626 9.189
49.7592 9.07805
49.956 8.90679
50.153 8.76482
50.3501 8.63033
50.5474 8.53235
50.7448 8.36205
50.9424 8.27344
51.1402 8.12914
51.3381 7.96898
51.5362 7.85726
51.7344 7.70939
51.9328 7.5956
52.1316 7.47362
52.3304 7.37394
52.5293 7.23502
52.7284 7.11551
52.9276 6.96599
53.1271 6.88502
53.3267 6.75615
53.5265 6.63615
53.7264 6.49622
53.9266 6.41582
54.1269 6.30637
54.3274 6.20048
54.528 6.02412
54.7289 5.86672
54.9301 5.70851
55.1314 5.58498
55.3328 5.28908
55.5344 5.14498
55.7361 5.01309