Folder: NiFe_MOF_catalyst_paper/XRD (part 99)

File: Ni3Fe_FD0536.xy
TT I
1.27165 7.61628
1.45013 6.16362
1.62863 5.2748
1.80712 4.9643
1.98562 4.76914
2.16411 5.2629
2.34263 4.90526
2.52115 6.18355
2.69965 7.75103
2.87818 8.15805
3.05672 11.1808
3.23527 15.444
3.4138 19.2687
3.59237 24.5473
3.77094 26.5615
3.9495 30.2004
4.12809 35.6677
4.30669 288.644
4.4853 72.9667
4.6639 55.4538
4.84253 66.9521
5.02118 87.6653
5.19981 366.944
5.37848 207.149
5.55716 102.87
5.73586 92.5666
5.91455 94.7064
6.09328 4093.93
6.27201 85.5607
6.45075 68.3297
6.62952 63.9317
6.8083 59.7526
6.98711 56.3863
7.16591 56.4419
7.34475 107.863
7.5236 55.7489
7.70247 56.835
7.88135 58.6734
8.06026 62.7113
8.23919 70.2597
8.41812 86.4629
8.59709 1083.55
8.77609 101.999
8.9551 94.7199
9.13412 82.6095
9.31318 82.9964
9.49226 84.9275
9.67134 102.681
9.85047 100.864
10.0296 328.026
10.2088 475.587
10.388 106.299
10.5672 492.724
10.7465 87.733
10.9257 79.7836
11.105 72.6993
11.2844 72.3262
11.4637 65.7382
11.6431 64.481
11.8225 63.2258
12.002 64.0118
12.1814 147.288
12.3609 73.9926
12.5405 64.9912
12.72 72.3279
12.8996 71.5697
13.0792 79.2427
13.2589 223.16
13.4386 133.448
13.6183 230.566
13.7981 102.925
13.9779 76.3976
14.1577 73.4122
14.3376 73.0802
14.5175 69.581
14.6974 71.2403
14.8774 107.518
15.0574 162.706
15.2374 72.728
15.4175 67.226
15.5976 66.3797
15.7778 93.5352
15.958 166.532
16.1382 64.5394
16.3185 59.7169
16.4988 56.3549
16.6792 55.2248
16.8596 56.164
17.04 56.3782
17.2205 66.2631
17.401 74.2261
17.5815 60.0493
17.7622 61.8741
17.9428 73.7358
18.1237 137.959
18.3044 89.503
18.4852 81.577
18.666 61.3468
18.8469 58.6978
19.0278 57.4597
19.2088 59.9923
19.3898 77.1078
19.5709 54.9676
19.752 53.9282
19.9332 56.7206
20.1144 70.5396
20.2957 63.614
20.477 54.9713
20.6586 50.1942
20.84 49.3675
21.0215 49.0897
21.203 51.2257
21.3846 49.6258
21.5662 49.1743
21.7479 52.9032
21.9297 65.1495
22.1115 56.3172
22.2933 50.8683
22.4753 49.5522
22.6572 49.237
22.8393 52.1391
23.0214 58.4621
23.2037 49.3275
23.3859 50.047
23.5682 56.9055
23.7505 49.384
23.9329 45.8351
24.1154 44.8542
24.2979 43.9131
24.4805 43.3948
24.6631 43.2849
24.8458 42.7159
25.0286 43.2338
25.2114 45.1338
25.3943 45.2048
25.5773 41.4662
25.7605 40.8878
25.9436 41.2912
26.1268 42.2131
26.31 40.5312
26.4933 41.1759
26.6767 42.5408
26.8601 40.9885
27.0437 39.3844
27.2272 38.9739
27.4109 38.7686
27.5946 38.8645
27.7784 38.292
27.9623 38.7372
28.1462 39.4051
28.3304 37.7142
28.5145 36.4406
28.6987 36.0114
28.8829 35.8045
29.0673 35.0317
29.2517 34.6763
29.4361 34.5841
29.6207 33.5945
29.8053 33.1927
29.99 32.9263
30.1748 32.7772
30.3597 32.6429
30.5447 32.4626
30.7297 32.5929
30.915 32.0616
31.1002 31.5951
31.2855 31.2529
31.4708 31.1837
31.6563 30.7256
31.8418 30.5393
32.0275 30.2312
32.2132 29.819
32.399 29.308
32.5848 28.8293
32.7708 28.5196
32.9569 28.3491
33.143 28.117
33.3293 27.7189
33.5158 27.4067
33.7022 26.8707
33.8887 26.6673
34.0753 26.2766
34.262 25.9526
34.4488 25.6441
34.6357 25.3438
34.8227 24.953
35.0098 24.7553
35.1969 24.455
35.3842 24.1983
35.5716 24.0372
35.759 23.7855
35.9468 23.3464
36.1345 23.2129
36.3222 22.9295
36.5101 22.6486
36.6981 22.3789
36.8861 22.1245
37.0743 21.7974
37.2626 21.5301
37.451 21.2018
37.6395 21.1082
37.8281 20.7759
38.0168 20.4394
38.2056 20.2625
38.3945 19.9238
38.5837 19.7951
38.7728 19.427
38.9621 19.2496
39.1514 18.9685
39.3409 18.7276
39.5304 18.4733
39.7201 18.2536
39.9099 18.0695
40.0999 17.8007
40.2899 17.6289
40.48 17.3394
40.6703 17.157
40.8607 16.9354
41.0512 16.661
41.242 16.4562
41.4327 16.3266
41.6236 16.0117
41.8146 15.8076
42.0057 15.6037
42.1969 15.4115
42.3882 15.2277
42.5797 15.0248
42.7713 14.8229
42.963 14.6
43.1549 14.3988
43.3468 14.1944
43.5389 14.0262
43.7312 13.8568
43.9237 13.6227
44.1162 13.4129
44.3088 13.2568
44.5016 13.0736
44.6945 12.909
44.8875 12.7234
45.0806 12.5421
45.2739 12.3774
45.4673 12.1577
45.6609 11.9776
45.8546 11.861
46.0484 11.6352
46.2424 11.4822
46.4365 11.3961
46.631 11.1499
46.8254 11.0087
47.0199 10.8525
47.2146 10.688
47.4095 10.5388
47.6044 10.3869
47.7996 10.2194
47.9948 10.082
48.1902 9.93099
48.3858 9.80354
48.5815 9.64069
48.7774 9.52436
48.9734 9.35338
49.1696 9.22667
49.3661 9.10347
49.5626 8.92288
49.7592 8.81462
49.956 8.70493
50.153 8.56163
50.3501 8.38519
50.5474 8.28922
50.7448 8.15275
50.9424 8.04053
51.1402 7.91024
51.3381 7.76597
51.5362 7.64207
51.7344 7.56498
51.9328 7.3829
52.1316 7.25324
52.3304 7.16682
52.5293 7.05328
52.7284 6.8876
52.9276 6.81739
53.1271 6.74528
53.3267 6.57284
53.5265 6.50384
53.7264 6.3696
53.9266 6.22644
54.1269 6.13615
54.3274 6.03392
54.528 5.86774
54.7289 5.67131
54.9301 5.55859
55.1314 5.42135
55.3328 5.21789
55.5344 5.04354
55.7361 4.87965

File: Ni3Fe_FD0537.xy
TT I
1.27165 7.52009
1.45013 6.48204
1.62863 5.69773
1.80712 5.11179
1.98562 5.02918
2.16411 4.81022
2.34263 5.49112
2.52115 6.84206
2.69965 8.08749
2.87818 8.50196
3.05672 11.28
3.23527 14.9419
3.4138 19.1163
3.59237 24.9415
3.77094 26.5565
3.9495 29.9369
4.12809 35.5358
4.30669 287.595
4.4853 73.0359
4.6639 55.9697
4.84253 67.4374
5.02118 87.1643
5.19981 369.444
5.37848 207.443
5.55716 103.095
5.73586 93.0538
5.91455 95.1726
6.09328 4091.17
6.27201 86.007
6.45075 67.9694
6.62952 64.2316
6.8083 59.9061
6.98711 56.7945
7.16591 56.4151
7.34475 107.416
7.5236 55.7809
7.70247 57.0237
7.88135 58.9008
8.06026 62.9376
8.23919 70.2555
8.41812 86.7393
8.59709 1088.51
8.77609 102.362
8.9551 94.756
9.13412 82.5037
9.31318 83.3088
9.49226 85.0531
9.67134 102.798
9.85047 100.74
10.0296 329.434
10.2088 469.342
10.388 106.764
10.5672 497.332
10.7465 87.6695
10.9257 80.1087
11.105 72.8711
11.2844 72.385
11.4637 65.7359
11.6431 64.5479
11.8225 63.253
12.002 63.9854
12.1814 147.244
12.3609 73.9193
12.5405 65.2937
12.72 72.0672
12.8996 71.6324
13.0792 79.1474
13.2589 224.276
13.4386 132.554
13.6183 231.312
13.7981 103.103
13.9779 76.7792
14.1577 73.5874
14.3376 73.0459
14.5175 69.6285
14.6974 71.3031
14.8774 107.757
15.0574 162.378
15.2374 73.1006
15.4175 67.3743
15.5976 66.2482
15.7778 93.5454
15.958 166.306
16.1382 64.4285
16.3185 60.0341
16.4988 56.1773
16.6792 55.2607
16.8596 56.0018
17.04 56.4143
17.2205 66.1307
17.401 74.2635
17.5815 59.9
17.7622 62.1239
17.9428 73.933
18.1237 138.179
18.3044 89.3174
18.4852 81.4245
18.666 61.3199
18.8469 58.6688
19.0278 57.8865
19.2088 60.1697
19.3898 77.1604
19.5709 55.0468
19.752 53.798
19.9332 56.8365
20.1144 70.4023
20.2957 63.6358
20.477 54.9159
20.6586 50.1865
20.84 49.3946
21.0215 49.1748
21.203 51.2141
21.3846 49.7822
21.5662 49.3938
21.7479 52.7495
21.9297 65.1245
22.1115 56.506
22.2933 50.7951
22.4753 49.5666
22.6572 49.3617
22.8393 52.2797
23.0214 58.3554
23.2037 49.451
23.3859 50.1129
23.5682 56.9206
23.7505 49.2955
23.9329 45.8706
24.1154 44.6721
24.2979 43.9144
24.4805 43.3883
24.6631 43.4599
24.8458 42.7623
25.0286 43.2562
25.2114 45.1787
25.3943 45.2651
25.5773 41.3659
25.7605 41.0522
25.9436 41.3737
26.1268 42.2376
26.31 40.6534
26.4933 41.1032
26.6767 42.5276
26.8601 41.0423
27.0437 39.4487
27.2272 38.9648
27.4109 38.7286
27.5946 38.8054
27.7784 38.4073
27.9623 38.7134
28.1462 39.3844
28.3304 37.5692
28.5145 36.4209
28.6987 36.2139
28.8829 35.793
29.0673 35.1368
29.2517 34.723
29.4361 34.505
29.6207 33.592
29.8053 33.213
29.99 32.9582
30.1748 32.7293
30.3597 32.6834
30.5447 32.5739
30.7297 32.5736
30.915 32.0539
31.1002 31.4994
31.2855 31.2664
31.4708 31.2156
31.6563 30.7226
31.8418 30.5573
32.0275 30.3329
32.2132 29.7415
32.399 29.3249
32.5848 28.822
32.7708 28.5006
32.9569 28.3197
33.143 28.1326
33.3293 27.7245
33.5158 27.3183
33.7022 26.9655
33.8887 26.6882
34.0753 26.3125
34.262 25.9417
34.4488 25.5817
34.6357 25.2669
34.8227 25.0225
35.0098 24.8013
35.1969 24.5161
35.3842 24.2119
35.5716 24.12
35.759 23.7499
35.9468 23.3593
36.1345 23.1548
36.3222 22.9275
36.5101 22.6742
36.6981 22.3313
36.8861 22.1208
37.0743 21.8522
37.2626 21.4818
37.451 21.2097
37.6395 21.203
37.8281 20.7118
38.0168 20.5113
38.2056 20.2318
38.3945 19.9797
38.5837 19.7543
38.7728 19.4872
38.9621 19.1701
39.1514 18.9751
39.3409 18.7311
39.5304 18.5027
39.7201 18.3006
39.9099 18.0356
40.0999 17.8532
40.2899 17.6264
40.48 17.3687
40.6703 17.1459
40.8607 16.9681
41.0512 16.7031
41.242 16.4779
41.4327 16.267
41.6236 16.089
41.8146 15.8611
42.0057 15.6605
42.1969 15.3512
42.3882 15.2214
42.5797 15.0479
42.7713 14.8124
42.963 14.5959
43.1549 14.4577
43.3468 14.1828
43.5389 14.0266
43.7312 13.7932
43.9237 13.6556
44.1162 13.4714
44.3088 13.2721
44.5016 13.1115
44.6945 12.8723
44.8875 12.7117
45.0806 12.5462
45.2739 12.3616
45.4673 12.2423
45.6609 12.0076
45.8546 11.8779
46.0484 11.6774
46.2424 11.5228
46.4365 11.3624
46.631 11.1789
46.8254 11.0205
47.0199 10.8212
47.2146 10.661
47.4095 10.5379
47.6044 10.3908
47.7996 10.18
47.9948 10.0756
48.1902 9.94558
48.3858 9.82745
48.5815 9.63973
48.7774 9.51242
48.9734 9.40048
49.1696 9.20993
49.3661 9.08413
49.5626 8.93741
49.7592 8.81989
49.956 8.69469
50.153 8.52806
50.3501 8.42518
50.5474 8.33363
50.7448 8.16692
50.9424 8.03234
51.1402 7.90276
51.3381 7.76639
51.5362 7.65723
51.7344 7.51884
51.9328 7.40944
52.1316 7.27326
52.3304 7.16815
52.5293 7.06246
52.7284 6.98735
52.9276 6.80459
53.1271 6.71784
53.3267 6.62109
53.5265 6.45259
53.7264 6.39014
53.9266 6.2925
54.1269 6.09805
54.3274 5.9818
54.528 5.88159
54.7289 5.70671
54.9301 5.55191
55.1314 5.41339
55.3328 5.25185
55.5344 5.07193
55.7361 4.94405

File: Ni3Fe_FD0538.xy
TT I
1.27165 7.47434
1.45013 6.00356
1.62863 5.16687
1.80712 4.92725
1.98562 4.92802
2.16411 5.40555
2.34263 5.3636
2.52115 6.81524
2.69965 8.11716
2.87818 8.24445
3.05672 11.3893
3.23527 15.0925
3.4138 19.2757
3.59237 24.9606
3.77094 26.8866
3.9495 30.4214
4.12809 35.7144
4.30669 289.813
4.4853 73.9607
4.6639 55.8702
4.84253 67.4363
5.02118 87.0156
5.19981 371.76
5.37848 208.15
5.55716 103.231
5.73586 92.524
5.91455 94.9446
6.09328 4057.16
6.27201 86.0157
6.45075 68.3043
6.62952 64.3515
6.8083 59.9236
6.98711 56.835
7.16591 56.5064
7.34475 106.636
7.5236 55.954
7.70247 57.0929
7.88135 58.6286
8.06026 63.3027
8.23919 70.3021
8.41812 86.7731
8.59709 1089.37
8.77609 102.552
8.9551 95.0954
9.13412 82.7629
9.31318 82.8847
9.49226 85.065
9.67134 103.142
9.85047 100.978
10.0296 331.443
10.2088 468.262
10.388 106.944
10.5672 497.104
10.7465 87.617
10.9257 79.997
11.105 72.8343
11.2844 72.4801
11.4637 65.6771
11.6431 64.6923
11.8225 63.2988
12.002 64.234
12.1814 147.011
12.3609 73.9597
12.5405 65.4447
12.72 72.0926
12.8996 71.6893
13.0792 79.3557
13.2589 224.172
13.4386 132.496
13.6183 231.4
13.7981 103.685
13.9779 76.5829
14.1577 73.6157
14.3376 73.3284
14.5175 69.4148
14.6974 71.3531
14.8774 107.98
15.0574 161.827
15.2374 73.1757
15.4175 67.1613
15.5976 66.6333
15.7778 93.5284
15.958 166.054
16.1382 64.5394
16.3185 59.8122
16.4988 56.2704
16.6792 55.2723
16.8596 56.0174
17.04 56.6131
17.2205 66.1431
17.401 73.9079
17.5815 59.9606
17.7622 61.8567
17.9428 73.6961
18.1237 137.951
18.3044 89.5693
18.4852 81.4004
18.666 61.2039
18.8469 58.6655
19.0278 57.6466
19.2088 60.1586
19.3898 77.053
19.5709 54.9614
19.752 53.9305
19.9332 56.8017
20.1144 70.3199
20.2957 63.6483
20.477 55.0245
20.6586 50.289
20.84 49.5281
21.0215 49.1832
21.203 51.1545
21.3846 49.7739
21.5662 49.3771
21.7479 52.7803
21.9297 64.9556
22.1115 56.2845
22.2933 50.4943
22.4753 49.6929
22.6572 49.3309
22.8393 52.1079
23.0214 58.5253
23.2037 49.5378
23.3859 50.138
23.5682 56.8657
23.7505 49.1996
23.9329 45.8531
24.1154 44.6754
24.2979 43.9494
24.4805 43.4727
24.6631 43.4337
24.8458 42.738
25.0286 43.2567
25.2114 45.0712
25.3943 45.3106
25.5773 41.4678
25.7605 41.0988
25.9436 41.2515
26.1268 42.2039
26.31 40.6357
26.4933 41.233
26.6767 42.5904
26.8601 40.9337
27.0437 39.2905
27.2272 39.0244
27.4109 38.8986
27.5946 38.8213
27.7784 38.2356
27.9623 38.6653
28.1462 39.3274
28.3304 37.8086
28.5145 36.3857
28.6987 36.1385
28.8829 35.7934
29.0673 35.075
29.2517 34.7552
29.4361 34.5825
29.6207 33.5227
29.8053 33.3008
29.99 32.8998
30.1748 32.8528
30.3597 32.7019
30.5447 32.5074
30.7297 32.6374
30.915 32.0272
31.1002 31.4235
31.2855 31.253
31.4708 31.2202
31.6563 30.7946
31.8418 30.4458
32.0275 30.2548
32.2132 29.7763
32.399 29.2441
32.5848 28.9541
32.7708 28.508
32.9569 28.3393
33.143 28.1467
33.3293 27.7166
33.5158 27.4693
33.7022 26.8286
33.8887 26.6359
34.0753 26.3681
34.262 26.0106
34.4488 25.6374
34.6357 25.3118
34.8227 24.9644
35.0098 24.809
35.1969 24.4651
35.3842 24.3318
35.5716 24.1074
35.759 23.7926
35.9468 23.3913
36.1345 23.2087
36.3222 22.9491
36.5101 22.6558
36.6981 22.398
36.8861 22.0713
37.0743 21.701
37.2626 21.5166
37.451 21.221
37.6395 21.0752
37.8281 20.7364
38.0168 20.4544
38.2056 20.2693
38.3945 20.0188
38.5837 19.7024
38.7728 19.4264
38.9621 19.1626
39.1514 18.97
39.3409 18.7394
39.5304 18.5573
39.7201 18.2822
39.9099 18.0405
40.0999 17.7962
40.2899 17.6163
40.48 17.3282
40.6703 17.2186
40.8607 16.9256
41.0512 16.7321
41.242 16.4855
41.4327 16.3257
41.6236 16.0826
41.8146 15.8471
42.0057 15.6355
42.1969 15.3904
42.3882 15.2629
42.5797 14.9979
42.7713 14.81
42.963 14.6095
43.1549 14.4208
43.3468 14.1697
43.5389 14.0045
43.7312 13.8228
43.9237 13.6505
44.1162 13.4304
44.3088 13.2649
44.5016 13.0873
44.6945 12.883
44.8875 12.6816
45.0806 12.5409
45.2739 12.3486
45.4673 12.1848
45.6609 12.03
45.8546 11.8098
46.0484 11.6966
46.2424 11.5033
46.4365 11.3626
46.631 11.1583
46.8254 10.9906
47.0199 10.8282
47.2146 10.6967
47.4095 10.4971
47.6044 10.3656
47.7996 10.2365
47.9948 10.074
48.1902 9.94648
48.3858 9.8164
48.5815 9.66573
48.7774 9.50847
48.9734 9.35794
49.1696 9.21962
49.3661 9.07934
49.5626 8.91569
49.7592 8.83218
49.956 8.70229
50.153 8.54154
50.3501 8.45369
50.5474 8.28732
50.7448 8.15908
50.9424 8.02746
51.1402 7.94822
51.3381 7.76575
51.5362 7.67374
51.7344 7.50721
51.9328 7.39852
52.1316 7.29775
52.3304 7.16983
52.5293 7.04545
52.7284 6.95637
52.9276 6.80786
53.1271 6.71083
53.3267 6.59221
53.5265 6.47402
53.7264 6.34441
53.9266 6.21634
54.1269 6.19699
54.3274 6.02782
54.528 5.89726
54.7289 5.72079
54.9301 5.54915
55.1314 5.46726
55.3328 5.21586
55.5344 4.99966
55.7361 4.8614

File: Ni3Fe_FD0539.xy
TT I
1.27165 7.28968
1.45013 6.59328
1.62863 5.19934
1.80712 4.93413
1.98562 5.47101
2.16411 5.12619
2.34263 5.50381
2.52115 6.72992
2.69965 8.00874
2.87818 8.90759
3.05672 11.1262
3.23527 15.3342
3.4138 19.5472
3.59237 24.5289
3.77094 26.9122
3.9495 29.9932
4.12809 35.9777
4.30669 294.422
4.4853 73.8105
4.6639 56.04
4.84253 67.1462
5.02118 87.2541
5.19981 370.184
5.37848 208.187
5.55716 103.563
5.73586 93.0891
5.91455 94.665
6.09328 4065.83
6.27201 85.8234
6.45075 68.1155
6.62952 64.1667
6.8083 59.6982
6.98711 56.9475
7.16591 56.3975
7.34475 108.039
7.5236 56.1752
7.70247 57.0541
7.88135 58.4183
8.06026 63.3686
8.23919 70.2078
8.41812 86.3889
8.59709 1085.51
8.77609 102.223
8.9551 95.1188
9.13412 82.7459
9.31318 83.1133
9.49226 85.2024
9.67134 103.257
9.85047 100.575
10.0296 328.851
10.2088 470.112
10.388 106.593
10.5672 496.269
10.7465 88.058
10.9257 79.8355
11.105 72.9651
11.2844 72.6835
11.4637 65.9031
11.6431 64.3048
11.8225 63.1861
12.002 64.276
12.1814 146.703
12.3609 73.9995
12.5405 65.5147
12.72 72.0631
12.8996 71.8725
13.0792 79.5219
13.2589 224.225
13.4386 133.299
13.6183 230.182
13.7981 103.987
13.9779 76.6779
14.1577 73.339
14.3376 73.2223
14.5175 69.6794
14.6974 71.3446
14.8774 107.806
15.0574 162.61
15.2374 72.8662
15.4175 67.0319
15.5976 66.3234
15.7778 93.3843
15.958 166.901
16.1382 64.3854
16.3185 59.8012
16.4988 56.447
16.6792 55.2674
16.8596 56.0629
17.04 56.3256
17.2205 66.3443
17.401 74.1039
17.5815 59.8536
17.7622 62.0383
17.9428 73.8615
18.1237 137.636
18.3044 89.2958
18.4852 81.4642
18.666 61.2788
18.8469 58.8306
19.0278 57.8064
19.2088 60.2133
19.3898 77.2485
19.5709 54.8414
19.752 53.9662
19.9332 56.7627
20.1144 70.2593
20.2957 63.5462
20.477 55.099
20.6586 50.2838
20.84 49.3335
21.0215 49.06
21.203 51.2278
21.3846 49.6424
21.5662 49.0929
21.7479 52.7958
21.9297 65.178
22.1115 56.5805
22.2933 50.7282
22.4753 49.5635
22.6572 49.2178
22.8393 52.2445
23.0214 58.417
23.2037 49.277
23.3859 50.1318
23.5682 56.6617
23.7505 49.1512
23.9329 45.9009
24.1154 44.5607
24.2979 44.0532
24.4805 43.3646
24.6631 43.3877
24.8458 42.6781
25.0286 43.1601
25.2114 45.0022
25.3943 45.2649
25.5773 41.3044
25.7605 40.8774
25.9436 41.1268
26.1268 42.1701
26.31 40.5941
26.4933 41.1681
26.6767 42.5821
26.8601 41.1011
27.0437 39.2886
27.2272 38.973
27.4109 38.808
27.5946 38.8919
27.7784 38.3344
27.9623 38.7265
28.1462 39.2425
28.3304 37.7207
28.5145 36.3522
28.6987 36.0397
28.8829 35.7859
29.0673 35.081
29.2517 34.7484
29.4361 34.5953
29.6207 33.5504
29.8053 33.3285
29.99 32.936
30.1748 32.8794
30.3597 32.5964
30.5447 32.5838
30.7297 32.5809
30.915 31.99
31.1002 31.5357
31.2855 31.2959
31.4708 31.2194
31.6563 30.7641
31.8418 30.4129
32.0275 30.2589
32.2132 29.7092
32.399 29.3045
32.5848 28.7897
32.7708 28.4704
32.9569 28.3576
33.143 28.1172
33.3293 27.7241
33.5158 27.4052
33.7022 26.9173
33.8887 26.6635
34.0753 26.3417
34.262 25.988
34.4488 25.5757
34.6357 25.3199
34.8227 25.0819
35.0098 24.7704
35.1969 24.5586
35.3842 24.3636
35.5716 24.1385
35.759 23.7338
35.9468 23.4133
36.1345 23.1776
36.3222 23.0537
36.5101 22.7404
36.6981 22.409
36.8861 22.1116
37.0743 21.7709
37.2626 21.4928
37.451 21.1934
37.6395 20.9903
37.8281 20.7446
38.0168 20.4525
38.2056 20.2076
38.3945 19.9601
38.5837 19.6819
38.7728 19.5143
38.9621 19.2605
39.1514 18.9539
39.3409 18.7593
39.5304 18.4535
39.7201 18.3528
39.9099 18.0834
40.0999 17.8506
40.2899 17.6115
40.48 17.3429
40.6703 17.1922
40.8607 16.9235
41.0512 16.7539
41.242 16.4653
41.4327 16.2631
41.6236 16.0363
41.8146 15.8578
42.0057 15.6295
42.1969 15.4488
42.3882 15.2145
42.5797 15.0284
42.7713 14.8111
42.963 14.6212
43.1549 14.4155
43.3468 14.1876
43.5389 14.0134
43.7312 13.8481
43.9237 13.627
44.1162 13.4009
44.3088 13.2983
44.5016 13.029
44.6945 12.9078
44.8875 12.7557
45.0806 12.5599
45.2739 12.3488
45.4673 12.2104
45.6609 12.0532
45.8546 11.862
46.0484 11.6764
46.2424 11.4845
46.4365 11.3511
46.631 11.1783
46.8254 10.9666
47.0199 10.8702
47.2146 10.7209
47.4095 10.5712
47.6044 10.4039
47.7996 10.2503
47.9948 10.0906
48.1902 9.8958
48.3858 9.77697
48.5815 9.67333
48.7774 9.52974
48.9734 9.37834
49.1696 9.23853
49.3661 9.10555
49.5626 8.9709
49.7592 8.80619
49.956 8.69113
50.153 8.57257
50.3501 8.44932
50.5474 8.30939
50.7448 8.17749
50.9424 8.05149
51.1402 7.90891
51.3381 7.78096
51.5362 7.67478
51.7344 7.51769
51.9328 7.39576
52.1316 7.24757
52.3304 7.20103
52.5293 7.0365
52.7284 6.95702
52.9276 6.80866
53.1271 6.70656
53.3267 6.58233
53.5265 6.46587
53.7264 6.37452
53.9266 6.23798
54.1269 6.10668
54.3274 6.01863
54.528 5.89272
54.7289 5.71602
54.9301 5.5852
55.1314 5.45971
55.3328 5.21898
55.5344 5.03003
55.7361 4.87993

File: Ni3Fe_FD0541.xy
TT I
1.27165 7.40286
1.45013 6.85944
1.62863 5.15246
1.80712 5.38018
1.98562 5.04663
2.16411 4.69801
2.34263 4.848
2.52115 6.79534
2.69965 7.8334
2.87818 9.23361
3.05672 10.9427
3.23527 14.9076
3.4138 19.3141
3.59237 24.8805
3.77094 26.8583
3.9495 30.59
4.12809 35.6578
4.30669 298.79
4.4853 73.9889
4.6639 55.889
4.84253 67.2246
5.02118 87.0713
5.19981 368.775
5.37848 210.13
5.55716 103.564
5.73586 92.7927
5.91455 94.9913
6.09328 4064.56
6.27201 85.7321
6.45075 68.6305
6.62952 64.219
6.8083 59.9766
6.98711 56.6734
7.16591 56.3771
7.34475 108.952
7.5236 56.0389
7.70247 56.9684
7.88135 58.8377
8.06026 62.9866
8.23919 70.4266
8.41812 86.6105
8.59709 1081.23
8.77609 102.197
8.9551 95.3099
9.13412 82.2854
9.31318 83.2663
9.49226 85.2822
9.67134 102.956
9.85047 100.514
10.0296 327.605
10.2088 470.435
10.388 106.907
10.5672 493.995
10.7465 88.0715
10.9257 80.2554
11.105 72.9942
11.2844 72.554
11.4637 65.9704
11.6431 64.503
11.8225 63.2163
12.002 64.1734
12.1814 145.555
12.3609 74.244
12.5405 65.5416
12.72 72.4272
12.8996 71.6289
13.0792 79.2544
13.2589 223.002
13.4386 133.638
13.6183 230.092
13.7981 104.242
13.9779 76.3628
14.1577 73.9323
14.3376 73.3351
14.5175 69.3468
14.6974 71.2674
14.8774 107.721
15.0574 163.28
15.2374 72.9043
15.4175 67.1519
15.5976 66.4885
15.7778 93.3887
15.958 167.432
16.1382 64.8374
16.3185 59.92
16.4988 56.2312
16.6792 55.2792
16.8596 56.0595
17.04 56.2762
17.2205 66.3952
17.401 74.2581
17.5815 59.8414
17.7622 61.8652
17.9428 73.7768
18.1237 137.61
18.3044 89.4088
18.4852 81.5757
18.666 61.2015
18.8469 58.7302
19.0278 57.5816
19.2088 60.1752
19.3898 77.0507
19.5709 55.0731
19.752 53.899
19.9332 56.6114
20.1144 70.3761
20.2957 63.7037
20.477 55.0271
20.6586 50.2589
20.84 49.4495
21.0215 49.1295
21.203 51.3221
21.3846 49.9388
21.5662 49.3227
21.7479 52.81
21.9297 65.0745
22.1115 56.5371
22.2933 50.6237
22.4753 49.6561
22.6572 49.2371
22.8393 52.1851
23.0214 58.4797
23.2037 49.426
23.3859 50.2141
23.5682 56.8344
23.7505 49.2896
23.9329 45.6813
24.1154 44.6863
24.2979 44.0652
24.4805 43.3997
24.6631 43.4185
24.8458 42.7578
25.0286 43.2686
25.2114 45.0149
25.3943 45.2033
25.5773 41.4466
25.7605 40.9335
25.9436 41.2121
26.1268 42.1515
26.31 40.6158
26.4933 41.0822
26.6767 42.6921
26.8601 41.0072
27.0437 39.3408
27.2272 39.0288
27.4109 38.8005
27.5946 38.8735
27.7784 38.1468
27.9623 38.7771
28.1462 39.3912
28.3304 37.6824
28.5145 36.4486
28.6987 35.9988
28.8829 35.8672
29.0673 35.1823
29.2517 34.718
29.4361 34.5456
29.6207 33.5899
29.8053 33.2646
29.99 32.9813
30.1748 32.8516
30.3597 32.6778
30.5447 32.4941
30.7297 32.5078
30.915 31.9574
31.1002 31.4352
31.2855 31.1809
31.4708 31.2561
31.6563 30.7598
31.8418 30.4942
32.0275 30.2795
32.2132 29.7
32.399 29.2729
32.5848 28.8386
32.7708 28.4689
32.9569 28.2623
33.143 28.0708
33.3293 27.828
33.5158 27.3716
33.7022 27.0254
33.8887 26.6014
34.0753 26.353
34.262 25.9772
34.4488 25.5758
34.6357 25.2648
34.8227 24.9731
35.0098 24.8333
35.1969 24.4853
35.3842 24.2173
35.5716 24.0589
35.759 23.7881
35.9468 23.4661
36.1345 23.0961
36.3222 22.9414
36.5101 22.706
36.6981 22.3997
36.8861 22.174
37.0743 21.7498
37.2626 21.5744
37.451 21.2448
37.6395 21.0349
37.8281 20.7755
38.0168 20.4623
38.2056 20.272
38.3945 19.9364
38.5837 19.7198
38.7728 19.4495
38.9621 19.3026
39.1514 18.9499
39.3409 18.7371
39.5304 18.4732
39.7201 18.2034
39.9099 18.0651
40.0999 17.7966
40.2899 17.5334
40.48 17.3584
40.6703 17.118
40.8607 16.9426
41.0512 16.746
41.242 16.4786
41.4327 16.237
41.6236 16.0389
41.8146 15.9202
42.0057 15.6214
42.1969 15.4036
42.3882 15.2687
42.5797 15.0503
42.7713 14.8447
42.963 14.5916
43.1549 14.4088
43.3468 14.2422
43.5389 13.9918
43.7312 13.8143
43.9237 13.6077
44.1162 13.4461
44.3088 13.2298
44.5016 13.0784
44.6945 12.8898
44.8875 12.7624
45.0806 12.5013
45.2739 12.3508
45.4673 12.198
45.6609 12.0243
45.8546 11.8485
46.0484 11.6763
46.2424 11.5125
46.4365 11.3762
46.631 11.141
46.8254 11.0251
47.0199 10.8726
47.2146 10.6841
47.4095 10.5455
47.6044 10.3649
47.7996 10.2007
47.9948 10.035
48.1902 9.94107
48.3858 9.77996
48.5815 9.63795
48.7774 9.52239
48.9734 9.38367
49.1696 9.26977
49.3661 9.07485
49.5626 8.94526
49.7592 8.81382
49.956 8.66793
50.153 8.5472
50.3501 8.43804
50.5474 8.2987
50.7448 8.16002
50.9424 8.01092
51.1402 7.92595
51.3381 7.78487
51.5362 7.68664
51.7344 7.52303
51.9328 7.39456
52.1316 7.25376
52.3304 7.18735
52.5293 7.00218
52.7284 6.94105
52.9276 6.80867
53.1271 6.70279
53.3267 6.61113
53.5265 6.464
53.7264 6.35636
53.9266 6.24876
54.1269 6.14895
54.3274 6.03373
54.528 5.88424
54.7289 5.71694
54.9301 5.56721
55.1314 5.46795
55.3328 5.26798
55.5344 5.01194
55.7361 4.90882