Folder: NiFe_MOF_catalyst_paper/XRD (part 113)

File: Ni3Fe_FD0612.xy
TT I
1.27165 7.45626
1.45013 6.78195
1.62863 5.42769
1.80712 5.49141
1.98562 4.84142
2.16411 5.0293
2.34263 6.04418
2.52115 6.45267
2.69965 7.7809
2.87818 8.98022
3.05672 11.168
3.23527 14.8216
3.4138 18.8512
3.59237 23.8775
3.77094 26.4216
3.9495 29.6376
4.12809 34.8962
4.30669 190.001
4.4853 63.3078
4.6639 55.5264
4.84253 67.654
5.02118 87.6486
5.19981 363.562
5.37848 195.28
5.55716 103.196
5.73586 92.8777
5.91455 95.0135
6.09328 4343.12
6.27201 84.0816
6.45075 67.5245
6.62952 63.0505
6.8083 58.6633
6.98711 55.7584
7.16591 54.933
7.34475 86.8997
7.5236 55.2238
7.70247 56.3956
7.88135 58.1733
8.06026 62.1107
8.23919 70.0522
8.41812 85.4516
8.59709 1210.34
8.77609 100.942
8.9551 91.2518
9.13412 82.5443
9.31318 83.2919
9.49226 85.2166
9.67134 97.9101
9.85047 99.9936
10.0296 347.373
10.2088 418.574
10.388 105.307
10.5672 510.193
10.7465 87.2789
10.9257 78.8296
11.105 72.2157
11.2844 70.4592
11.4637 65.4169
11.6431 63.8291
11.8225 62.9271
12.002 63.9397
12.1814 153.639
12.3609 70.5609
12.5405 64.7601
12.72 69.9396
12.8996 71.092
13.0792 79.2196
13.2589 243.616
13.4386 128.774
13.6183 250.405
13.7981 100.076
13.9779 76.5058
14.1577 72.7569
14.3376 71.7719
14.5175 69.4789
14.6974 70.8558
14.8774 112.654
15.0574 152.551
15.2374 71.327
15.4175 66.9653
15.5976 66.0686
15.7778 96.3022
15.958 156.008
16.1382 63.1212
16.3185 58.9998
16.4988 55.8972
16.6792 54.7929
16.8596 55.5195
17.04 56.1456
17.2205 67.4531
17.401 72.6321
17.5815 59.7423
17.7622 61.8091
17.9428 74.508
18.1237 138.474
18.3044 91.7085
18.4852 79.0946
18.666 60.729
18.8469 58.396
19.0278 57.3239
19.2088 59.9493
19.3898 76.0024
19.5709 54.5932
19.752 53.5799
19.9332 56.3793
20.1144 69.5832
20.2957 64.2263
20.477 54.2643
20.6586 50.106
20.84 49.0848
21.0215 48.9857
21.203 50.9679
21.3846 49.2388
21.5662 49.0058
21.7479 52.9621
21.9297 64.1523
22.1115 56.5617
22.2933 50.2161
22.4753 49.1439
22.6572 49.222
22.8393 52.1871
23.0214 57.5535
23.2037 49.0731
23.3859 50.1862
23.5682 57.0497
23.7505 48.8518
23.9329 45.5514
24.1154 44.3063
24.2979 43.6439
24.4805 43.2343
24.6631 43.0789
24.8458 42.3848
25.0286 42.9865
25.2114 44.8897
25.3943 44.7424
25.5773 41.1464
25.7605 40.6455
25.9436 41.0265
26.1268 41.9199
26.31 40.2988
26.4933 40.898
26.6767 42.2398
26.8601 40.7434
27.0437 39.1719
27.2272 38.7734
27.4109 38.6038
27.5946 38.6752
27.7784 38.0598
27.9623 38.6736
28.1462 39.02
28.3304 37.4062
28.5145 36.0888
28.6987 35.9168
28.8829 35.5657
29.0673 34.8966
29.2517 34.5399
29.4361 34.283
29.6207 33.3633
29.8053 33.0234
29.99 32.7644
30.1748 32.619
30.3597 32.4905
30.5447 32.2877
30.7297 32.4575
30.915 31.8976
31.1002 31.3707
31.2855 31.078
31.4708 31.0506
31.6563 30.5489
31.8418 30.3517
32.0275 30.165
32.2132 29.5747
32.399 29.1683
32.5848 28.6509
32.7708 28.3243
32.9569 28.2386
33.143 27.9312
33.3293 27.6143
33.5158 27.0878
33.7022 26.7612
33.8887 26.5174
34.0753 26.1173
34.262 25.7858
34.4488 25.4235
34.6357 25.0141
34.8227 24.8476
35.0098 24.6093
35.1969 24.4043
35.3842 24.2209
35.5716 23.9839
35.759 23.6155
35.9468 23.2779
36.1345 22.9955
36.3222 22.7454
36.5101 22.5246
36.6981 22.3503
36.8861 21.9538
37.0743 21.6659
37.2626 21.3632
37.451 21.1613
37.6395 20.929
37.8281 20.5565
38.0168 20.293
38.2056 20.0629
38.3945 19.8659
38.5837 19.6051
38.7728 19.3247
38.9621 19.0735
39.1514 18.7689
39.3409 18.5525
39.5304 18.3616
39.7201 18.1946
39.9099 17.9421
40.0999 17.7467
40.2899 17.4811
40.48 17.2369
40.6703 16.9821
40.8607 16.8578
41.0512 16.6639
41.242 16.352
41.4327 16.1578
41.6236 15.9414
41.8146 15.7694
42.0057 15.4988
42.1969 15.3025
42.3882 15.1568
42.5797 14.9347
42.7713 14.694
42.963 14.4518
43.1549 14.2755
43.3468 14.0411
43.5389 13.9246
43.7312 13.7284
43.9237 13.5564
44.1162 13.3652
44.3088 13.183
44.5016 12.9759
44.6945 12.8236
44.8875 12.6814
45.0806 12.4368
45.2739 12.2924
45.4673 12.1359
45.6609 11.9583
45.8546 11.7243
46.0484 11.6092
46.2424 11.378
46.4365 11.2608
46.631 11.1264
46.8254 10.9159
47.0199 10.7695
47.2146 10.6308
47.4095 10.4583
47.6044 10.2761
47.7996 10.123
47.9948 9.98162
48.1902 9.85454
48.3858 9.70968
48.5815 9.56465
48.7774 9.45805
48.9734 9.30171
49.1696 9.14297
49.3661 9.01834
49.5626 8.82823
49.7592 8.73881
49.956 8.61691
50.153 8.47434
50.3501 8.32335
50.5474 8.21337
50.7448 8.10064
50.9424 7.96919
51.1402 7.84744
51.3381 7.70083
51.5362 7.60546
51.7344 7.48877
51.9328 7.35084
52.1316 7.19462
52.3304 7.1004
52.5293 7.0198
52.7284 6.87041
52.9276 6.73044
53.1271 6.65761
53.3267 6.54856
53.5265 6.39033
53.7264 6.29169
53.9266 6.20598
54.1269 6.08602
54.3274 5.99211
54.528 5.80051
54.7289 5.71613
54.9301 5.52193
55.1314 5.43242
55.3328 5.13069
55.5344 4.9898
55.7361 4.90288

File: Ni3Fe_FD0613.xy
TT I
1.27165 7.91561
1.45013 5.99777
1.62863 6.09119
1.80712 4.84833
1.98562 4.72088
2.16411 4.67963
2.34263 5.70179
2.52115 7.13539
2.69965 7.9997
2.87818 8.5565
3.05672 10.8096
3.23527 15.3413
3.4138 19.1765
3.59237 23.6505
3.77094 26.137
3.9495 29.3841
4.12809 35.0036
4.30669 193.052
4.4853 63.0586
4.6639 55.4719
4.84253 67.3737
5.02118 87.3401
5.19981 359.856
5.37848 195.483
5.55716 102.697
5.73586 92.7347
5.91455 94.5327
6.09328 4356.97
6.27201 83.2912
6.45075 67.4835
6.62952 62.7859
6.8083 58.289
6.98711 55.854
7.16591 55.042
7.34475 87.0755
7.5236 54.946
7.70247 56.2315
7.88135 57.9718
8.06026 62.2026
8.23919 69.6122
8.41812 85.3279
8.59709 1201.09
8.77609 100.809
8.9551 90.9859
9.13412 82.5816
9.31318 82.9796
9.49226 84.9184
9.67134 98.0042
9.85047 100.021
10.0296 344.912
10.2088 424.343
10.388 104.908
10.5672 502.77
10.7465 86.8601
10.9257 78.6142
11.105 71.9391
11.2844 70.3354
11.4637 65.1667
11.6431 63.8345
11.8225 62.6644
12.002 63.9536
12.1814 153.153
12.3609 70.5211
12.5405 64.7391
12.72 69.6653
12.8996 71.3099
13.0792 79.1255
13.2589 241.987
13.4386 129.18
13.6183 249.905
13.7981 100.319
13.9779 76.386
14.1577 72.64
14.3376 71.8182
14.5175 69.1488
14.6974 70.696
14.8774 112.134
15.0574 153.322
15.2374 71.0768
15.4175 66.7021
15.5976 66.0636
15.7778 96.1968
15.958 156.096
16.1382 62.8383
16.3185 58.7697
16.4988 55.6375
16.6792 54.818
16.8596 55.2693
17.04 55.9948
17.2205 67.1106
17.401 72.9218
17.5815 59.5122
17.7622 61.4643
17.9428 74.1492
18.1237 139.202
18.3044 91.4361
18.4852 79.153
18.666 60.536
18.8469 58.4152
19.0278 57.1764
19.2088 59.8758
19.3898 76.0689
19.5709 54.6859
19.752 53.7999
19.9332 56.3655
20.1144 69.4952
20.2957 64.1517
20.477 54.091
20.6586 49.9408
20.84 49.044
21.0215 48.828
21.203 51.022
21.3846 49.0942
21.5662 49.0281
21.7479 52.9705
21.9297 64.3405
22.1115 56.3943
22.2933 50.3171
22.4753 49.1418
22.6572 48.998
22.8393 52.1633
23.0214 57.4924
23.2037 49.0584
23.3859 49.8711
23.5682 56.9731
23.7505 48.9449
23.9329 45.4066
24.1154 44.3351
24.2979 43.6583
24.4805 43.1628
24.6631 42.9981
24.8458 42.5512
25.0286 43.0965
25.2114 44.8568
25.3943 44.6236
25.5773 41.2198
25.7605 40.6467
25.9436 41.2205
26.1268 41.8715
26.31 40.2864
26.4933 41.0163
26.6767 42.3931
26.8601 40.6914
27.0437 39.1296
27.2272 38.7671
27.4109 38.6402
27.5946 38.5044
27.7784 38.0445
27.9623 38.5667
28.1462 39.0912
28.3304 37.3722
28.5145 36.1096
28.6987 35.8542
28.8829 35.5505
29.0673 34.7582
29.2517 34.5367
29.4361 34.2627
29.6207 33.2814
29.8053 33.0954
29.99 32.682
30.1748 32.612
30.3597 32.4865
30.5447 32.443
30.7297 32.3539
30.915 31.8791
31.1002 31.2717
31.2855 31.0578
31.4708 31.031
31.6563 30.6174
31.8418 30.3506
32.0275 30.1236
32.2132 29.5052
32.399 28.9973
32.5848 28.6417
32.7708 28.4236
32.9569 28.1471
33.143 28.0785
33.3293 27.5188
33.5158 27.2193
33.7022 26.7729
33.8887 26.5078
34.0753 26.1329
34.262 25.8509
34.4488 25.4719
34.6357 25.0901
34.8227 24.7769
35.0098 24.6476
35.1969 24.3717
35.3842 24.0624
35.5716 23.9136
35.759 23.717
35.9468 23.237
36.1345 23.0467
36.3222 22.7546
36.5101 22.5882
36.6981 22.2768
36.8861 21.9328
37.0743 21.6768
37.2626 21.4096
37.451 21.136
37.6395 20.9361
37.8281 20.6618
38.0168 20.3032
38.2056 20.0857
38.3945 19.8259
38.5837 19.5879
38.7728 19.34
38.9621 19.0527
39.1514 18.8585
39.3409 18.5682
39.5304 18.3486
39.7201 18.1382
39.9099 17.966
40.0999 17.707
40.2899 17.4652
40.48 17.2574
40.6703 17.0799
40.8607 16.8318
41.0512 16.6485
41.242 16.3482
41.4327 16.1478
41.6236 15.9721
41.8146 15.7845
42.0057 15.4873
42.1969 15.3192
42.3882 15.1135
42.5797 14.9032
42.7713 14.7115
42.963 14.4997
43.1549 14.3432
43.3468 14.0752
43.5389 13.9363
43.7312 13.7311
43.9237 13.5316
44.1162 13.3381
44.3088 13.1415
44.5016 12.9418
44.6945 12.7715
44.8875 12.6354
45.0806 12.4349
45.2739 12.2997
45.4673 12.11
45.6609 11.9326
45.8546 11.763
46.0484 11.5844
46.2424 11.4401
46.4365 11.2634
46.631 11.083
46.8254 10.8925
47.0199 10.7331
47.2146 10.613
47.4095 10.42
47.6044 10.3324
47.7996 10.1287
47.9948 10.0077
48.1902 9.86442
48.3858 9.72535
48.5815 9.5863
48.7774 9.4498
48.9734 9.32239
49.1696 9.16533
49.3661 9.02788
49.5626 8.86666
49.7592 8.75949
49.956 8.62419
50.153 8.49385
50.3501 8.35773
50.5474 8.24084
50.7448 8.12466
50.9424 7.98691
51.1402 7.85006
51.3381 7.7092
51.5362 7.59456
51.7344 7.44879
51.9328 7.33514
52.1316 7.19528
52.3304 7.0953
52.5293 6.99225
52.7284 6.87439
52.9276 6.76332
53.1271 6.64216
53.3267 6.57164
53.5265 6.37001
53.7264 6.29019
53.9266 6.1822
54.1269 6.06777
54.3274 6.00329
54.528 5.79344
54.7289 5.70972
54.9301 5.514
55.1314 5.42197
55.3328 5.15588
55.5344 5.0468
55.7361 4.8043

File: Ni3Fe_FD0614.xy
TT I
1.27165 7.38566
1.45013 5.64521
1.62863 5.62737
1.80712 4.96517
1.98562 4.39186
2.16411 5.16751
2.34263 4.72372
2.52115 6.51562
2.69965 8.05481
2.87818 8.02368
3.05672 11.3371
3.23527 15.0188
3.4138 19.4678
3.59237 24.227
3.77094 25.9936
3.9495 30.0564
4.12809 35.4477
4.30669 194.863
4.4853 64.0185
4.6639 55.8083
4.84253 67.5677
5.02118 87.5889
5.19981 359.741
5.37848 193.603
5.55716 103.206
5.73586 93.3946
5.91455 94.8369
6.09328 4372.59
6.27201 83.8368
6.45075 67.4499
6.62952 63.0163
6.8083 58.7318
6.98711 56.0284
7.16591 55.722
7.34475 87.2335
7.5236 55.0846
7.70247 56.3909
7.88135 58.0768
8.06026 62.4068
8.23919 69.8741
8.41812 85.8005
8.59709 1207.17
8.77609 100.958
8.9551 91.6052
9.13412 82.7866
9.31318 83.2749
9.49226 85.2089
9.67134 98.2035
9.85047 100.432
10.0296 345.928
10.2088 414.881
10.388 105.015
10.5672 509.986
10.7465 87.4691
10.9257 78.6911
11.105 72.2977
11.2844 70.3714
11.4637 65.2519
11.6431 63.9502
11.8225 62.7527
12.002 63.7977
12.1814 153.535
12.3609 70.8591
12.5405 64.6735
12.72 69.9469
12.8996 71.2614
13.0792 79.1528
13.2589 242.393
13.4386 128.068
13.6183 250.516
13.7981 99.436
13.9779 76.4791
14.1577 72.9452
14.3376 71.6968
14.5175 69.2556
14.6974 70.9253
14.8774 112.276
15.0574 152.156
15.2374 71.273
15.4175 66.7604
15.5976 66.1197
15.7778 96.2062
15.958 155.14
16.1382 62.9351
16.3185 58.9628
16.4988 55.9678
16.6792 54.9229
16.8596 55.5686
17.04 56.2093
17.2205 67.1592
17.401 72.3841
17.5815 59.6093
17.7622 61.7519
17.9428 74.2004
18.1237 139.094
18.3044 91.6796
18.4852 78.8654
18.666 60.7036
18.8469 58.3828
19.0278 57.1898
19.2088 59.9384
19.3898 76.0238
19.5709 54.4785
19.752 53.566
19.9332 56.4592
20.1144 69.6039
20.2957 64.1376
20.477 54.2349
20.6586 49.9797
20.84 49.1441
21.0215 48.9812
21.203 51.1563
21.3846 49.2603
21.5662 49.0608
21.7479 53.1908
21.9297 64.4022
22.1115 56.41
22.2933 50.3295
22.4753 49.1061
22.6572 49.2074
22.8393 52.2426
23.0214 57.4381
23.2037 49.1414
23.3859 50.1039
23.5682 57.1176
23.7505 48.8012
23.9329 45.5144
24.1154 44.4676
24.2979 43.8022
24.4805 43.2413
24.6631 43.1117
24.8458 42.6018
25.0286 43.1231
25.2114 44.8878
25.3943 44.8222
25.5773 41.179
25.7605 40.6648
25.9436 41.0695
26.1268 41.9558
26.31 40.5087
26.4933 41.0258
26.6767 42.2971
26.8601 40.8303
27.0437 39.0425
27.2272 38.7538
27.4109 38.6013
27.5946 38.6214
27.7784 38.0813
27.9623 38.6062
28.1462 38.9596
28.3304 37.4243
28.5145 36.1844
28.6987 35.8953
28.8829 35.5684
29.0673 34.8533
29.2517 34.5159
29.4361 34.282
29.6207 33.2995
29.8053 33.1519
29.99 32.8939
30.1748 32.6081
30.3597 32.4966
30.5447 32.3682
30.7297 32.4269
30.915 31.7606
31.1002 31.3287
31.2855 31.0502
31.4708 30.9728
31.6563 30.5443
31.8418 30.356
32.0275 30.0924
32.2132 29.5091
32.399 29.1182
32.5848 28.6315
32.7708 28.3345
32.9569 28.1663
33.143 27.9696
33.3293 27.6486
33.5158 27.2226
33.7022 26.7622
33.8887 26.5096
34.0753 26.156
34.262 25.7828
34.4488 25.4975
34.6357 25.1859
34.8227 24.8655
35.0098 24.6301
35.1969 24.3779
35.3842 24.0943
35.5716 23.928
35.759 23.5529
35.9468 23.2677
36.1345 23.0927
36.3222 22.82
36.5101 22.5407
36.6981 22.215
36.8861 21.9486
37.0743 21.7051
37.2626 21.3945
37.451 21.1254
37.6395 20.9063
37.8281 20.613
38.0168 20.2997
38.2056 20.1219
38.3945 19.8402
38.5837 19.5626
38.7728 19.3206
38.9621 19.0552
39.1514 18.9063
39.3409 18.5856
39.5304 18.3497
39.7201 18.1815
39.9099 17.9974
40.0999 17.7299
40.2899 17.4693
40.48 17.2308
40.6703 17.0374
40.8607 16.8597
41.0512 16.5389
41.242 16.3642
41.4327 16.1758
41.6236 15.9071
41.8146 15.7758
42.0057 15.5047
42.1969 15.3429
42.3882 15.1325
42.5797 14.8823
42.7713 14.7376
42.963 14.5463
43.1549 14.3559
43.3468 14.0854
43.5389 13.9153
43.7312 13.6643
43.9237 13.5478
44.1162 13.3656
44.3088 13.1552
44.5016 12.9677
44.6945 12.8137
44.8875 12.7112
45.0806 12.4486
45.2739 12.2941
45.4673 12.1042
45.6609 11.9496
45.8546 11.7809
46.0484 11.601
46.2424 11.4301
46.4365 11.2981
46.631 11.097
46.8254 10.9457
47.0199 10.7859
47.2146 10.6163
47.4095 10.4408
47.6044 10.2609
47.7996 10.1581
47.9948 10.0059
48.1902 9.8552
48.3858 9.71594
48.5815 9.59145
48.7774 9.44836
48.9734 9.31019
49.1696 9.16781
49.3661 9.016
49.5626 8.85153
49.7592 8.73527
49.956 8.61665
50.153 8.50629
50.3501 8.34008
50.5474 8.2526
50.7448 8.12878
50.9424 7.98079
51.1402 7.87219
51.3381 7.71258
51.5362 7.61876
51.7344 7.47083
51.9328 7.34804
52.1316 7.18095
52.3304 7.13922
52.5293 6.99
52.7284 6.8573
52.9276 6.78846
53.1271 6.68676
53.3267 6.53166
53.5265 6.39904
53.7264 6.36194
53.9266 6.18159
54.1269 6.0654
54.3274 5.96538
54.528 5.80056
54.7289 5.70961
54.9301 5.49575
55.1314 5.42467
55.3328 5.17579
55.5344 5.02363
55.7361 4.86276

File: Ni3Fe_FD0615.xy
TT I
1.27165 7.89802
1.45013 6.0831
1.62863 5.36918
1.80712 4.98492
1.98562 4.34578
2.16411 4.63291
2.34263 4.84717
2.52115 7.02185
2.69965 8.49481
2.87818 8.35948
3.05672 11.0959
3.23527 14.7085
3.4138 18.7124
3.59237 24.1661
3.77094 26.0668
3.9495 29.9843
4.12809 35.2767
4.30669 198.763
4.4853 63.8318
4.6639 55.8468
4.84253 67.5049
5.02118 87.7502
5.19981 357.268
5.37848 195.2
5.55716 103.061
5.73586 92.9773
5.91455 95.1919
6.09328 4395.23
6.27201 84.0313
6.45075 67.5032
6.62952 63.0497
6.8083 58.7385
6.98711 56.3575
7.16591 55.5996
7.34475 87.9018
7.5236 55.0186
7.70247 56.4558
7.88135 58.6123
8.06026 62.6847
8.23919 69.9552
8.41812 85.6776
8.59709 1205.62
8.77609 100.464
8.9551 91.584
9.13412 82.7708
9.31318 83.108
9.49226 85.3961
9.67134 98.7716
9.85047 100.544
10.0296 345.035
10.2088 413.494
10.388 105.216
10.5672 504.285
10.7465 87.7107
10.9257 78.7151
11.105 72.4676
11.2844 70.614
11.4637 65.18
11.6431 63.7981
11.8225 63.1414
12.002 63.9814
12.1814 153.862
12.3609 70.6145
12.5405 64.8771
12.72 70.0149
12.8996 71.3094
13.0792 79.2867
13.2589 242.122
13.4386 128.582
13.6183 249.66
13.7981 99.9067
13.9779 76.4123
14.1577 72.7088
14.3376 72.1228
14.5175 69.1135
14.6974 70.8591
14.8774 112.657
15.0574 151.825
15.2374 71.3262
15.4175 66.8699
15.5976 66.0476
15.7778 96.0188
15.958 155.768
16.1382 63.0669
16.3185 59.3314
16.4988 55.7137
16.6792 54.8917
16.8596 55.4559
17.04 56.3945
17.2205 67.3561
17.401 72.4037
17.5815 59.6875
17.7622 61.81
17.9428 74.3359
18.1237 138.781
18.3044 91.6189
18.4852 78.6693
18.666 60.6704
18.8469 58.5598
19.0278 57.3511
19.2088 60.0098
19.3898 76.155
19.5709 54.7499
19.752 53.7209
19.9332 56.7527
20.1144 69.7256
20.2957 64.2259
20.477 54.229
20.6586 49.9564
20.84 49.08
21.0215 48.7964
21.203 51.2206
21.3846 49.067
21.5662 48.9708
21.7479 53.0582
21.9297 64.525
22.1115 56.3546
22.2933 50.1899
22.4753 49.2291
22.6572 49.0197
22.8393 52.3799
23.0214 57.5984
23.2037 48.9962
23.3859 50.0526
23.5682 57.1271
23.7505 48.804
23.9329 45.4637
24.1154 44.2911
24.2979 43.6835
24.4805 43.1028
24.6631 42.901
24.8458 42.4012
25.0286 43.2755
25.2114 44.9514
25.3943 44.7331
25.5773 41.1813
25.7605 40.7134
25.9436 41.1018
26.1268 41.7574
26.31 40.4089
26.4933 41.0055
26.6767 42.3085
26.8601 40.6021
27.0437 39.2391
27.2272 38.7649
27.4109 38.51
27.5946 38.6086
27.7784 38.0706
27.9623 38.6854
28.1462 39.0197
28.3304 37.4463
28.5145 36.1895
28.6987 35.8001
28.8829 35.5665
29.0673 34.8017
29.2517 34.5228
29.4361 34.405
29.6207 33.3618
29.8053 33.0811
29.99 32.8877
30.1748 32.5959
30.3597 32.4563
30.5447 32.322
30.7297 32.4076
30.915 31.7801
31.1002 31.2933
31.2855 31.1103
31.4708 30.9538
31.6563 30.6217
31.8418 30.2511
32.0275 30.105
32.2132 29.573
32.399 29.0755
32.5848 28.6036
32.7708 28.4216
32.9569 28.2466
33.143 27.9411
33.3293 27.611
33.5158 27.14
33.7022 26.705
33.8887 26.4837
34.0753 26.124
34.262 25.8395
34.4488 25.4693
34.6357 25.1904
34.8227 24.8058
35.0098 24.6592
35.1969 24.3271
35.3842 24.187
35.5716 24.0144
35.759 23.616
35.9468 23.2122
36.1345 23.0195
36.3222 22.8068
36.5101 22.5963
36.6981 22.267
36.8861 21.9616
37.0743 21.6614
37.2626 21.4252
37.451 21.1705
37.6395 20.9671
37.8281 20.6207
38.0168 20.3378
38.2056 20.0741
38.3945 19.8315
38.5837 19.653
38.7728 19.3136
38.9621 19.1334
39.1514 18.8282
39.3409 18.66
39.5304 18.3466
39.7201 18.1686
39.9099 17.9617
40.0999 17.7191
40.2899 17.4715
40.48 17.2878
40.6703 17.0294
40.8607 16.8079
41.0512 16.6396
41.242 16.3765
41.4327 16.2082
41.6236 16.0181
41.8146 15.7319
42.0057 15.5304
42.1969 15.2568
42.3882 15.1207
42.5797 14.8859
42.7713 14.74
42.963 14.5133
43.1549 14.3638
43.3468 14.0963
43.5389 13.9045
43.7312 13.757
43.9237 13.4822
44.1162 13.3381
44.3088 13.1747
44.5016 12.985
44.6945 12.8196
44.8875 12.643
45.0806 12.425
45.2739 12.2659
45.4673 12.1037
45.6609 11.9381
45.8546 11.7863
46.0484 11.6046
46.2424 11.4494
46.4365 11.2923
46.631 11.0903
46.8254 10.9278
47.0199 10.7732
47.2146 10.6239
47.4095 10.4514
47.6044 10.2943
47.7996 10.1754
47.9948 10.0126
48.1902 9.85471
48.3858 9.72288
48.5815 9.59137
48.7774 9.46279
48.9734 9.31694
49.1696 9.14301
49.3661 9.01298
49.5626 8.85958
49.7592 8.77442
49.956 8.62633
50.153 8.50688
50.3501 8.36446
50.5474 8.18789
50.7448 8.10895
50.9424 7.98803
51.1402 7.86779
51.3381 7.70088
51.5362 7.62854
51.7344 7.47419
51.9328 7.35423
52.1316 7.20366
52.3304 7.0943
52.5293 6.97793
52.7284 6.91383
52.9276 6.75904
53.1271 6.66464
53.3267 6.52082
53.5265 6.4078
53.7264 6.3499
53.9266 6.19342
54.1269 6.13081
54.3274 5.98533
54.528 5.8692
54.7289 5.67972
54.9301 5.53289
55.1314 5.38094
55.3328 5.13432
55.5344 5.00282
55.7361 4.81402

File: Ni3Fe_FD0616.xy
TT I
1.27165 7.93208
1.45013 6.28381
1.62863 5.57895
1.80712 4.35962
1.98562 5.11237
2.16411 4.83934
2.34263 5.68728
2.52115 6.99135
2.69965 7.91089
2.87818 8.79366
3.05672 10.6775
3.23527 14.9378
3.4138 18.7611
3.59237 24.2513
3.77094 26.3721
3.9495 29.8627
4.12809 34.9295
4.30669 201.512
4.4853 64.5599
4.6639 55.1821
4.84253 67.7139
5.02118 87.4659
5.19981 354.96
5.37848 195.372
5.55716 102.786
5.73586 93.3747
5.91455 94.9991
6.09328 4353.31
6.27201 83.6635
6.45075 67.3168
6.62952 62.9996
6.8083 58.9004
6.98711 55.7053
7.16591 55.3846
7.34475 89.2793
7.5236 55.2423
7.70247 56.3811
7.88135 57.8329
8.06026 62.4794
8.23919 70.0583
8.41812 85.2907
8.59709 1194.5
8.77609 100.519
8.9551 91.5884
9.13412 82.2251
9.31318 82.8073
9.49226 84.8531
9.67134 98.3853
9.85047 100.535
10.0296 342.383
10.2088 419.176
10.388 105.04
10.5672 504.707
10.7465 86.9861
10.9257 78.742
11.105 72.224
11.2844 70.4815
11.4637 65.264
11.6431 63.8264
11.8225 62.7105
12.002 63.7402
12.1814 153.016
12.3609 70.7465
12.5405 64.8006
12.72 69.9637
12.8996 71.564
13.0792 79.1843
13.2589 240.912
13.4386 128.771
13.6183 248.665
13.7981 100.132
13.9779 76.0111
14.1577 72.8031
14.3376 71.8253
14.5175 69.2732
14.6974 70.9194
14.8774 111.926
15.0574 152.734
15.2374 71.2779
15.4175 66.7835
15.5976 65.9957
15.7778 95.9765
15.958 155.634
16.1382 63.0617
16.3185 58.8853
16.4988 55.8954
16.6792 54.8347
16.8596 55.4116
17.04 55.9587
17.2205 67.3452
17.401 72.7767
17.5815 59.5742
17.7622 61.8214
17.9428 74.2744
18.1237 139.168
18.3044 91.2836
18.4852 78.5909
18.666 60.9661
18.8469 58.3704
19.0278 57.12
19.2088 60.0625
19.3898 76.4213
19.5709 54.4181
19.752 53.6256
19.9332 56.5304
20.1144 69.7816
20.2957 64.0218
20.477 54.1847
20.6586 49.933
20.84 48.9439
21.0215 48.8385
21.203 51.0015
21.3846 49.1699
21.5662 49.1453
21.7479 52.8662
21.9297 64.5008
22.1115 56.266
22.2933 50.2548
22.4753 49.0741
22.6572 49.1193
22.8393 52.145
23.0214 57.6113
23.2037 49.0767
23.3859 50.0671
23.5682 56.9871
23.7505 48.7202
23.9329 45.3836
24.1154 44.2963
24.2979 43.5682
24.4805 43.1425
24.6631 43.0812
24.8458 42.4999
25.0286 43.1135
25.2114 44.8577
25.3943 44.749
25.5773 41.2177
25.7605 40.6827
25.9436 40.9984
26.1268 41.9252
26.31 40.3828
26.4933 41.0401
26.6767 42.3703
26.8601 40.6483
27.0437 39.2065
27.2272 38.834
27.4109 38.6111
27.5946 38.5948
27.7784 38.0436
27.9623 38.6917
28.1462 38.9836
28.3304 37.4042
28.5145 36.0561
28.6987 35.8376
28.8829 35.7802
29.0673 34.8368
29.2517 34.541
29.4361 34.2688
29.6207 33.3127
29.8053 33.1445
29.99 32.6768
30.1748 32.5235
30.3597 32.3269
30.5447 32.2697
30.7297 32.4692
30.915 31.7939
31.1002 31.4004
31.2855 30.9989
31.4708 31.021
31.6563 30.6019
31.8418 30.3667
32.0275 30.1099
32.2132 29.6137
32.399 29.1576
32.5848 28.6666
32.7708 28.372
32.9569 28.1868
33.143 27.9647
33.3293 27.6168
33.5158 27.2278
33.7022 26.7848
33.8887 26.5235
34.0753 26.2044
34.262 25.8213
34.4488 25.4713
34.6357 25.096
34.8227 24.8706
35.0098 24.6481
35.1969 24.2831
35.3842 24.2224
35.5716 23.9516
35.759 23.6533
35.9468 23.257
36.1345 23.0232
36.3222 22.7328
36.5101 22.5294
36.6981 22.2229
36.8861 21.9888
37.0743 21.6328
37.2626 21.3704
37.451 21.0615
37.6395 20.9811
37.8281 20.59
38.0168 20.297
38.2056 20.0882
38.3945 19.8544
38.5837 19.5219
38.7728 19.3621
38.9621 19.097
39.1514 18.8544
39.3409 18.5509
39.5304 18.3543
39.7201 18.1778
39.9099 17.9071
40.0999 17.6858
40.2899 17.4375
40.48 17.2508
40.6703 17.0053
40.8607 16.8566
41.0512 16.589
41.242 16.349
41.4327 16.1184
41.6236 15.9875
41.8146 15.7246
42.0057 15.5015
42.1969 15.2923
42.3882 15.1312
42.5797 14.9104
42.7713 14.7266
42.963 14.5245
43.1549 14.3378
43.3468 14.0684
43.5389 13.915
43.7312 13.6918
43.9237 13.5615
44.1162 13.369
44.3088 13.1912
44.5016 13.0016
44.6945 12.7867
44.8875 12.6682
45.0806 12.438
45.2739 12.3116
45.4673 12.1412
45.6609 11.9009
45.8546 11.7381
46.0484 11.599
46.2424 11.4148
46.4365 11.2581
46.631 11.1054
46.8254 10.9443
47.0199 10.8138
47.2146 10.6389
47.4095 10.4545
47.6044 10.3225
47.7996 10.173
47.9948 10.0407
48.1902 9.84841
48.3858 9.73584
48.5815 9.58603
48.7774 9.48377
48.9734 9.25294
49.1696 9.14911
49.3661 9.00154
49.5626 8.87706
49.7592 8.75314
49.956 8.61322
50.153 8.47388
50.3501 8.3478
50.5474 8.20531
50.7448 8.11676
50.9424 7.96268
51.1402 7.83945
51.3381 7.72457
51.5362 7.58324
51.7344 7.46602
51.9328 7.37428
52.1316 7.21538
52.3304 7.12283
52.5293 6.98425
52.7284 6.87313
52.9276 6.76217
53.1271 6.67498
53.3267 6.5384
53.5265 6.41226
53.7264 6.29162
53.9266 6.1768
54.1269 6.13207
54.3274 5.98868
54.528 5.77397
54.7289 5.66646
54.9301 5.50564
55.1314 5.35906
55.3328 5.17964
55.5344 4.98871
55.7361 4.86855