Folder: NiFe_MOF_catalyst_paper/XRD (part 40)

File: Ni3Fe_FD0205.xy
TT I
1.27165 8.07787
1.45013 6.68834
1.62863 5.69577
1.80712 5.28801
1.98562 5.08163
2.16411 5.38821
2.34263 4.44975
2.52115 4.63589
2.69965 5.92812
2.87818 8.01852
3.05672 10.8212
3.23527 15.1382
3.4138 18.7948
3.59237 22.3318
3.77094 26.2623
3.9495 30.1402
4.12809 35.3345
4.30669 40.8271
4.4853 48.8501
4.6639 58.3929
4.84253 71.9322
5.02118 97.2905
5.19981 882.943
5.37848 290.492
5.55716 113.652
5.73586 101.922
5.91455 111.679
6.09328 3512.49
6.27201 89.8407
6.45075 71.026
6.62952 64.1336
6.8083 59.9338
6.98711 57.6138
7.16591 56.2921
7.34475 56.4286
7.5236 57.3978
7.70247 58.2318
7.88135 60.5146
8.06026 65.3431
8.23919 73.3158
8.41812 91.159
8.59709 1034.51
8.77609 112.499
8.9551 91.2544
9.13412 87.1825
9.31318 88.7791
9.49226 90.2913
9.67134 95.7937
9.85047 107.356
10.0296 528.981
10.2088 612.658
10.388 114.47
10.5672 429.85
10.7465 93.3379
10.9257 80.5552
11.105 74.969
11.2844 70.8519
11.4637 67.8628
11.6431 66.1827
11.8225 65.6942
12.002 68.8195
12.1814 137.109
12.3609 70.944
12.5405 67.4828
12.72 69.7568
12.8996 74.8944
13.0792 86.0899
13.2589 224.536
13.4386 154.854
13.6183 220.14
13.7981 116.45
13.9779 80.3233
14.1577 76.1424
14.3376 73.3837
14.5175 73.072
14.6974 74.6405
14.8774 119.136
15.0574 178.515
15.2374 72.6497
15.4175 70.0191
15.5976 70.1351
15.7778 103.57
15.958 178.775
16.1382 64.2234
16.3185 60.5378
16.4988 58.151
16.6792 57.2819
16.8596 57.6851
17.04 59.1573
17.2205 68.8468
17.401 78.875
17.5815 62.4831
17.7622 64.841
17.9428 83.7205
18.1237 136.468
18.3044 89.9845
18.4852 85.9293
18.666 63.7878
18.8469 61.2752
19.0278 60.0039
19.2088 63.2733
19.3898 76.2207
19.5709 57.4599
19.752 56.3312
19.9332 59.9217
20.1144 72.2129
20.2957 64.3306
20.477 57.4928
20.6586 52.3535
20.84 51.5437
21.0215 51.3922
21.203 52.5423
21.3846 52.0866
21.5662 51.8938
21.7479 55.6553
21.9297 66.6927
22.1115 57.8181
22.2933 52.9353
22.4753 51.1018
22.6572 52.2007
22.8393 54.1987
23.0214 60.1302
23.2037 51.6472
23.3859 52.7375
23.5682 57.3769
23.7505 51.6806
23.9329 47.7246
24.1154 46.3936
24.2979 45.6587
24.4805 45.141
24.6631 45.0092
24.8458 44.6448
25.0286 45.1654
25.2114 46.5557
25.3943 46.7692
25.5773 43.1549
25.7605 42.6044
25.9436 42.8221
26.1268 43.4833
26.31 42.2416
26.4933 42.6774
26.6767 43.9866
26.8601 42.5305
27.0437 40.894
27.2272 40.7024
27.4109 40.4138
27.5946 40.461
27.7784 39.9574
27.9623 40.0595
28.1462 40.7497
28.3304 39.0786
28.5145 37.804
28.6987 37.4133
28.8829 36.9633
29.0673 36.4684
29.2517 35.9631
29.4361 35.7461
29.6207 34.8525
29.8053 34.486
29.99 34.2203
30.1748 33.9327
30.3597 33.9462
30.5447 33.7267
30.7297 33.7294
30.915 33.2445
31.1002 32.6909
31.2855 32.4225
31.4708 32.2921
31.6563 31.9214
31.8418 31.5368
32.0275 31.5285
32.2132 30.897
32.399 30.269
32.5848 29.9151
32.7708 29.5493
32.9569 29.4114
33.143 29.0971
33.3293 28.7369
33.5158 28.3491
33.7022 27.9227
33.8887 27.5847
34.0753 27.2872
34.262 26.9914
34.4488 26.5035
34.6357 26.2015
34.8227 25.9811
35.0098 25.732
35.1969 25.3791
35.3842 25.0413
35.5716 24.937
35.759 24.6573
35.9468 24.2464
36.1345 23.9241
36.3222 23.7885
36.5101 23.5781
36.6981 23.1811
36.8861 22.8183
37.0743 22.551
37.2626 22.2766
37.451 21.9962
37.6395 21.8497
37.8281 21.502
38.0168 21.2784
38.2056 21.0213
38.3945 20.5723
38.5837 20.3736
38.7728 20.1275
38.9621 19.9132
39.1514 19.5719
39.3409 19.41
39.5304 19.1857
39.7201 18.9802
39.9099 18.7634
40.0999 18.4814
40.2899 18.2279
40.48 17.9264
40.6703 17.7933
40.8607 17.5721
41.0512 17.2812
41.242 16.983
41.4327 16.876
41.6236 16.6204
41.8146 16.4257
42.0057 16.215
42.1969 15.9257
42.3882 15.7367
42.5797 15.5029
42.7713 15.3914
42.963 15.0809
43.1549 14.9035
43.3468 14.6798
43.5389 14.4757
43.7312 14.2979
43.9237 14.1099
44.1162 13.8985
44.3088 13.6946
44.5016 13.5082
44.6945 13.3087
44.8875 13.1554
45.0806 12.9817
45.2739 12.7314
45.4673 12.6079
45.6609 12.4364
45.8546 12.2651
46.0484 12.0682
46.2424 11.8558
46.4365 11.7439
46.631 11.553
46.8254 11.3464
47.0199 11.1985
47.2146 11.0483
47.4095 10.8586
47.6044 10.7177
47.7996 10.5551
47.9948 10.4262
48.1902 10.2848
48.3858 10.1042
48.5815 9.96318
48.7774 9.81479
48.9734 9.67224
49.1696 9.57803
49.3661 9.40659
49.5626 9.20302
49.7592 9.09566
49.956 8.93078
50.153 8.84803
50.3501 8.6772
50.5474 8.55734
50.7448 8.45898
50.9424 8.2997
51.1402 8.17507
51.3381 8.04018
51.5362 7.93407
51.7344 7.73116
51.9328 7.63379
52.1316 7.49437
52.3304 7.38933
52.5293 7.28081
52.7284 7.13962
52.9276 7.05066
53.1271 6.91043
53.3267 6.77206
53.5265 6.63327
53.7264 6.56076
53.9266 6.44078
54.1269 6.31368
54.3274 6.18603
54.528 6.0284
54.7289 5.84025
54.9301 5.68822
55.1314 5.49309
55.3328 5.30207
55.5344 5.11961
55.7361 5.00104

File: Ni3Fe_FD0206.xy
TT I
1.27165 8.51116
1.45013 6.9575
1.62863 6.11036
1.80712 5.41892
1.98562 5.28272
2.16411 4.73937
2.34263 4.17062
2.52115 5.10364
2.69965 5.86491
2.87818 7.52114
3.05672 11.8858
3.23527 14.9898
3.4138 18.7604
3.59237 22.5876
3.77094 26.0208
3.9495 30.2126
4.12809 35.3814
4.30669 40.328
4.4853 48.7791
4.6639 58.0908
4.84253 71.6696
5.02118 97.5879
5.19981 889.376
5.37848 288.802
5.55716 113.374
5.73586 101.753
5.91455 111.433
6.09328 3540.57
6.27201 90.3366
6.45075 70.8174
6.62952 64.7567
6.8083 60.1733
6.98711 57.5318
7.16591 56.5142
7.34475 56.0709
7.5236 57.1446
7.70247 58.1937
7.88135 60.713
8.06026 65.1756
8.23919 73.4026
8.41812 91.0795
8.59709 1039.86
8.77609 112.534
8.9551 90.8881
9.13412 87.5937
9.31318 88.8344
9.49226 90.0103
9.67134 95.8537
9.85047 107.028
10.0296 528.699
10.2088 602.656
10.388 114.688
10.5672 430.75
10.7465 93.1013
10.9257 81.0352
11.105 75.3435
11.2844 70.9498
11.4637 67.9369
11.6431 66.6351
11.8225 65.5753
12.002 69.0605
12.1814 137.191
12.3609 70.8895
12.5405 67.294
12.72 69.9332
12.8996 75.0642
13.0792 86.2893
13.2589 225.507
13.4386 154.003
13.6183 220.535
13.7981 116.408
13.9779 80.6701
14.1577 76.2615
14.3376 73.3545
14.5175 72.9609
14.6974 74.7114
14.8774 118.767
15.0574 177.7
15.2374 72.7208
15.4175 70.257
15.5976 70.0641
15.7778 103.506
15.958 177.339
16.1382 64.3046
16.3185 60.3709
16.4988 58.2724
16.6792 57.2892
16.8596 57.6768
17.04 59.3191
17.2205 68.8417
17.401 78.6725
17.5815 62.46
17.7622 65.0738
17.9428 83.3914
18.1237 136.666
18.3044 90.1492
18.4852 85.7061
18.666 63.8346
18.8469 61.0676
19.0278 59.915
19.2088 63.3213
19.3898 76.0783
19.5709 57.2353
19.752 56.2326
19.9332 59.599
20.1144 72.3247
20.2957 64.2682
20.477 57.5548
20.6586 52.3427
20.84 51.2395
21.0215 51.5756
21.203 52.7251
21.3846 51.822
21.5662 51.9893
21.7479 55.6346
21.9297 66.6291
22.1115 57.8186
22.2933 52.7647
22.4753 51.1748
22.6572 52.1735
22.8393 54.3221
23.0214 60.0906
23.2037 51.6858
23.3859 52.7215
23.5682 57.4211
23.7505 51.7722
23.9329 47.5792
24.1154 46.3994
24.2979 45.5505
24.4805 44.9379
24.6631 45.0475
24.8458 44.619
25.0286 45.2094
25.2114 46.58
25.3943 46.7808
25.5773 43.0641
25.7605 42.56
25.9436 42.7629
26.1268 43.623
26.31 42.5498
26.4933 42.6267
26.6767 43.9342
26.8601 42.5212
27.0437 40.8807
27.2272 40.4969
27.4109 40.2315
27.5946 40.3824
27.7784 39.894
27.9623 40.0638
28.1462 40.7078
28.3304 39.002
28.5145 37.7925
28.6987 37.3695
28.8829 37.0791
29.0673 36.5422
29.2517 35.9185
29.4361 35.8617
29.6207 34.7181
29.8053 34.5139
29.99 34.1383
30.1748 33.9333
30.3597 33.8687
30.5447 33.6564
30.7297 33.7513
30.915 33.1713
31.1002 32.7019
31.2855 32.2939
31.4708 32.3502
31.6563 31.9686
31.8418 31.5731
32.0275 31.43
32.2132 30.7379
32.399 30.3536
32.5848 29.8596
32.7708 29.5674
32.9569 29.3997
33.143 29.1206
33.3293 28.7408
33.5158 28.3501
33.7022 27.8786
33.8887 27.5908
34.0753 27.3483
34.262 26.8971
34.4488 26.5102
34.6357 26.2557
34.8227 25.8808
35.0098 25.6814
35.1969 25.3017
35.3842 25.1534
35.5716 24.9105
35.759 24.6218
35.9468 24.1716
36.1345 24.0021
36.3222 23.7736
36.5101 23.5238
36.6981 23.1937
36.8861 22.907
37.0743 22.522
37.2626 22.3537
37.451 22.038
37.6395 21.885
37.8281 21.453
38.0168 21.1676
38.2056 20.9482
38.3945 20.6067
38.5837 20.3322
38.7728 20.1458
38.9621 19.8548
39.1514 19.5824
39.3409 19.3229
39.5304 19.1063
39.7201 18.896
39.9099 18.6866
40.0999 18.4539
40.2899 18.2269
40.48 17.9568
40.6703 17.7306
40.8607 17.5815
41.0512 17.318
41.242 17.0775
41.4327 16.8056
41.6236 16.5386
41.8146 16.452
42.0057 16.1192
42.1969 15.9381
42.3882 15.7259
42.5797 15.4889
42.7713 15.3125
42.963 15.104
43.1549 14.8515
43.3468 14.7123
43.5389 14.4615
43.7312 14.2942
43.9237 14.088
44.1162 13.9431
44.3088 13.6483
44.5016 13.4946
44.6945 13.2882
44.8875 13.1512
45.0806 12.9679
45.2739 12.758
45.4673 12.6055
45.6609 12.4094
45.8546 12.2217
46.0484 12.0946
46.2424 11.8761
46.4365 11.7491
46.631 11.561
46.8254 11.3514
47.0199 11.1932
47.2146 11.061
47.4095 10.8464
47.6044 10.7289
47.7996 10.5013
47.9948 10.4186
48.1902 10.2501
48.3858 10.1402
48.5815 9.98293
48.7774 9.8351
48.9734 9.68318
49.1696 9.53559
49.3661 9.32372
49.5626 9.24211
49.7592 9.09381
49.956 8.95502
50.153 8.79995
50.3501 8.66955
50.5474 8.56216
50.7448 8.43867
50.9424 8.3107
51.1402 8.16561
51.3381 8.00858
51.5362 7.86214
51.7344 7.79208
51.9328 7.62374
52.1316 7.47998
52.3304 7.39241
52.5293 7.249
52.7284 7.1546
52.9276 7.01144
53.1271 6.92425
53.3267 6.81816
53.5265 6.66074
53.7264 6.54996
53.9266 6.41831
54.1269 6.33413
54.3274 6.2085
54.528 6.02568
54.7289 5.84973
54.9301 5.67228
55.1314 5.55621
55.3328 5.28031
55.5344 5.10292
55.7361 5.00249

File: Ni3Fe_FD0207.xy
TT I
1.27165 8.12321
1.45013 6.84712
1.62863 6.56937
1.80712 5.65181
1.98562 5.24089
2.16411 4.4157
2.34263 4.62059
2.52115 4.13836
2.69965 6.19094
2.87818 7.69494
3.05672 11.0616
3.23527 14.8098
3.4138 19.2651
3.59237 22.2157
3.77094 25.9255
3.9495 30.3876
4.12809 35.0199
4.30669 40.8874
4.4853 48.674
4.6639 58.3248
4.84253 72.0538
5.02118 97.5287
5.19981 890.188
5.37848 289.492
5.55716 113.192
5.73586 101.232
5.91455 111.496
6.09328 3575.06
6.27201 90.1956
6.45075 70.9806
6.62952 64.4068
6.8083 59.9249
6.98711 57.6398
7.16591 56.7349
7.34475 56.1034
7.5236 57.0351
7.70247 58.3477
7.88135 60.5334
8.06026 65.4031
8.23919 73.267
8.41812 91.1947
8.59709 1043.27
8.77609 112.593
8.9551 91.3026
9.13412 87.3843
9.31318 88.775
9.49226 90.0411
9.67134 96.0633
9.85047 107.362
10.0296 528.745
10.2088 603.499
10.388 114.39
10.5672 432.758
10.7465 93.0192
10.9257 80.9928
11.105 75.5652
11.2844 71.304
11.4637 67.9903
11.6431 66.6483
11.8225 65.7266
12.002 68.7485
12.1814 137.028
12.3609 70.9884
12.5405 67.8253
12.72 69.8949
12.8996 75.0668
13.0792 86.2718
13.2589 225.222
13.4386 153.954
13.6183 221.169
13.7981 115.327
13.9779 80.2333
14.1577 75.8438
14.3376 73.2678
14.5175 72.6931
14.6974 74.7326
14.8774 119.117
15.0574 178.25
15.2374 72.7179
15.4175 70.0176
15.5976 69.8369
15.7778 103.565
15.958 177.2
16.1382 64.2723
16.3185 60.4409
16.4988 58.1481
16.6792 57.3464
16.8596 57.3847
17.04 59.5042
17.2205 68.6463
17.401 78.1886
17.5815 62.4528
17.7622 64.8785
17.9428 83.6055
18.1237 136.919
18.3044 90.0333
18.4852 85.6422
18.666 63.5648
18.8469 61.2366
19.0278 59.8011
19.2088 63.062
19.3898 76.1788
19.5709 57.3968
19.752 56.1977
19.9332 59.7246
20.1144 72.5545
20.2957 64.3049
20.477 57.3567
20.6586 52.2004
20.84 51.589
21.0215 51.2644
21.203 52.7877
21.3846 51.8905
21.5662 52.056
21.7479 55.6558
21.9297 66.6581
22.1115 57.7317
22.2933 52.7488
22.4753 51.0359
22.6572 52.2418
22.8393 54.2031
23.0214 60.0173
23.2037 51.4168
23.3859 52.8616
23.5682 57.2943
23.7505 51.788
23.9329 47.5215
24.1154 46.2224
24.2979 45.5513
24.4805 45.0775
24.6631 44.9205
24.8458 44.4942
25.0286 45.2213
25.2114 46.6365
25.3943 46.911
25.5773 43.0997
25.7605 42.5346
25.9436 42.7449
26.1268 43.5148
26.31 42.2536
26.4933 42.5831
26.6767 44.0327
26.8601 42.5761
27.0437 40.9119
27.2272 40.4784
27.4109 40.2463
27.5946 40.3797
27.7784 39.9854
27.9623 40.0189
28.1462 40.7055
28.3304 39.1817
28.5145 37.8371
28.6987 37.3339
28.8829 37.077
29.0673 36.4267
29.2517 36.0221
29.4361 35.7377
29.6207 34.7555
29.8053 34.4995
29.99 34.1802
30.1748 33.9865
30.3597 34.0183
30.5447 33.7063
30.7297 33.7348
30.915 33.1845
31.1002 32.6249
31.2855 32.4082
31.4708 32.2706
31.6563 31.9547
31.8418 31.6768
32.0275 31.3844
32.2132 30.9124
32.399 30.4203
32.5848 29.9418
32.7708 29.6008
32.9569 29.3774
33.143 29.1464
33.3293 28.7842
33.5158 28.3319
33.7022 27.8704
33.8887 27.5316
34.0753 27.2373
34.262 26.8732
34.4488 26.4747
34.6357 26.2221
34.8227 25.8692
35.0098 25.6117
35.1969 25.3071
35.3842 25.1312
35.5716 24.9319
35.759 24.5401
35.9468 24.2549
36.1345 23.9875
36.3222 23.7364
36.5101 23.5374
36.6981 23.1245
36.8861 22.9221
37.0743 22.552
37.2626 22.3327
37.451 21.9591
37.6395 21.8194
37.8281 21.5111
38.0168 21.2127
38.2056 20.922
38.3945 20.6885
38.5837 20.3718
38.7728 20.1661
38.9621 19.847
39.1514 19.5933
39.3409 19.3314
39.5304 19.1706
39.7201 18.9741
39.9099 18.7915
40.0999 18.4196
40.2899 18.1447
40.48 17.9106
40.6703 17.7702
40.8607 17.5087
41.0512 17.3435
41.242 17.0131
41.4327 16.8726
41.6236 16.569
41.8146 16.4111
42.0057 16.1408
42.1969 15.9605
42.3882 15.7505
42.5797 15.5239
42.7713 15.3111
42.963 15.0773
43.1549 14.9224
43.3468 14.7143
43.5389 14.4693
43.7312 14.2549
43.9237 14.1089
44.1162 13.9278
44.3088 13.7652
44.5016 13.4825
44.6945 13.3007
44.8875 13.1602
45.0806 12.9024
45.2739 12.7512
45.4673 12.5794
45.6609 12.4011
45.8546 12.203
46.0484 12.0724
46.2424 11.8834
46.4365 11.742
46.631 11.5632
46.8254 11.3775
47.0199 11.2095
47.2146 11.0493
47.4095 10.8357
47.6044 10.662
47.7996 10.5343
47.9948 10.4083
48.1902 10.2698
48.3858 10.1024
48.5815 9.96013
48.7774 9.85691
48.9734 9.71322
49.1696 9.52782
49.3661 9.37423
49.5626 9.24241
49.7592 9.12163
49.956 8.98367
50.153 8.81867
50.3501 8.65815
50.5474 8.55463
50.7448 8.43136
50.9424 8.29926
51.1402 8.16439
51.3381 8.03431
51.5362 7.86706
51.7344 7.79237
51.9328 7.64102
52.1316 7.49858
52.3304 7.39259
52.5293 7.24778
52.7284 7.1429
52.9276 7.03639
53.1271 6.89716
53.3267 6.79709
53.5265 6.65035
53.7264 6.5729
53.9266 6.42635
54.1269 6.32215
54.3274 6.18497
54.528 6.05763
54.7289 5.79742
54.9301 5.65878
55.1314 5.55838
55.3328 5.29453
55.5344 5.07047
55.7361 4.95192

File: Ni3Fe_FD0208.xy
TT I
1.27165 8.10837
1.45013 7.09554
1.62863 6.28465
1.80712 5.63091
1.98562 5.53949
2.16411 4.55648
2.34263 4.51241
2.52115 4.96846
2.69965 6.09929
2.87818 8.12089
3.05672 10.8082
3.23527 14.829
3.4138 19.2269
3.59237 22.0126
3.77094 25.9863
3.9495 30.4184
4.12809 35.21
4.30669 41.0305
4.4853 48.4842
4.6639 58.2489
4.84253 71.8729
5.02118 97.5497
5.19981 888.662
5.37848 287.879
5.55716 112.644
5.73586 102.439
5.91455 111.797
6.09328 3592.59
6.27201 90.1082
6.45075 71.0498
6.62952 64.4845
6.8083 60.2723
6.98711 57.5466
7.16591 56.4827
7.34475 56.0548
7.5236 57.0078
7.70247 58.1886
7.88135 60.7325
8.06026 65.6692
8.23919 73.7878
8.41812 90.978
8.59709 1051.71
8.77609 112.327
8.9551 91.1887
9.13412 87.0862
9.31318 88.6217
9.49226 90.2218
9.67134 96.1172
9.85047 107.053
10.0296 528.741
10.2088 591.047
10.388 114.919
10.5672 432.085
10.7465 92.8788
10.9257 81.0592
11.105 75.5584
11.2844 71.0314
11.4637 68.1544
11.6431 66.8096
11.8225 65.5376
12.002 69.062
12.1814 137.364
12.3609 71.021
12.5405 67.5336
12.72 69.735
12.8996 74.9902
13.0792 86.1549
13.2589 225.753
13.4386 153.258
13.6183 221.699
13.7981 115.308
13.9779 80.2024
14.1577 75.8529
14.3376 73.4742
14.5175 72.6407
14.6974 74.8816
14.8774 119.387
15.0574 177.456
15.2374 72.7198
15.4175 70.3152
15.5976 70.1488
15.7778 103.874
15.958 176.908
16.1382 64.1453
16.3185 60.6675
16.4988 58.1977
16.6792 57.0136
16.8596 57.4391
17.04 59.367
17.2205 69.108
17.401 78.2119
17.5815 62.4134
17.7622 64.8643
17.9428 83.4301
18.1237 136.84
18.3044 89.969
18.4852 85.0117
18.666 63.5948
18.8469 61.1958
19.0278 59.8644
19.2088 62.9455
19.3898 76.1129
19.5709 57.3961
19.752 56.3192
19.9332 59.6613
20.1144 72.3327
20.2957 64.1557
20.477 57.3359
20.6586 52.3702
20.84 51.5687
21.0215 51.5301
21.203 52.6052
21.3846 51.8679
21.5662 51.9194
21.7479 55.6097
21.9297 66.5447
22.1115 57.6848
22.2933 52.78
22.4753 51.1301
22.6572 52.1356
22.8393 54.3368
23.0214 59.9225
23.2037 51.5285
23.3859 52.6736
23.5682 57.394
23.7505 51.5916
23.9329 47.7099
24.1154 46.2449
24.2979 45.6315
24.4805 45.0487
24.6631 45.028
24.8458 44.5682
25.0286 45.201
25.2114 46.5596
25.3943 46.7931
25.5773 43.0723
25.7605 42.6981
25.9436 42.796
26.1268 43.6494
26.31 42.4514
26.4933 42.6467
26.6767 43.9214
26.8601 42.5049
27.0437 40.882
27.2272 40.5207
27.4109 40.3775
27.5946 40.3269
27.7784 39.9053
27.9623 40.1259
28.1462 40.6392
28.3304 39.1851
28.5145 37.6838
28.6987 37.2781
28.8829 36.9046
29.0673 36.432
29.2517 36.0136
29.4361 35.7454
29.6207 34.8137
29.8053 34.4876
29.99 34.0919
30.1748 33.9186
30.3597 33.8277
30.5447 33.7066
30.7297 33.726
30.915 33.1688
31.1002 32.7724
31.2855 32.3542
31.4708 32.2326
31.6563 31.8454
31.8418 31.6221
32.0275 31.4389
32.2132 30.8177
32.399 30.3907
32.5848 29.9834
32.7708 29.4652
32.9569 29.3254
33.143 29.0232
33.3293 28.804
33.5158 28.3649
33.7022 27.9082
33.8887 27.6059
34.0753 27.3209
34.262 26.9767
34.4488 26.5901
34.6357 26.2497
34.8227 25.8507
35.0098 25.6096
35.1969 25.3172
35.3842 25.1213
35.5716 24.8241
35.759 24.6356
35.9468 24.2396
36.1345 24.0327
36.3222 23.7287
36.5101 23.5927
36.6981 23.2026
36.8861 22.8999
37.0743 22.5413
37.2626 22.271
37.451 21.9983
37.6395 21.8585
37.8281 21.5019
38.0168 21.213
38.2056 20.9322
38.3945 20.6223
38.5837 20.415
38.7728 20.1602
38.9621 19.8671
39.1514 19.6058
39.3409 19.3526
39.5304 19.1788
39.7201 18.9658
39.9099 18.6375
40.0999 18.4615
40.2899 18.175
40.48 17.9452
40.6703 17.7109
40.8607 17.5287
41.0512 17.3538
41.242 17.0754
41.4327 16.8357
41.6236 16.6049
41.8146 16.4016
42.0057 16.2013
42.1969 15.9426
42.3882 15.7735
42.5797 15.4977
42.7713 15.2849
42.963 15.1142
43.1549 14.9387
43.3468 14.6386
43.5389 14.5261
43.7312 14.2779
43.9237 14.0901
44.1162 13.8822
44.3088 13.7133
44.5016 13.4976
44.6945 13.2737
44.8875 13.15
45.0806 12.9684
45.2739 12.8063
45.4673 12.6163
45.6609 12.4174
45.8546 12.2435
46.0484 12.0612
46.2424 11.9087
46.4365 11.7197
46.631 11.5224
46.8254 11.3452
47.0199 11.1822
47.2146 11.0626
47.4095 10.8706
47.6044 10.6605
47.7996 10.5476
47.9948 10.4067
48.1902 10.2248
48.3858 10.1007
48.5815 9.95498
48.7774 9.82072
48.9734 9.70245
49.1696 9.48899
49.3661 9.37274
49.5626 9.22078
49.7592 9.11705
49.956 8.96468
50.153 8.844
50.3501 8.70388
50.5474 8.53572
50.7448 8.44211
50.9424 8.32644
51.1402 8.18203
51.3381 8.02521
51.5362 7.88502
51.7344 7.78125
51.9328 7.63532
52.1316 7.4956
52.3304 7.37317
52.5293 7.24794
52.7284 7.16339
52.9276 7.03592
53.1271 6.94571
53.3267 6.79569
53.5265 6.66058
53.7264 6.56868
53.9266 6.44927
54.1269 6.30619
54.3274 6.18742
54.528 6.05246
54.7289 5.85965
54.9301 5.65468
55.1314 5.50479
55.3328 5.31177
55.5344 5.14445
55.7361 5.00885

File: Ni3Fe_FD0209.xy
TT I
1.27165 7.723
1.45013 6.51332
1.62863 6.58767
1.80712 5.23259
1.98562 5.41382
2.16411 4.91444
2.34263 4.80991
2.52115 4.2419
2.69965 5.71368
2.87818 7.85615
3.05672 11.0738
3.23527 15.1397
3.4138 18.9269
3.59237 22.332
3.77094 25.9539
3.9495 29.9637
4.12809 34.8287
4.30669 40.7692
4.4853 48.6744
4.6639 58.6769
4.84253 72.0292
5.02118 97.5507
5.19981 888.237
5.37848 285.006
5.55716 113.043
5.73586 101.593
5.91455 111.816
6.09328 3588.73
6.27201 90.3215
6.45075 71.5156
6.62952 64.4095
6.8083 59.9187
6.98711 57.6008
7.16591 56.7082
7.34475 55.5453
7.5236 56.8927
7.70247 58.288
7.88135 60.7778
8.06026 65.6657
8.23919 73.6518
8.41812 91.1586
8.59709 1051.95
8.77609 112.164
8.9551 91.0514
9.13412 87.1952
9.31318 88.5309
9.49226 90.0426
9.67134 95.8796
9.85047 107.107
10.0296 526.94
10.2088 589.64
10.388 114.985
10.5672 432.773
10.7465 93.0179
10.9257 81.0579
11.105 75.2774
11.2844 70.9467
11.4637 68.199
11.6431 66.613
11.8225 65.6692
12.002 68.8875
12.1814 137.563
12.3609 70.4647
12.5405 67.5449
12.72 69.9843
12.8996 75.0015
13.0792 86.2464
13.2589 226.299
13.4386 153.756
13.6183 221.823
13.7981 115.659
13.9779 80.3962
14.1577 75.9915
14.3376 73.0952
14.5175 73.0772
14.6974 74.8051
14.8774 119.34
15.0574 178.563
15.2374 73.0157
15.4175 70.0675
15.5976 70.1675
15.7778 103.976
15.958 177.954
16.1382 64.3358
16.3185 60.4753
16.4988 58.1362
16.6792 57.3538
16.8596 57.814
17.04 59.5259
17.2205 68.8048
17.401 78.3986
17.5815 62.4108
17.7622 64.9662
17.9428 83.3519
18.1237 137.103
18.3044 90.2231
18.4852 85.1151
18.666 63.826
18.8469 61.0081
19.0278 59.9259
19.2088 63.1989
19.3898 76.2072
19.5709 57.3252
19.752 56.2961
19.9332 59.6869
20.1144 72.6499
20.2957 64.335
20.477 57.2487
20.6586 52.3002
20.84 51.543
21.0215 51.3716
21.203 52.7475
21.3846 51.8192
21.5662 51.9411
21.7479 55.7101
21.9297 66.7375
22.1115 57.6685
22.2933 52.8317
22.4753 51.2086
22.6572 52.3364
22.8393 54.5108
23.0214 59.9846
23.2037 51.5346
23.3859 52.8176
23.5682 57.4214
23.7505 51.7571
23.9329 47.5915
24.1154 46.3151
24.2979 45.6785
24.4805 45.0912
24.6631 45.0841
24.8458 44.607
25.0286 45.2855
25.2114 46.5845
25.3943 46.8306
25.5773 43.077
25.7605 42.6547
25.9436 42.7691
26.1268 43.6533
26.31 42.3289
26.4933 42.6176
26.6767 44.02
26.8601 42.4779
27.0437 40.902
27.2272 40.4369
27.4109 40.2857
27.5946 40.4303
27.7784 40.0135
27.9623 40.081
28.1462 40.7283
28.3304 39.0334
28.5145 37.6881
28.6987 37.4575
28.8829 37.0539
29.0673 36.3479
29.2517 35.9487
29.4361 35.894
29.6207 34.8763
29.8053 34.5938
29.99 34.176
30.1748 34.0005
30.3597 33.8678
30.5447 33.7211
30.7297 33.7525
30.915 33.2805
31.1002 32.7216
31.2855 32.4063
31.4708 32.2891
31.6563 31.9695
31.8418 31.5757
32.0275 31.2962
32.2132 30.8569
32.399 30.3795
32.5848 29.8662
32.7708 29.6146
32.9569 29.3716
33.143 29.1762
33.3293 28.7608
33.5158 28.3654
33.7022 27.9139
33.8887 27.6408
34.0753 27.299
34.262 26.9251
34.4488 26.5625
34.6357 26.2705
34.8227 26.0054
35.0098 25.7769
35.1969 25.4187
35.3842 25.0845
35.5716 24.893
35.759 24.5479
35.9468 24.2071
36.1345 24.0537
36.3222 23.7645
36.5101 23.5112
36.6981 23.1925
36.8861 22.8459
37.0743 22.5901
37.2626 22.2669
37.451 22.0427
37.6395 21.8916
37.8281 21.578
38.0168 21.1905
38.2056 20.9265
38.3945 20.6459
38.5837 20.3839
38.7728 20.2093
38.9621 19.883
39.1514 19.6219
39.3409 19.3704
39.5304 19.121
39.7201 18.9796
39.9099 18.7254
40.0999 18.4814
40.2899 18.2095
40.48 17.9715
40.6703 17.7298
40.8607 17.6099
41.0512 17.3337
41.242 17.0476
41.4327 16.8805
41.6236 16.6063
41.8146 16.4301
42.0057 16.1499
42.1969 15.8919
42.3882 15.7463
42.5797 15.5653
42.7713 15.296
42.963 15.0697
43.1549 14.9615
43.3468 14.7214
43.5389 14.4927
43.7312 14.259
43.9237 14.117
44.1162 13.9162
44.3088 13.6382
44.5016 13.5258
44.6945 13.3044
44.8875 13.1333
45.0806 12.9587
45.2739 12.7851
45.4673 12.5598
45.6609 12.3938
45.8546 12.1968
46.0484 12.0904
46.2424 11.9075
46.4365 11.7308
46.631 11.5352
46.8254 11.3831
47.0199 11.1694
47.2146 11.0629
47.4095 10.9057
47.6044 10.6981
47.7996 10.5477
47.9948 10.4035
48.1902 10.2696
48.3858 10.0971
48.5815 9.98779
48.7774 9.83804
48.9734 9.68747
49.1696 9.52762
49.3661 9.34456
49.5626 9.19543
49.7592 9.1086
49.956 8.97871
50.153 8.82426
50.3501 8.67673
50.5474 8.55273
50.7448 8.43585
50.9424 8.29851
51.1402 8.17212
51.3381 8.01498
51.5362 7.94429
51.7344 7.73718
51.9328 7.65652
52.1316 7.49107
52.3304 7.38639
52.5293 7.26724
52.7284 7.15425
52.9276 7.02696
53.1271 6.89319
53.3267 6.79194
53.5265 6.66867
53.7264 6.5099
53.9266 6.46969
54.1269 6.31181
54.3274 6.20588
54.528 6.02854
54.7289 5.83907
54.9301 5.69141
55.1314 5.60081
55.3328 5.34708
55.5344 5.11728
55.7361 5.00779