Folder: NiFe_MOF_catalyst_paper/XRD (part 92)

File: Ni3Fe_FD0496.xy
TT I
1.27165 7.16488
1.45013 6.17622
1.62863 5.7319
1.80712 5.23439
1.98562 4.43901
2.16411 4.73291
2.34263 5.4751
2.52115 6.71534
2.69965 8.11325
2.87818 8.71421
3.05672 11.3745
3.23527 15.2
3.4138 18.82
3.59237 24.064
3.77094 26.4147
3.9495 29.685
4.12809 35.4007
4.30669 187.918
4.4853 63.2273
4.6639 56.2684
4.84253 68.1611
5.02118 88.7764
5.19981 411.379
5.37848 204.27
5.55716 104.274
5.73586 93.7416
5.91455 96.6971
6.09328 4202.18
6.27201 84.9893
6.45075 68.4427
6.62952 63.8632
6.8083 59.4005
6.98711 56.499
7.16591 55.8057
7.34475 86.5123
7.5236 55.2659
7.70247 56.7752
7.88135 58.8353
8.06026 63.1763
8.23919 70.1638
8.41812 86.3466
8.59709 1202.49
8.77609 102.105
8.9551 92.0583
9.13412 83.2224
9.31318 83.8989
9.49226 85.7905
9.67134 98.8526
9.85047 101.515
10.0296 372.705
10.2088 458.977
10.388 106.671
10.5672 500.161
10.7465 88.1153
10.9257 79.6754
11.105 72.7253
11.2844 70.9255
11.4637 65.8733
11.6431 64.5275
11.8225 63.4146
12.002 64.4943
12.1814 155.444
12.3609 71.0495
12.5405 65.5447
12.72 70.2843
12.8996 71.9961
13.0792 80.0302
13.2589 242.944
13.4386 131.841
13.6183 249.797
13.7981 103.783
13.9779 76.7341
14.1577 73.428
14.3376 72.5197
14.5175 69.9905
14.6974 71.3845
14.8774 114.158
15.0574 156.917
15.2374 72.0726
15.4175 67.2949
15.5976 66.7709
15.7778 98.1345
15.958 159.059
16.1382 63.5772
16.3185 59.4975
16.4988 56.2292
16.6792 55.4816
16.8596 55.8508
17.04 56.7421
17.2205 68.1398
17.401 72.9689
17.5815 60.1166
17.7622 62.1919
17.9428 75.5548
18.1237 136.442
18.3044 91.6229
18.4852 80.5304
18.666 61.5982
18.8469 59.0171
19.0278 57.9881
19.2088 60.5772
19.3898 76.3284
19.5709 55.1001
19.752 54.0043
19.9332 57.3435
20.1144 69.9562
20.2957 64.2956
20.477 55.0853
20.6586 50.5701
20.84 49.359
21.0215 49.3617
21.203 51.4033
21.3846 49.709
21.5662 49.5659
21.7479 53.6168
21.9297 64.7561
22.1115 56.6341
22.2933 50.6636
22.4753 49.5416
22.6572 49.6917
22.8393 52.7855
23.0214 57.9971
23.2037 49.5629
23.3859 50.5257
23.5682 57.0059
23.7505 49.278
23.9329 45.9403
24.1154 44.8337
24.2979 44.1437
24.4805 43.54
24.6631 43.4323
24.8458 42.837
25.0286 43.4379
25.2114 45.3261
25.3943 45.0979
25.5773 41.532
25.7605 40.9769
25.9436 41.4675
26.1268 42.2972
26.31 40.7989
26.4933 41.313
26.6767 42.6133
26.8601 41.0117
27.0437 39.3891
27.2272 39.0179
27.4109 38.9209
27.5946 39.0317
27.7784 38.3302
27.9623 38.9201
28.1462 39.3392
28.3304 37.6819
28.5145 36.5376
28.6987 36.1345
28.8829 35.9076
29.0673 35.1582
29.2517 34.8993
29.4361 34.6094
29.6207 33.7022
29.8053 33.3857
29.99 33.0041
30.1748 32.9533
30.3597 32.7048
30.5447 32.6662
30.7297 32.5891
30.915 32.1231
31.1002 31.5472
31.2855 31.3046
31.4708 31.2305
31.6563 30.7699
31.8418 30.5109
32.0275 30.3677
32.2132 29.7219
32.399 29.2635
32.5848 28.9083
32.7708 28.5029
32.9569 28.3594
33.143 28.1658
33.3293 27.8559
33.5158 27.4603
33.7022 26.9338
33.8887 26.6831
34.0753 26.3829
34.262 26.0299
34.4488 25.6114
34.6357 25.3341
34.8227 25.0994
35.0098 24.8424
35.1969 24.5206
35.3842 24.4252
35.5716 24.1699
35.759 23.752
35.9468 23.4141
36.1345 23.15
36.3222 22.9848
36.5101 22.7677
36.6981 22.3896
36.8861 22.1588
37.0743 21.8478
37.2626 21.4994
37.451 21.2779
37.6395 21.1659
37.8281 20.808
38.0168 20.5171
38.2056 20.2698
38.3945 20.0223
38.5837 19.7535
38.7728 19.5241
38.9621 19.1998
39.1514 19.0744
39.3409 18.6879
39.5304 18.4906
39.7201 18.3579
39.9099 18.1624
40.0999 17.8294
40.2899 17.6412
40.48 17.4
40.6703 17.1667
40.8607 17.0412
41.0512 16.7763
41.242 16.5189
41.4327 16.322
41.6236 15.9749
41.8146 15.8489
42.0057 15.7151
42.1969 15.4571
42.3882 15.2308
42.5797 15.0392
42.7713 14.843
42.963 14.609
43.1549 14.4782
43.3468 14.2192
43.5389 14.0522
43.7312 13.8459
43.9237 13.6895
44.1162 13.4594
44.3088 13.2169
44.5016 13.0666
44.6945 12.894
44.8875 12.7629
45.0806 12.5539
45.2739 12.4024
45.4673 12.2048
45.6609 12.0208
45.8546 11.8717
46.0484 11.6978
46.2424 11.5382
46.4365 11.3957
46.631 11.1719
46.8254 11.0507
47.0199 10.8454
47.2146 10.6692
47.4095 10.5528
47.6044 10.3772
47.7996 10.2249
47.9948 10.0656
48.1902 9.92645
48.3858 9.80507
48.5815 9.65622
48.7774 9.50178
48.9734 9.34535
49.1696 9.23317
49.3661 9.05557
49.5626 8.94885
49.7592 8.79358
49.956 8.73935
50.153 8.54073
50.3501 8.42191
50.5474 8.31282
50.7448 8.1664
50.9424 8.04144
51.1402 7.90098
51.3381 7.77353
51.5362 7.65642
51.7344 7.53698
51.9328 7.4176
52.1316 7.28915
52.3304 7.17673
52.5293 6.99975
52.7284 6.93497
52.9276 6.82844
53.1271 6.72932
53.3267 6.57229
53.5265 6.48428
53.7264 6.37972
53.9266 6.24959
54.1269 6.15669
54.3274 6.06216
54.528 5.88272
54.7289 5.73909
54.9301 5.56647
55.1314 5.43851
55.3328 5.24726
55.5344 5.00811
55.7361 4.91593

File: Ni3Fe_FD0497.xy
TT I
1.27165 7.06764
1.45013 6.21739
1.62863 5.23159
1.80712 4.78436
1.98562 5.01684
2.16411 5.37453
2.34263 4.92667
2.52115 6.30874
2.69965 7.68686
2.87818 8.49542
3.05672 10.8582
3.23527 15.1459
3.4138 19.0799
3.59237 24.3466
3.77094 26.4685
3.9495 30.048
4.12809 35.2056
4.30669 191.742
4.4853 63.699
4.6639 56.2658
4.84253 67.8968
5.02118 88.6517
5.19981 408.107
5.37848 204.161
5.55716 104.357
5.73586 93.8171
5.91455 96.809
6.09328 4263.15
6.27201 85.0832
6.45075 68.2777
6.62952 63.525
6.8083 59.2649
6.98711 56.7968
7.16591 55.9802
7.34475 86.5636
7.5236 55.1204
7.70247 57.0303
7.88135 58.4811
8.06026 62.7313
8.23919 70.4584
8.41812 86.4506
8.59709 1202.9
8.77609 102.796
8.9551 92.4139
9.13412 83.2422
9.31318 83.6272
9.49226 85.8557
9.67134 98.7597
9.85047 101.803
10.0296 371.113
10.2088 455.393
10.388 106.329
10.5672 507.375
10.7465 88.2352
10.9257 79.6875
11.105 72.988
11.2844 70.9239
11.4637 65.8278
11.6431 64.3721
11.8225 63.2107
12.002 64.3414
12.1814 154.281
12.3609 71.4641
12.5405 65.4169
12.72 70.5148
12.8996 72.0723
13.0792 79.9828
13.2589 242.616
13.4386 132.481
13.6183 248.686
13.7981 103.247
13.9779 77.1043
14.1577 73.3784
14.3376 72.374
14.5175 69.8192
14.6974 71.3411
14.8774 113.404
15.0574 156.92
15.2374 71.9429
15.4175 67.3996
15.5976 66.7962
15.7778 97.5368
15.958 159.386
16.1382 63.5319
16.3185 59.3236
16.4988 56.4905
16.6792 55.4239
16.8596 56.0349
17.04 56.665
17.2205 68.0581
17.401 72.7481
17.5815 60.1913
17.7622 62.3011
17.9428 75.538
18.1237 136.533
18.3044 91.6501
18.4852 80.5921
18.666 61.5136
18.8469 58.9124
19.0278 57.6708
19.2088 60.4868
19.3898 76.2165
19.5709 55.1471
19.752 53.992
19.9332 57.261
20.1144 69.8291
20.2957 64.3066
20.477 54.8202
20.6586 50.291
20.84 49.5921
21.0215 49.5657
21.203 51.3634
21.3846 49.7781
21.5662 49.6571
21.7479 53.5608
21.9297 64.7111
22.1115 56.5105
22.2933 50.7223
22.4753 49.5837
22.6572 49.4324
22.8393 52.593
23.0214 58.0209
23.2037 49.4997
23.3859 50.6732
23.5682 57.0212
23.7505 49.3558
23.9329 45.8406
24.1154 44.7772
24.2979 44.0067
24.4805 43.5288
24.6631 43.3019
24.8458 42.8863
25.0286 43.4259
25.2114 45.2458
25.3943 45.1397
25.5773 41.5098
25.7605 41.0356
25.9436 41.4876
26.1268 42.1456
26.31 40.6797
26.4933 41.5079
26.6767 42.5976
26.8601 41.0325
27.0437 39.4397
27.2272 39.1426
27.4109 38.8717
27.5946 38.9373
27.7784 38.4748
27.9623 39.024
28.1462 39.3893
28.3304 37.7848
28.5145 36.4404
28.6987 36.1749
28.8829 35.9403
29.0673 35.1764
29.2517 34.8116
29.4361 34.5596
29.6207 33.6613
29.8053 33.2789
29.99 33.1112
30.1748 32.8472
30.3597 32.6793
30.5447 32.619
30.7297 32.7323
30.915 32.0861
31.1002 31.6296
31.2855 31.2702
31.4708 31.24
31.6563 30.8527
31.8418 30.4946
32.0275 30.3192
32.2132 29.7875
32.399 29.3539
32.5848 28.8351
32.7708 28.5498
32.9569 28.4473
33.143 28.1393
33.3293 27.7621
33.5158 27.3893
33.7022 26.9276
33.8887 26.7997
34.0753 26.4079
34.262 26.0235
34.4488 25.6847
34.6357 25.3559
34.8227 25.1054
35.0098 24.7578
35.1969 24.4645
35.3842 24.3201
35.5716 24.077
35.759 23.7455
35.9468 23.5259
36.1345 23.2943
36.3222 22.9444
36.5101 22.7574
36.6981 22.4677
36.8861 22.1052
37.0743 21.7772
37.2626 21.5508
37.451 21.2657
37.6395 21.0436
37.8281 20.7906
38.0168 20.4983
38.2056 20.2246
38.3945 19.9946
38.5837 19.7658
38.7728 19.5115
38.9621 19.1929
39.1514 18.9982
39.3409 18.7388
39.5304 18.4804
39.7201 18.3291
39.9099 18.15
40.0999 17.8929
40.2899 17.659
40.48 17.3115
40.6703 17.2043
40.8607 17.0352
41.0512 16.7391
41.242 16.4475
41.4327 16.3004
41.6236 16.037
41.8146 15.8342
42.0057 15.6047
42.1969 15.4589
42.3882 15.2553
42.5797 15.0356
42.7713 14.8217
42.963 14.5953
43.1549 14.3713
43.3468 14.2081
43.5389 14.0352
43.7312 13.871
43.9237 13.6372
44.1162 13.4656
44.3088 13.278
44.5016 13.0406
44.6945 12.8977
44.8875 12.6728
45.0806 12.5397
45.2739 12.3891
45.4673 12.1811
45.6609 12.0594
45.8546 11.8281
46.0484 11.6816
46.2424 11.5019
46.4365 11.3826
46.631 11.1509
46.8254 10.9868
47.0199 10.8598
47.2146 10.7105
47.4095 10.5386
47.6044 10.3969
47.7996 10.1976
47.9948 10.0746
48.1902 9.94248
48.3858 9.81132
48.5815 9.63868
48.7774 9.53088
48.9734 9.39739
49.1696 9.2191
49.3661 9.07365
49.5626 8.90949
49.7592 8.80616
49.956 8.71238
50.153 8.55098
50.3501 8.39993
50.5474 8.29458
50.7448 8.17684
50.9424 8.0548
51.1402 7.93531
51.3381 7.77401
51.5362 7.65479
51.7344 7.52821
51.9328 7.37975
52.1316 7.29734
52.3304 7.14868
52.5293 7.01056
52.7284 6.95604
52.9276 6.81364
53.1271 6.72364
53.3267 6.56941
53.5265 6.46831
53.7264 6.34372
53.9266 6.27463
54.1269 6.17959
54.3274 6.09641
54.528 5.86566
54.7289 5.70283
54.9301 5.58366
55.1314 5.41164
55.3328 5.23031
55.5344 5.00888
55.7361 4.88266

File: Ni3Fe_FD0498.xy
TT I
1.27165 7.74171
1.45013 5.95393
1.62863 5.49976
1.80712 5.01622
1.98562 4.49027
2.16411 4.9586
2.34263 5.92722
2.52115 6.0262
2.69965 7.30754
2.87818 8.15371
3.05672 11.5276
3.23527 15.0688
3.4138 18.9755
3.59237 23.6953
3.77094 26.4867
3.9495 30.1346
4.12809 35.0349
4.30669 195.323
4.4853 64.239
4.6639 56.0997
4.84253 68.4168
5.02118 88.3157
5.19981 403.995
5.37848 204.407
5.55716 104.024
5.73586 93.8667
5.91455 96.8634
6.09328 4251.72
6.27201 84.8574
6.45075 68.2298
6.62952 63.4762
6.8083 59.6359
6.98711 56.6284
7.16591 56.1766
7.34475 88.0488
7.5236 55.5353
7.70247 56.7621
7.88135 58.4705
8.06026 63.1679
8.23919 70.3731
8.41812 86.4891
8.59709 1201.17
8.77609 102.125
8.9551 92.2189
9.13412 83.3924
9.31318 83.8765
9.49226 85.7047
9.67134 99.021
9.85047 101.27
10.0296 367.486
10.2088 454.677
10.388 106.334
10.5672 507.92
10.7465 88.0665
10.9257 79.4682
11.105 72.8744
11.2844 71.3114
11.4637 65.7061
11.6431 64.577
11.8225 63.4884
12.002 64.468
12.1814 154.337
12.3609 71.5964
12.5405 65.5165
12.72 70.6611
12.8996 71.979
13.0792 80.0961
13.2589 242.144
13.4386 132.574
13.6183 246.786
13.7981 102.885
13.9779 76.92
14.1577 73.5595
14.3376 72.4403
14.5175 69.9019
14.6974 71.324
14.8774 113.605
15.0574 157.591
15.2374 71.8522
15.4175 67.3482
15.5976 66.6765
15.7778 97.5795
15.958 159.505
16.1382 63.4991
16.3185 59.4669
16.4988 56.459
16.6792 55.3902
16.8596 55.9105
17.04 56.6104
17.2205 67.78
17.401 72.5853
17.5815 60.0882
17.7622 61.9566
17.9428 75.631
18.1237 136.705
18.3044 91.7887
18.4852 80.6243
18.666 61.3775
18.8469 58.8598
19.0278 57.5377
19.2088 60.5381
19.3898 76.0924
19.5709 55.0501
19.752 54.2285
19.9332 57.2356
20.1144 69.9929
20.2957 64.2458
20.477 54.7712
20.6586 50.4157
20.84 49.4446
21.0215 49.328
21.203 51.5139
21.3846 49.6036
21.5662 49.4152
21.7479 53.2752
21.9297 64.8594
22.1115 56.5338
22.2933 50.8374
22.4753 49.6795
22.6572 49.4598
22.8393 52.6767
23.0214 57.9767
23.2037 49.4935
23.3859 50.4818
23.5682 57.0208
23.7505 49.3759
23.9329 45.7806
24.1154 44.7726
24.2979 44.0254
24.4805 43.4594
24.6631 43.5184
24.8458 42.8022
25.0286 43.5669
25.2114 45.1732
25.3943 45.2142
25.5773 41.4785
25.7605 40.9927
25.9436 41.4216
26.1268 42.2453
26.31 40.8236
26.4933 41.2409
26.6767 42.652
26.8601 41.0859
27.0437 39.4323
27.2272 39.1596
27.4109 38.8802
27.5946 38.8906
27.7784 38.3997
27.9623 38.8761
28.1462 39.3235
28.3304 37.6658
28.5145 36.4694
28.6987 36.2109
28.8829 35.8836
29.0673 35.1888
29.2517 34.7269
29.4361 34.6175
29.6207 33.6927
29.8053 33.4328
29.99 33.0284
30.1748 32.9315
30.3597 32.733
30.5447 32.5834
30.7297 32.5769
30.915 32.0548
31.1002 31.5789
31.2855 31.2093
31.4708 31.266
31.6563 30.8388
31.8418 30.5874
32.0275 30.403
32.2132 29.7024
32.399 29.422
32.5848 28.9523
32.7708 28.4826
32.9569 28.3249
33.143 28.2161
33.3293 27.8228
33.5158 27.3815
33.7022 26.9619
33.8887 26.7124
34.0753 26.3188
34.262 25.9385
34.4488 25.7108
34.6357 25.3068
34.8227 25.0747
35.0098 24.8672
35.1969 24.527
35.3842 24.3503
35.5716 24.1136
35.759 23.8581
35.9468 23.4569
36.1345 23.178
36.3222 22.9754
36.5101 22.7625
36.6981 22.4358
36.8861 22.0809
37.0743 21.7949
37.2626 21.5113
37.451 21.2564
37.6395 21.1193
37.8281 20.7558
38.0168 20.4608
38.2056 20.2118
38.3945 19.9596
38.5837 19.6934
38.7728 19.4806
38.9621 19.2202
39.1514 18.9392
39.3409 18.717
39.5304 18.4954
39.7201 18.3131
39.9099 18.1411
40.0999 17.8267
40.2899 17.6369
40.48 17.3485
40.6703 17.1015
40.8607 16.9995
41.0512 16.7437
41.242 16.4467
41.4327 16.3183
41.6236 16.0825
41.8146 15.8812
42.0057 15.6345
42.1969 15.444
42.3882 15.2558
42.5797 15.0283
42.7713 14.8345
42.963 14.5753
43.1549 14.4004
43.3468 14.2554
43.5389 14.0244
43.7312 13.7773
43.9237 13.6852
44.1162 13.4211
44.3088 13.2806
44.5016 13.0625
44.6945 12.9101
44.8875 12.7015
45.0806 12.5682
45.2739 12.4092
45.4673 12.1773
45.6609 11.9885
45.8546 11.8692
46.0484 11.6783
46.2424 11.5468
46.4365 11.3503
46.631 11.1939
46.8254 11.0226
47.0199 10.8763
47.2146 10.7452
47.4095 10.515
47.6044 10.3525
47.7996 10.1925
47.9948 10.047
48.1902 9.9155
48.3858 9.79558
48.5815 9.64495
48.7774 9.53498
48.9734 9.36302
49.1696 9.22881
49.3661 9.03603
49.5626 8.93222
49.7592 8.82937
49.956 8.68386
50.153 8.56903
50.3501 8.43147
50.5474 8.24442
50.7448 8.1926
50.9424 8.02111
51.1402 7.9205
51.3381 7.77984
51.5362 7.64754
51.7344 7.49439
51.9328 7.39518
52.1316 7.25191
52.3304 7.16307
52.5293 7.06777
52.7284 6.93715
52.9276 6.83185
53.1271 6.7336
53.3267 6.56342
53.5265 6.41873
53.7264 6.3434
53.9266 6.26303
54.1269 6.11154
54.3274 6.0042
54.528 5.87668
54.7289 5.70926
54.9301 5.57746
55.1314 5.41412
55.3328 5.2174
55.5344 5.0178
55.7361 4.90932

File: Ni3Fe_FD0499.xy
TT I
1.27165 7.52812
1.45013 6.28457
1.62863 5.23083
1.80712 5.12253
1.98562 4.44194
2.16411 5.14455
2.34263 4.81706
2.52115 6.71168
2.69965 7.07856
2.87818 9.2723
3.05672 11.2597
3.23527 15.0865
3.4138 19.13
3.59237 24.127
3.77094 26.3023
3.9495 30.1491
4.12809 35.7341
4.30669 198.045
4.4853 64.2915
4.6639 56.2765
4.84253 68.2351
5.02118 88.5963
5.19981 401.741
5.37848 204.713
5.55716 103.979
5.73586 93.9546
5.91455 96.1825
6.09328 4152.1
6.27201 84.8969
6.45075 68.5949
6.62952 63.3618
6.8083 59.0715
6.98711 56.4881
7.16591 55.979
7.34475 88.606
7.5236 55.6836
7.70247 57.139
7.88135 58.8712
8.06026 63.0201
8.23919 70.3817
8.41812 86.3303
8.59709 1191.66
8.77609 101.751
8.9551 92.4835
9.13412 83.4039
9.31318 84.0569
9.49226 85.7207
9.67134 99.0132
9.85047 101.523
10.0296 364.595
10.2088 449.846
10.388 106.377
10.5672 502.14
10.7465 88.2248
10.9257 79.459
11.105 72.7713
11.2844 70.8102
11.4637 65.9312
11.6431 64.5727
11.8225 63.4055
12.002 64.4352
12.1814 154.229
12.3609 71.6437
12.5405 65.3267
12.72 70.2466
12.8996 72.06
13.0792 80.1654
13.2589 240.572
13.4386 132.334
13.6183 246.439
13.7981 103.001
13.9779 77.0952
14.1577 73.4609
14.3376 72.4902
14.5175 69.8304
14.6974 71.4697
14.8774 113.224
15.0574 157.66
15.2374 71.8692
15.4175 67.219
15.5976 66.8282
15.7778 97.3408
15.958 160.769
16.1382 63.4853
16.3185 59.5067
16.4988 56.2234
16.6792 55.4393
16.8596 55.9976
17.04 56.4709
17.2205 67.5617
17.401 72.8218
17.5815 60.1227
17.7622 62.1525
17.9428 75.2857
18.1237 136.897
18.3044 91.5206
18.4852 80.7383
18.666 61.2282
18.8469 58.7741
19.0278 57.4963
19.2088 60.5854
19.3898 76.2494
19.5709 55.2077
19.752 54.0576
19.9332 57.1438
20.1144 69.9015
20.2957 64.289
20.477 55.111
20.6586 50.4602
20.84 49.4732
21.0215 49.3223
21.203 51.4627
21.3846 49.8382
21.5662 49.6067
21.7479 53.5707
21.9297 64.7405
22.1115 56.5288
22.2933 50.8141
22.4753 49.5911
22.6572 49.6432
22.8393 52.6236
23.0214 57.9407
23.2037 49.5329
23.3859 50.6044
23.5682 56.9343
23.7505 49.3733
23.9329 45.931
24.1154 44.9173
24.2979 44.0526
24.4805 43.5648
24.6631 43.3556
24.8458 42.8793
25.0286 43.3793
25.2114 45.1266
25.3943 45.1964
25.5773 41.5796
25.7605 41.1016
25.9436 41.4059
26.1268 42.1959
26.31 40.7807
26.4933 41.2066
26.6767 42.6187
26.8601 41.081
27.0437 39.4477
27.2272 39.0882
27.4109 38.8364
27.5946 38.9463
27.7784 38.468
27.9623 38.9379
28.1462 39.3997
28.3304 37.6913
28.5145 36.4239
28.6987 36.119
28.8829 35.8535
29.0673 35.1739
29.2517 34.928
29.4361 34.7035
29.6207 33.6669
29.8053 33.3108
29.99 32.985
30.1748 32.9662
30.3597 32.842
30.5447 32.6364
30.7297 32.6482
30.915 32.1959
31.1002 31.5941
31.2855 31.3118
31.4708 31.2801
31.6563 30.7443
31.8418 30.5588
32.0275 30.4465
32.2132 29.8467
32.399 29.3901
32.5848 28.8636
32.7708 28.5716
32.9569 28.4547
33.143 28.2694
33.3293 27.8484
33.5158 27.4466
33.7022 26.9647
33.8887 26.6818
34.0753 26.3521
34.262 25.939
34.4488 25.6716
34.6357 25.3073
34.8227 25.0627
35.0098 24.8187
35.1969 24.544
35.3842 24.3861
35.5716 24.0981
35.759 23.8031
35.9468 23.4566
36.1345 23.3141
36.3222 23.0
36.5101 22.6886
36.6981 22.4585
36.8861 22.1377
37.0743 21.7825
37.2626 21.5126
37.451 21.3531
37.6395 21.1253
37.8281 20.7756
38.0168 20.4677
38.2056 20.2288
38.3945 19.9916
38.5837 19.6671
38.7728 19.4857
38.9621 19.2296
39.1514 18.9435
39.3409 18.7574
39.5304 18.5
39.7201 18.327
39.9099 18.0902
40.0999 17.8857
40.2899 17.5982
40.48 17.3612
40.6703 17.1759
40.8607 17.0375
41.0512 16.7222
41.242 16.4909
41.4327 16.2789
41.6236 16.0447
41.8146 15.8306
42.0057 15.6294
42.1969 15.4269
42.3882 15.2269
42.5797 15.0516
42.7713 14.85
42.963 14.5987
43.1549 14.4717
43.3468 14.1936
43.5389 14.0703
43.7312 13.8263
43.9237 13.6206
44.1162 13.4524
44.3088 13.2578
44.5016 13.0253
44.6945 12.9413
44.8875 12.7034
45.0806 12.5321
45.2739 12.3564
45.4673 12.1882
45.6609 12.0319
45.8546 11.8698
46.0484 11.672
46.2424 11.5078
46.4365 11.3218
46.631 11.1795
46.8254 11.0055
47.0199 10.8241
47.2146 10.7171
47.4095 10.5588
47.6044 10.3816
47.7996 10.2596
47.9948 10.0674
48.1902 9.94014
48.3858 9.75702
48.5815 9.66774
48.7774 9.53426
48.9734 9.35792
49.1696 9.24097
49.3661 9.08337
49.5626 8.943
49.7592 8.81383
49.956 8.67468
50.153 8.52975
50.3501 8.41975
50.5474 8.27394
50.7448 8.17987
50.9424 8.03319
51.1402 7.94662
51.3381 7.79474
51.5362 7.67643
51.7344 7.54087
51.9328 7.39569
52.1316 7.2635
52.3304 7.13657
52.5293 7.02078
52.7284 6.94327
52.9276 6.82428
53.1271 6.70977
53.3267 6.58789
53.5265 6.46136
53.7264 6.34054
53.9266 6.2572
54.1269 6.19003
54.3274 6.03228
54.528 5.88434
54.7289 5.70976
54.9301 5.57606
55.1314 5.45062
55.3328 5.24589
55.5344 5.03957
55.7361 4.86951

File: Ni3Fe_FD0500.xy
TT I
1.27165 7.5725
1.45013 5.67478
1.62863 5.66598
1.80712 5.09897
1.98562 4.87725
2.16411 5.10506
2.34263 5.52736
2.52115 5.85415
2.69965 7.64409
2.87818 8.59416
3.05672 11.1458
3.23527 14.9535
3.4138 19.0252
3.59237 24.7382
3.77094 26.3161
3.9495 30.6498
4.12809 35.0111
4.30669 199.744
4.4853 64.3677
4.6639 56.3392
4.84253 67.9381
5.02118 88.7576
5.19981 403.309
5.37848 205.038
5.55716 104.357
5.73586 93.7446
5.91455 96.8975
6.09328 4140.56
6.27201 84.8078
6.45075 68.7194
6.62952 63.6423
6.8083 59.552
6.98711 56.2771
7.16591 56.2857
7.34475 88.4705
7.5236 55.6566
7.70247 57.0085
7.88135 58.8912
8.06026 63.3431
8.23919 70.2665
8.41812 87.0497
8.59709 1194.07
8.77609 102.261
8.9551 92.3494
9.13412 83.0507
9.31318 83.7371
9.49226 85.7038
9.67134 99.8026
9.85047 101.508
10.0296 364.912
10.2088 444.463
10.388 106.695
10.5672 499.217
10.7465 88.3149
10.9257 79.3976
11.105 72.6686
11.2844 71.316
11.4637 65.7289
11.6431 64.3751
11.8225 63.3045
12.002 64.6676
12.1814 155.043
12.3609 71.576
12.5405 65.4221
12.72 70.7011
12.8996 72.2171
13.0792 80.068
13.2589 241.18
13.4386 131.863
13.6183 247.013
13.7981 102.714
13.9779 76.8185
14.1577 73.4571
14.3376 72.539
14.5175 69.8421
14.6974 71.3583
14.8774 112.984
15.0574 155.699
15.2374 72.11
15.4175 67.4655
15.5976 66.7583
15.7778 97.39
15.958 159.359
16.1382 63.4586
16.3185 59.5124
16.4988 56.3382
16.6792 55.3541
16.8596 56.1317
17.04 56.6381
17.2205 67.905
17.401 72.4305
17.5815 60.1272
17.7622 61.9232
17.9428 75.3384
18.1237 137.048
18.3044 91.3965
18.4852 80.4262
18.666 61.3961
18.8469 58.9432
19.0278 57.7175
19.2088 60.4852
19.3898 76.2729
19.5709 55.1777
19.752 54.122
19.9332 57.2321
20.1144 69.9579
20.2957 63.93
20.477 54.9492
20.6586 50.3814
20.84 49.7317
21.0215 49.1636
21.203 51.4117
21.3846 49.7669
21.5662 49.4466
21.7479 53.5357
21.9297 64.7044
22.1115 56.5274
22.2933 50.8304
22.4753 49.4976
22.6572 49.5776
22.8393 52.7356
23.0214 57.9855
23.2037 49.5583
23.3859 50.5261
23.5682 57.1385
23.7505 49.3725
23.9329 45.85
24.1154 44.7309
24.2979 44.1486
24.4805 43.4288
24.6631 43.4912
24.8458 42.934
25.0286 43.4761
25.2114 45.192
25.3943 45.1737
25.5773 41.581
25.7605 41.0452
25.9436 41.4553
26.1268 42.2319
26.31 40.738
26.4933 41.3662
26.6767 42.6958
26.8601 41.0699
27.0437 39.4373
27.2272 39.1218
27.4109 38.9563
27.5946 38.9603
27.7784 38.4138
27.9623 38.9211
28.1462 39.3363
28.3304 37.6941
28.5145 36.5445
28.6987 36.0599
28.8829 35.9059
29.0673 35.2385
29.2517 34.9107
29.4361 34.5638
29.6207 33.7484
29.8053 33.2752
29.99 33.0496
30.1748 32.9039
30.3597 32.7232
30.5447 32.6739
30.7297 32.6815
30.915 31.9939
31.1002 31.433
31.2855 31.3968
31.4708 31.2156
31.6563 30.7891
31.8418 30.5838
32.0275 30.4443
32.2132 29.8155
32.399 29.375
32.5848 28.9306
32.7708 28.4596
32.9569 28.4837
33.143 28.1468
33.3293 27.7722
33.5158 27.4367
33.7022 27.0311
33.8887 26.7464
34.0753 26.3906
34.262 26.0363
34.4488 25.5699
34.6357 25.3559
34.8227 25.1045
35.0098 24.8276
35.1969 24.5057
35.3842 24.2819
35.5716 24.0237
35.759 23.7983
35.9468 23.4217
36.1345 23.2123
36.3222 22.9812
36.5101 22.7181
36.6981 22.3935
36.8861 22.0973
37.0743 21.864
37.2626 21.5631
37.451 21.3008
37.6395 21.1738
37.8281 20.7614
38.0168 20.4464
38.2056 20.1608
38.3945 19.9904
38.5837 19.7272
38.7728 19.481
38.9621 19.233
39.1514 18.982
39.3409 18.7592
39.5304 18.5105
39.7201 18.3329
39.9099 18.1047
40.0999 17.8483
40.2899 17.5735
40.48 17.3291
40.6703 17.0817
40.8607 16.9909
41.0512 16.7013
41.242 16.5211
41.4327 16.3241
41.6236 16.0764
41.8146 15.8259
42.0057 15.6193
42.1969 15.4513
42.3882 15.2548
42.5797 15.028
42.7713 14.7917
42.963 14.6355
43.1549 14.4
43.3468 14.211
43.5389 14.0381
43.7312 13.8503
43.9237 13.5997
44.1162 13.439
44.3088 13.3064
44.5016 13.1022
44.6945 12.9107
44.8875 12.7141
45.0806 12.5803
45.2739 12.3505
45.4673 12.2191
45.6609 12.0056
45.8546 11.883
46.0484 11.6889
46.2424 11.5193
46.4365 11.3538
46.631 11.1483
46.8254 11.0216
47.0199 10.8568
47.2146 10.6916
47.4095 10.5497
47.6044 10.3612
47.7996 10.2694
47.9948 10.0505
48.1902 9.94946
48.3858 9.79699
48.5815 9.65763
48.7774 9.54253
48.9734 9.39711
49.1696 9.26244
49.3661 9.09616
49.5626 8.95132
49.7592 8.83887
49.956 8.69507
50.153 8.59359
50.3501 8.42459
50.5474 8.27403
50.7448 8.20091
50.9424 8.05701
51.1402 7.89734
51.3381 7.80846
51.5362 7.63907
51.7344 7.54286
51.9328 7.39984
52.1316 7.2444
52.3304 7.16468
52.5293 7.06321
52.7284 6.92659
52.9276 6.80328
53.1271 6.69992
53.3267 6.56764
53.5265 6.47222
53.7264 6.32999
53.9266 6.24208
54.1269 6.1444
54.3274 6.02668
54.528 5.85266
54.7289 5.7185
54.9301 5.52257
55.1314 5.45744
55.3328 5.21622
55.5344 5.01134
55.7361 4.90221