Folder: NiFe_MOF_catalyst_paper/XRD (part 153)

File: Ni3Fe_FD0830.xy
TT I
1.27165 7.12372
1.45013 6.2847
1.62863 5.1497
1.80712 4.9312
1.98562 5.0096
2.16411 4.78342
2.34263 5.92954
2.52115 7.21804
2.69965 8.26768
2.87818 8.78944
3.05672 10.8115
3.23527 14.6782
3.4138 18.7973
3.59237 22.8934
3.77094 25.3214
3.9495 29.0077
4.12809 34.3011
4.30669 91.6424
4.4853 52.9984
4.6639 55.3896
4.84253 68.8403
5.02118 86.7073
5.19981 409.38
5.37848 194.464
5.55716 102.197
5.73586 92.4051
5.91455 94.9971
6.09328 4530.23
6.27201 79.3568
6.45075 70.4694
6.62952 62.3422
6.8083 59.2363
6.98711 54.887
7.16591 55.8635
7.34475 64.2756
7.5236 53.8636
7.70247 57.1324
7.88135 56.9621
8.06026 62.3012
8.23919 68.7196
8.41812 83.0852
8.59709 1224.07
8.77609 96.4611
8.9551 89.2552
9.13412 82.7604
9.31318 84.8437
9.49226 84.7751
9.67134 94.7877
9.85047 101.23
10.0296 348.005
10.2088 343.859
10.388 104.575
10.5672 540.212
10.7465 85.615
10.9257 77.2102
11.105 71.1967
11.2844 67.6667
11.4637 64.1856
11.6431 62.8685
11.8225 62.3098
12.002 64.2464
12.1814 162.69
12.3609 65.7812
12.5405 64.703
12.72 67.0928
12.8996 70.9526
13.0792 80.3636
13.2589 251.367
13.4386 116.22
13.6183 260.716
13.7981 93.0041
13.9779 75.3849
14.1577 71.0967
14.3376 69.3654
14.5175 68.1857
14.6974 70.1255
14.8774 112.642
15.0574 138.706
15.2374 68.6323
15.4175 65.8245
15.5976 65.3274
15.7778 96.0378
15.958 145.695
16.1382 60.7136
16.3185 57.089
16.4988 54.9834
16.6792 54.0363
16.8596 54.3846
17.04 55.6394
17.2205 67.0989
17.401 68.1482
17.5815 58.7168
17.7622 60.8444
17.9428 73.3776
18.1237 141.819
18.3044 91.3698
18.4852 73.6211
18.666 59.6129
18.8469 57.6031
19.0278 56.3469
19.2088 58.8499
19.3898 75.1138
19.5709 53.458
19.752 52.9862
19.9332 55.7513
20.1144 69.7296
20.2957 64.0138
20.477 52.1128
20.6586 49.0804
20.84 48.3638
21.0215 48.0922
21.203 50.6337
21.3846 48.286
21.5662 48.4887
21.7479 52.5401
21.9297 63.7287
22.1115 55.7363
22.2933 49.0285
22.4753 48.1508
22.6572 48.597
22.8393 51.5837
23.0214 56.3591
23.2037 48.2123
23.3859 49.2134
23.5682 56.8489
23.7505 47.29
23.9329 44.702
24.1154 43.4796
24.2979 43.0436
24.4805 42.4734
24.6631 42.3071
24.8458 41.8233
25.0286 42.546
25.2114 44.2491
25.3943 43.9691
25.5773 40.3172
25.7605 40.0004
25.9436 40.5002
26.1268 41.2079
26.31 39.6366
26.4933 40.2913
26.6767 41.6321
26.8601 40.0337
27.0437 38.4401
27.2272 38.0725
27.4109 38.0524
27.5946 37.8625
27.7784 37.4905
27.9623 38.054
28.1462 38.3326
28.3304 36.6629
28.5145 35.6508
28.6987 35.2581
28.8829 35.0719
29.0673 34.2521
29.2517 33.9875
29.4361 33.7774
29.6207 32.7146
29.8053 32.5091
29.99 32.1941
30.1748 32.0487
30.3597 31.8707
30.5447 31.8864
30.7297 31.8911
30.915 31.2922
31.1002 30.8011
31.2855 30.5694
31.4708 30.5161
31.6563 29.9972
31.8418 29.7775
32.0275 29.6055
32.2132 29.085
32.399 28.5792
32.5848 28.1544
32.7708 27.8032
32.9569 27.6465
33.143 27.4839
33.3293 27.059
33.5158 26.7483
33.7022 26.2863
33.8887 26.0471
34.0753 25.6517
34.262 25.3332
34.4488 25.0582
34.6357 24.6341
34.8227 24.4163
35.0098 24.2821
35.1969 23.8833
35.3842 23.6994
35.5716 23.5074
35.759 23.2722
35.9468 22.8183
36.1345 22.6561
36.3222 22.4069
36.5101 22.2135
36.6981 21.8273
36.8861 21.5605
37.0743 21.2504
37.2626 21.0212
37.451 20.7805
37.6395 20.5668
37.8281 20.2326
38.0168 19.9952
38.2056 19.6624
38.3945 19.4867
38.5837 19.1718
38.7728 18.9847
38.9621 18.7683
39.1514 18.4971
39.3409 18.3038
39.5304 18.0814
39.7201 17.7786
39.9099 17.6821
40.0999 17.3799
40.2899 17.139
40.48 16.9298
40.6703 16.689
40.8607 16.5483
41.0512 16.2979
41.242 16.101
41.4327 15.8486
41.6236 15.67
41.8146 15.4973
42.0057 15.2618
42.1969 14.9859
42.3882 14.8336
42.5797 14.6583
42.7713 14.4881
42.963 14.2595
43.1549 14.0556
43.3468 13.8378
43.5389 13.6662
43.7312 13.4942
43.9237 13.2603
44.1162 13.0904
44.3088 12.9234
44.5016 12.7489
44.6945 12.5823
44.8875 12.4191
45.0806 12.248
45.2739 12.0212
45.4673 11.9123
45.6609 11.7201
45.8546 11.5706
46.0484 11.4329
46.2424 11.2369
46.4365 11.0701
46.631 10.9496
46.8254 10.7263
47.0199 10.5761
47.2146 10.4461
47.4095 10.269
47.6044 10.1125
47.7996 9.96359
47.9948 9.81927
48.1902 9.67365
48.3858 9.52798
48.5815 9.44016
48.7774 9.29105
48.9734 9.17846
49.1696 8.99705
49.3661 8.87002
49.5626 8.71147
49.7592 8.60213
49.956 8.45759
50.153 8.35338
50.3501 8.22555
50.5474 8.07735
50.7448 7.98097
50.9424 7.83009
51.1402 7.70226
51.3381 7.58063
51.5362 7.45944
51.7344 7.39338
51.9328 7.2126
52.1316 7.11578
52.3304 7.00223
52.5293 6.85832
52.7284 6.75384
52.9276 6.65543
53.1271 6.5522
53.3267 6.44944
53.5265 6.31294
53.7264 6.18459
53.9266 6.07994
54.1269 5.98213
54.3274 5.83019
54.528 5.73426
54.7289 5.54415
54.9301 5.412
55.1314 5.33045
55.3328 5.06133
55.5344 4.88652
55.7361 4.79437

File: Ni3Fe_FD0831.xy
TT I
1.27165 7.17425
1.45013 6.14893
1.62863 5.39006
1.80712 5.00584
1.98562 4.39826
2.16411 4.67134
2.34263 5.29937
2.52115 7.4195
2.69965 9.19341
2.87818 8.92903
3.05672 11.4615
3.23527 15.1482
3.4138 18.2431
3.59237 22.8935
3.77094 25.6555
3.9495 29.3535
4.12809 34.3625
4.30669 91.1252
4.4853 52.4369
4.6639 55.2736
4.84253 68.5825
5.02118 86.7641
5.19981 385.409
5.37848 195.807
5.55716 102.105
5.73586 92.749
5.91455 94.865
6.09328 4515.37
6.27201 78.8699
6.45075 69.9784
6.62952 62.9893
6.8083 59.3177
6.98711 55.1983
7.16591 55.9678
7.34475 64.1761
7.5236 53.7589
7.70247 56.6905
7.88135 57.1182
8.06026 61.9761
8.23919 69.1388
8.41812 83.1055
8.59709 1215.08
8.77609 97.0162
8.9551 89.2359
9.13412 82.4399
9.31318 85.1067
9.49226 84.3971
9.67134 94.939
9.85047 101.453
10.0296 344.754
10.2088 355.041
10.388 103.82
10.5672 535.372
10.7465 85.949
10.9257 77.2656
11.105 70.8458
11.2844 67.8038
11.4637 64.4238
11.6431 62.851
11.8225 62.0909
12.002 63.6937
12.1814 161.854
12.3609 65.8547
12.5405 64.5416
12.72 67.3669
12.8996 71.1034
13.0792 79.4704
13.2589 249.748
13.4386 117.253
13.6183 258.556
13.7981 93.8324
13.9779 75.3193
14.1577 71.0839
14.3376 69.4621
14.5175 68.4703
14.6974 69.989
14.8774 112.097
15.0574 141.907
15.2374 68.6198
15.4175 65.6529
15.5976 65.3201
15.7778 96.1039
15.958 148.264
16.1382 60.5976
16.3185 57.1981
16.4988 54.7827
16.6792 54.0315
16.8596 54.2796
17.04 55.3286
17.2205 66.8754
17.401 68.9437
17.5815 58.7144
17.7622 60.8067
17.9428 73.3015
18.1237 141.041
18.3044 91.1388
18.4852 74.1597
18.666 59.8957
18.8469 57.5237
19.0278 56.3317
19.2088 58.7325
19.3898 75.109
19.5709 53.5407
19.752 52.6991
19.9332 55.724
20.1144 69.5506
20.2957 63.9793
20.477 52.3228
20.6586 49.1666
20.84 48.2445
21.0215 48.0495
21.203 50.5144
21.3846 48.3666
21.5662 48.4965
21.7479 52.3935
21.9297 64.1116
22.1115 55.6672
22.2933 48.9763
22.4753 48.1224
22.6572 48.2798
22.8393 51.7004
23.0214 56.3963
23.2037 48.2549
23.3859 49.3433
23.5682 56.9684
23.7505 47.3646
23.9329 44.7181
24.1154 43.6901
24.2979 42.8493
24.4805 42.4835
24.6631 42.3399
24.8458 41.7957
25.0286 42.4658
25.2114 44.2056
25.3943 43.8725
25.5773 40.557
25.7605 39.9839
25.9436 40.4641
26.1268 41.2503
26.31 39.6505
26.4933 40.2343
26.6767 41.7703
26.8601 39.9944
27.0437 38.4261
27.2272 37.9834
27.4109 38.1099
27.5946 38.0578
27.7784 37.3782
27.9623 38.1519
28.1462 38.2848
28.3304 36.6747
28.5145 35.4748
28.6987 35.3664
28.8829 35.0696
29.0673 34.2903
29.2517 33.9554
29.4361 33.7064
29.6207 32.6905
29.8053 32.501
29.99 32.2268
30.1748 32.0607
30.3597 31.8582
30.5447 31.7758
30.7297 31.9345
30.915 31.276
31.1002 30.7753
31.2855 30.4928
31.4708 30.5296
31.6563 30.0186
31.8418 29.9236
32.0275 29.554
32.2132 29.0063
32.399 28.5626
32.5848 28.2333
32.7708 27.8638
32.9569 27.7179
33.143 27.5517
33.3293 27.0784
33.5158 26.7586
33.7022 26.3855
33.8887 26.0122
34.0753 25.6975
34.262 25.3941
34.4488 25.0056
34.6357 24.7764
34.8227 24.4445
35.0098 24.2074
35.1969 23.9771
35.3842 23.7758
35.5716 23.4688
35.759 23.2392
35.9468 22.8906
36.1345 22.6525
36.3222 22.3992
36.5101 22.2127
36.6981 21.8619
36.8861 21.5818
37.0743 21.1753
37.2626 20.9923
37.451 20.7433
37.6395 20.5894
37.8281 20.2603
38.0168 19.9525
38.2056 19.712
38.3945 19.4616
38.5837 19.215
38.7728 18.9637
38.9621 18.7709
39.1514 18.4783
39.3409 18.2735
39.5304 18.0824
39.7201 17.8397
39.9099 17.5986
40.0999 17.3796
40.2899 17.1395
40.48 16.908
40.6703 16.729
40.8607 16.5444
41.0512 16.3006
41.242 16.0972
41.4327 15.8494
41.6236 15.6611
41.8146 15.5345
42.0057 15.2822
42.1969 14.9906
42.3882 14.8872
42.5797 14.6327
42.7713 14.4479
42.963 14.2503
43.1549 14.082
43.3468 13.8957
43.5389 13.6516
43.7312 13.4695
43.9237 13.2868
44.1162 13.1121
44.3088 12.9186
44.5016 12.7374
44.6945 12.5936
44.8875 12.3906
45.0806 12.2603
45.2739 12.0706
45.4673 11.8873
45.6609 11.7114
45.8546 11.5434
46.0484 11.3692
46.2424 11.2126
46.4365 11.0693
46.631 10.89
46.8254 10.7001
47.0199 10.5673
47.2146 10.4302
47.4095 10.2376
47.6044 10.1299
47.7996 9.97492
47.9948 9.84923
48.1902 9.68258
48.3858 9.57699
48.5815 9.39001
48.7774 9.29159
48.9734 9.13227
49.1696 8.98968
49.3661 8.8252
49.5626 8.71233
49.7592 8.58366
49.956 8.47517
50.153 8.33597
50.3501 8.20748
50.5474 8.09967
50.7448 7.96505
50.9424 7.85305
51.1402 7.68686
51.3381 7.59695
51.5362 7.47753
51.7344 7.31043
51.9328 7.24195
52.1316 7.08699
52.3304 6.99213
52.5293 6.86956
52.7284 6.76778
52.9276 6.62245
53.1271 6.53973
53.3267 6.44977
53.5265 6.32
53.7264 6.17895
53.9266 6.08833
54.1269 6.00478
54.3274 5.88971
54.528 5.75372
54.7289 5.55731
54.9301 5.43095
55.1314 5.23874
55.3328 5.07514
55.5344 4.91073
55.7361 4.81097

File: Ni3Fe_FD0832.xy
TT I
1.27165 7.59151
1.45013 6.37608
1.62863 5.40789
1.80712 4.73321
1.98562 5.05303
2.16411 5.02261
2.34263 5.45635
2.52115 7.46329
2.69965 8.28515
2.87818 9.07174
3.05672 11.4739
3.23527 15.2329
3.4138 18.5806
3.59237 22.9694
3.77094 25.605
3.9495 29.5158
4.12809 34.648
4.30669 101.717
4.4853 54.0218
4.6639 55.1059
4.84253 68.457
5.02118 88.299
5.19981 357.779
5.37848 194.42
5.55716 102.033
5.73586 92.5864
5.91455 94.6134
6.09328 4341.66
6.27201 80.0994
6.45075 69.3951
6.62952 62.5065
6.8083 58.8677
6.98711 55.1326
7.16591 56.843
7.34475 65.6122
7.5236 54.0467
7.70247 56.7582
7.88135 57.5275
8.06026 62.4491
8.23919 69.1179
8.41812 83.1143
8.59709 1195.77
8.77609 98.1602
8.9551 88.8652
9.13412 82.4944
9.31318 84.2078
9.49226 84.3556
9.67134 94.4637
9.85047 100.832
10.0296 345.885
10.2088 386.722
10.388 103.431
10.5672 524.594
10.7465 85.8963
10.9257 77.4824
11.105 70.7248
11.2844 68.111
11.4637 64.3698
11.6431 62.836
11.8225 62.3846
12.002 63.5528
12.1814 156.535
12.3609 66.4052
12.5405 64.3878
12.72 67.4193
12.8996 70.9266
13.0792 79.4139
13.2589 247.22
13.4386 121.148
13.6183 255.417
13.7981 96.368
13.9779 75.0807
14.1577 71.6126
14.3376 69.6402
14.5175 68.2101
14.6974 69.9182
14.8774 112.33
15.0574 144.581
15.2374 69.1882
15.4175 65.9391
15.5976 65.2426
15.7778 95.9358
15.958 149.963
16.1382 60.7898
16.3185 57.3742
16.4988 54.9022
16.6792 53.9783
16.8596 54.3337
17.04 55.4549
17.2205 66.8155
17.401 69.6358
17.5815 58.6172
17.7622 60.6822
17.9428 73.2361
18.1237 138.172
18.3044 90.8922
18.4852 75.4466
18.666 59.695
18.8469 57.5325
19.0278 56.217
19.2088 58.767
19.3898 74.2868
19.5709 53.6145
19.752 52.7707
19.9332 55.7668
20.1144 69.1445
20.2957 63.6538
20.477 52.7822
20.6586 49.0892
20.84 48.3793
21.0215 48.0225
21.203 50.1829
21.3846 48.5144
21.5662 48.3522
21.7479 52.4055
21.9297 63.8892
22.1115 55.5786
22.2933 49.2698
22.4753 48.1452
22.6572 48.345
22.8393 51.6463
23.0214 56.3897
23.2037 48.2309
23.3859 49.2189
23.5682 56.4516
23.7505 47.6731
23.9329 44.6919
24.1154 43.6952
24.2979 42.9719
24.4805 42.4099
24.6631 42.3321
24.8458 41.6063
25.0286 42.4094
25.2114 44.145
25.3943 44.0064
25.5773 40.4788
25.7605 40.0593
25.9436 40.4793
26.1268 41.2367
26.31 39.6448
26.4933 40.3274
26.6767 41.6667
26.8601 40.0855
27.0437 38.582
27.2272 38.0501
27.4109 38.0828
27.5946 38.0463
27.7784 37.6118
27.9623 38.1276
28.1462 38.4404
28.3304 36.8323
28.5145 35.6149
28.6987 35.2556
28.8829 35.1125
29.0673 34.3125
29.2517 34.0404
29.4361 33.7434
29.6207 32.8434
29.8053 32.5346
29.99 32.17
30.1748 32.1466
30.3597 31.9679
30.5447 31.9288
30.7297 31.8967
30.915 31.1892
31.1002 30.7356
31.2855 30.4821
31.4708 30.6437
31.6563 29.9543
31.8418 29.8482
32.0275 29.5819
32.2132 29.096
32.399 28.6053
32.5848 28.2036
32.7708 27.9044
32.9569 27.7089
33.143 27.5467
33.3293 27.195
33.5158 26.7668
33.7022 26.2415
33.8887 25.9872
34.0753 25.6801
34.262 25.3561
34.4488 24.9727
34.6357 24.7924
34.8227 24.4623
35.0098 24.2565
35.1969 23.8977
35.3842 23.7503
35.5716 23.493
35.759 23.2731
35.9468 22.8569
36.1345 22.6526
36.3222 22.3711
36.5101 22.1743
36.6981 21.8901
36.8861 21.5772
37.0743 21.2379
37.2626 21.0544
37.451 20.7392
37.6395 20.5851
37.8281 20.2576
38.0168 19.9668
38.2056 19.7135
38.3945 19.4625
38.5837 19.2713
38.7728 19.0894
38.9621 18.7728
39.1514 18.4816
39.3409 18.267
39.5304 18.049
39.7201 17.8629
39.9099 17.6435
40.0999 17.3974
40.2899 17.1405
40.48 16.9338
40.6703 16.775
40.8607 16.5136
41.0512 16.3432
41.242 16.0565
41.4327 15.9127
41.6236 15.6318
41.8146 15.436
42.0057 15.2347
42.1969 15.0837
42.3882 14.9213
42.5797 14.6528
42.7713 14.4322
42.963 14.2882
43.1549 14.1198
43.3468 13.8297
43.5389 13.6909
43.7312 13.4816
43.9237 13.3355
44.1162 13.1092
44.3088 12.9492
44.5016 12.7649
44.6945 12.5939
44.8875 12.4054
45.0806 12.2816
45.2739 12.0968
45.4673 11.9133
45.6609 11.6875
45.8546 11.5833
46.0484 11.3558
46.2424 11.2452
46.4365 11.0926
46.631 10.9027
46.8254 10.7737
47.0199 10.6262
47.2146 10.4491
47.4095 10.2885
47.6044 10.1262
47.7996 9.97501
47.9948 9.83004
48.1902 9.6947
48.3858 9.5339
48.5815 9.40937
48.7774 9.28701
48.9734 9.18331
49.1696 8.97881
49.3661 8.8481
49.5626 8.73442
49.7592 8.59252
49.956 8.47839
50.153 8.35096
50.3501 8.20185
50.5474 8.08465
50.7448 7.9509
50.9424 7.81708
51.1402 7.72334
51.3381 7.57809
51.5362 7.47487
51.7344 7.34129
51.9328 7.19902
52.1316 7.09159
52.3304 6.99471
52.5293 6.93265
52.7284 6.79878
52.9276 6.64741
53.1271 6.54848
53.3267 6.44388
53.5265 6.29478
53.7264 6.20605
53.9266 6.02923
54.1269 5.9782
54.3274 5.91687
54.528 5.7519
54.7289 5.56707
54.9301 5.3768
55.1314 5.3014
55.3328 5.09066
55.5344 4.89752
55.7361 4.77136

File: Ni3Fe_FD0833.xy
TT I
1.27165 7.15099
1.45013 6.28305
1.62863 4.58287
1.80712 5.1405
1.98562 4.56985
2.16411 4.56694
2.34263 5.313
2.52115 6.76184
2.69965 8.45383
2.87818 8.96927
3.05672 11.1772
3.23527 15.4859
3.4138 18.2973
3.59237 23.1536
3.77094 25.7962
3.9495 29.8349
4.12809 34.3434
4.30669 115.674
4.4853 54.6854
4.6639 55.6146
4.84253 68.2737
5.02118 87.4623
5.19981 350.112
5.37848 191.354
5.55716 101.577
5.73586 92.2855
5.91455 94.389
6.09328 4347.55
6.27201 80.3328
6.45075 68.8265
6.62952 62.3934
6.8083 58.833
6.98711 55.5119
7.16591 56.2832
7.34475 69.2805
7.5236 54.1267
7.70247 56.3176
7.88135 57.3768
8.06026 62.3186
8.23919 69.0072
8.41812 83.6473
8.59709 1193.48
8.77609 97.7696
8.9551 88.8916
9.13412 82.4553
9.31318 83.8733
9.49226 84.0987
9.67134 94.7409
9.85047 100.451
10.0296 343.786
10.2088 396.74
10.388 103.285
10.5672 525.768
10.7465 85.6177
10.9257 77.6564
11.105 70.9283
11.2844 68.2541
11.4637 64.1666
11.6431 63.0172
11.8225 62.2234
12.002 63.2939
12.1814 156.077
12.3609 67.0745
12.5405 64.0787
12.72 67.5491
12.8996 70.7398
13.0792 78.9783
13.2589 246.206
13.4386 121.767
13.6183 253.926
13.7981 96.8718
13.9779 75.3059
14.1577 71.3056
14.3376 69.6709
14.5175 68.3778
14.6974 69.6171
14.8774 111.809
15.0574 144.662
15.2374 69.1159
15.4175 65.7244
15.5976 65.1706
15.7778 95.4545
15.958 150.89
16.1382 60.8915
16.3185 57.3845
16.4988 54.859
16.6792 53.7958
16.8596 54.5564
17.04 55.4677
17.2205 66.787
17.401 69.624
17.5815 58.828
17.7622 60.9516
17.9428 72.944
18.1237 137.556
18.3044 91.1867
18.4852 75.7483
18.666 59.7289
18.8469 57.4917
19.0278 56.2059
19.2088 58.7227
19.3898 74.4053
19.5709 53.5384
19.752 52.8199
19.9332 55.7862
20.1144 69.0455
20.2957 63.6222
20.477 52.8779
20.6586 49.0847
20.84 48.4213
21.0215 48.1179
21.203 50.3981
21.3846 48.4337
21.5662 48.6468
21.7479 52.3641
21.9297 63.8451
22.1115 55.598
22.2933 49.2516
22.4753 48.2011
22.6572 48.1788
22.8393 51.7042
23.0214 56.3722
23.2037 48.3617
23.3859 49.3238
23.5682 56.5127
23.7505 47.8574
23.9329 44.8844
24.1154 43.7112
24.2979 43.0037
24.4805 42.5494
24.6631 42.3379
24.8458 41.7853
25.0286 42.4616
25.2114 44.1562
25.3943 43.9699
25.5773 40.4648
25.7605 40.0313
25.9436 40.4371
26.1268 41.1536
26.31 39.723
26.4933 40.3281
26.6767 41.6719
26.8601 39.9701
27.0437 38.3636
27.2272 38.0372
27.4109 38.0713
27.5946 38.0245
27.7784 37.5366
27.9623 38.1628
28.1462 38.4241
28.3304 36.7768
28.5145 35.6757
28.6987 35.251
28.8829 35.0325
29.0673 34.3423
29.2517 33.9791
29.4361 33.7098
29.6207 32.7524
29.8053 32.5658
29.99 32.3614
30.1748 32.2021
30.3597 31.9918
30.5447 31.8512
30.7297 31.8436
30.915 31.2352
31.1002 30.903
31.2855 30.5899
31.4708 30.5007
31.6563 30.0768
31.8418 29.8852
32.0275 29.6359
32.2132 29.0107
32.399 28.6871
32.5848 28.1667
32.7708 27.9065
32.9569 27.7326
33.143 27.5682
33.3293 27.0984
33.5158 26.705
33.7022 26.3054
33.8887 26.0612
34.0753 25.7932
34.262 25.3389
34.4488 25.0228
34.6357 24.6779
34.8227 24.4739
35.0098 24.2637
35.1969 23.9986
35.3842 23.7796
35.5716 23.5535
35.759 23.2411
35.9468 22.9065
36.1345 22.6626
36.3222 22.3961
36.5101 22.1786
36.6981 21.9173
36.8861 21.5489
37.0743 21.1922
37.2626 21.036
37.451 20.7774
37.6395 20.6538
37.8281 20.3028
38.0168 19.8553
38.2056 19.7284
38.3945 19.4013
38.5837 19.2265
38.7728 19.0061
38.9621 18.732
39.1514 18.4828
39.3409 18.2718
39.5304 17.9817
39.7201 17.8778
39.9099 17.6503
40.0999 17.3746
40.2899 17.1569
40.48 16.8959
40.6703 16.6875
40.8607 16.5223
41.0512 16.3585
41.242 16.1299
41.4327 15.9299
41.6236 15.6602
41.8146 15.503
42.0057 15.253
42.1969 15.0506
42.3882 14.8745
42.5797 14.7154
42.7713 14.4331
42.963 14.3034
43.1549 14.0757
43.3468 13.8312
43.5389 13.7268
43.7312 13.4683
43.9237 13.3219
44.1162 13.1451
44.3088 12.9865
44.5016 12.7761
44.6945 12.5887
44.8875 12.4002
45.0806 12.2298
45.2739 12.0746
45.4673 11.9273
45.6609 11.7139
45.8546 11.5899
46.0484 11.4031
46.2424 11.2404
46.4365 11.1283
46.631 10.9058
46.8254 10.7495
47.0199 10.5931
47.2146 10.4332
47.4095 10.3082
47.6044 10.1037
47.7996 9.98123
47.9948 9.84515
48.1902 9.70322
48.3858 9.5689
48.5815 9.39892
48.7774 9.28703
48.9734 9.14649
49.1696 9.04464
49.3661 8.85861
49.5626 8.73408
49.7592 8.61955
49.956 8.4592
50.153 8.34133
50.3501 8.19548
50.5474 8.09108
50.7448 7.96827
50.9424 7.80706
51.1402 7.74685
51.3381 7.5801
51.5362 7.46024
51.7344 7.36256
51.9328 7.22155
52.1316 7.10852
52.3304 7.01138
52.5293 6.90811
52.7284 6.73197
52.9276 6.63393
53.1271 6.54755
53.3267 6.39449
53.5265 6.29934
53.7264 6.20714
53.9266 6.10464
54.1269 6.00826
54.3274 5.88658
54.528 5.71856
54.7289 5.56541
54.9301 5.40982
55.1314 5.30203
55.3328 5.10058
55.5344 4.8656
55.7361 4.75776

File: Ni3Fe_FD0834.xy
TT I
1.27165 7.10448
1.45013 5.72623
1.62863 4.87345
1.80712 4.82012
1.98562 4.94873
2.16411 4.39022
2.34263 5.61424
2.52115 7.24741
2.69965 8.96498
2.87818 8.25673
3.05672 11.4177
3.23527 15.4332
3.4138 18.639
3.59237 23.1487
3.77094 25.561
3.9495 29.7656
4.12809 34.116
4.30669 127.986
4.4853 55.9504
4.6639 55.1085
4.84253 67.8905
5.02118 87.2892
5.19981 341.483
5.37848 189.259
5.55716 101.619
5.73586 91.919
5.91455 93.6088
6.09328 4311.78
6.27201 80.233
6.45075 68.238
6.62952 61.8656
6.8083 58.4222
6.98711 55.3174
7.16591 55.7571
7.34475 71.6928
7.5236 54.1958
7.70247 55.9899
7.88135 57.2526
8.06026 62.2367
8.23919 68.9007
8.41812 83.3369
8.59709 1186.18
8.77609 97.5598
8.9551 89.194
9.13412 82.1427
9.31318 83.2889
9.49226 84.0422
9.67134 94.958
9.85047 99.9805
10.0296 339.392
10.2088 404.237
10.388 103.142
10.5672 523.491
10.7465 85.6731
10.9257 77.3958
11.105 70.8356
11.2844 68.1385
11.4637 64.0409
11.6431 62.8909
11.8225 61.8191
12.002 63.2746
12.1814 155.653
12.3609 67.2939
12.5405 64.0522
12.72 67.6324
12.8996 70.4697
13.0792 78.6213
13.2589 244.878
13.4386 122.848
13.6183 252.237
13.7981 96.8962
13.9779 75.1647
14.1577 71.3923
14.3376 69.9359
14.5175 68.3559
14.6974 69.7016
14.8774 111.02
15.0574 145.618
15.2374 68.9747
15.4175 65.7638
15.5976 64.8216
15.7778 94.9785
15.958 151.576
16.1382 61.0388
16.3185 57.4639
16.4988 54.9449
16.6792 53.8476
16.8596 54.3579
17.04 55.3726
17.2205 66.6575
17.401 69.8971
17.5815 58.6431
17.7622 60.7396
17.9428 73.089
18.1237 137.843
18.3044 91.0931
18.4852 76.1255
18.666 59.7944
18.8469 57.5368
19.0278 56.1442
19.2088 58.683
19.3898 74.3873
19.5709 53.5099
19.752 52.6586
19.9332 55.7017
20.1144 69.2576
20.2957 63.6369
20.477 52.8623
20.6586 49.181
20.84 48.3413
21.0215 48.0476
21.203 50.2959
21.3846 48.4172
21.5662 48.3709
21.7479 52.3217
21.9297 63.7256
22.1115 55.4835
22.2933 49.348
22.4753 48.4264
22.6572 48.4289
22.8393 51.7887
23.0214 56.4117
23.2037 48.3197
23.3859 49.2873
23.5682 56.4917
23.7505 47.8268
23.9329 44.8767
24.1154 43.5638
24.2979 43.0075
24.4805 42.4485
24.6631 42.3937
24.8458 41.8368
25.0286 42.5044
25.2114 44.2698
25.3943 44.0667
25.5773 40.5872
25.7605 40.1678
25.9436 40.5071
26.1268 41.2559
26.31 39.7228
26.4933 40.4074
26.6767 41.6397
26.8601 39.9623
27.0437 38.4978
27.2272 38.1308
27.4109 37.922
27.5946 37.9951
27.7784 37.4421
27.9623 38.1033
28.1462 38.3555
28.3304 36.8923
28.5145 35.597
28.6987 35.2357
28.8829 35.1092
29.0673 34.3425
29.2517 33.9994
29.4361 33.7553
29.6207 32.7771
29.8053 32.5243
29.99 32.2427
30.1748 32.1425
30.3597 31.9135
30.5447 31.8557
30.7297 31.9695
30.915 31.1953
31.1002 30.8536
31.2855 30.5301
31.4708 30.5016
31.6563 30.0515
31.8418 29.7565
32.0275 29.4774
32.2132 29.0985
32.399 28.6811
32.5848 28.1635
32.7708 27.8306
32.9569 27.6948
33.143 27.5967
33.3293 27.1289
33.5158 26.827
33.7022 26.4052
33.8887 26.0728
34.0753 25.7612
34.262 25.4255
34.4488 25.0128
34.6357 24.7134
34.8227 24.4582
35.0098 24.2335
35.1969 24.039
35.3842 23.7837
35.5716 23.5497
35.759 23.2436
35.9468 22.8546
36.1345 22.7164
36.3222 22.4735
36.5101 22.2472
36.6981 21.8764
36.8861 21.5875
37.0743 21.3596
37.2626 21.0727
37.451 20.8274
37.6395 20.6201
37.8281 20.2082
38.0168 20.0428
38.2056 19.7352
38.3945 19.4758
38.5837 19.2815
38.7728 19.0793
38.9621 18.7946
39.1514 18.5247
39.3409 18.3376
39.5304 18.0815
39.7201 17.8474
39.9099 17.6247
40.0999 17.4197
40.2899 17.1599
40.48 16.9511
40.6703 16.7322
40.8607 16.6047
41.0512 16.3809
41.242 16.0856
41.4327 15.9122
41.6236 15.6254
41.8146 15.4923
42.0057 15.2834
42.1969 15.069
42.3882 14.8423
42.5797 14.6687
42.7713 14.5112
42.963 14.2316
43.1549 14.1177
43.3468 13.8565
43.5389 13.691
43.7312 13.5274
43.9237 13.3321
44.1162 13.1384
44.3088 12.9288
44.5016 12.7537
44.6945 12.5829
44.8875 12.4191
45.0806 12.2531
45.2739 12.0668
45.4673 11.8924
45.6609 11.7466
45.8546 11.5679
46.0484 11.4274
46.2424 11.2392
46.4365 11.0754
46.631 10.9058
46.8254 10.7658
47.0199 10.6134
47.2146 10.4374
47.4095 10.2768
47.6044 10.1082
47.7996 9.96667
47.9948 9.79343
48.1902 9.75483
48.3858 9.55793
48.5815 9.41553
48.7774 9.28094
48.9734 9.11399
49.1696 9.01673
49.3661 8.86451
49.5626 8.71726
49.7592 8.62394
49.956 8.49117
50.153 8.33567
50.3501 8.22858
50.5474 8.08706
50.7448 7.95464
50.9424 7.82807
51.1402 7.73442
51.3381 7.57142
51.5362 7.4951
51.7344 7.34454
51.9328 7.23187
52.1316 7.08896
52.3304 6.97715
52.5293 6.87017
52.7284 6.72963
52.9276 6.67398
53.1271 6.52822
53.3267 6.41568
53.5265 6.36513
53.7264 6.22585
53.9266 6.1182
54.1269 5.9413
54.3274 5.85955
54.528 5.70385
54.7289 5.55621
54.9301 5.37082
55.1314 5.30844
55.3328 5.0861
55.5344 4.89803
55.7361 4.75241