Folder: NiFe_MOF_catalyst_paper/XRD (part 11)

File: Ni3Fe_FD0054.xy
TT I
1.27165 32.6046
1.45013 26.6327
1.62863 23.5466
1.80712 21.4257
1.98562 20.4034
2.16411 20.5797
2.34263 21.1791
2.52115 21.3241
2.69965 26.0623
2.87818 35.9994
3.05672 63.5062
3.23527 66.4169
3.4138 34.2123
3.59237 27.2807
3.77094 26.0128
3.9495 27.2821
4.12809 29.5256
4.30669 37.8213
4.4853 37.5641
4.6639 42.8473
4.84253 55.0447
5.02118 105.03
5.19981 317.356
5.37848 3076.08
5.55716 150.165
5.73586 103.411
5.91455 119.115
6.09328 578.24
6.27201 216.056
6.45075 64.3617
6.62952 47.8164
6.8083 41.8475
6.98711 41.4544
7.16591 43.6519
7.34475 39.3378
7.5236 60.5224
7.70247 44.0753
7.88135 38.6108
8.06026 41.0935
8.23919 46.8781
8.41812 59.8033
8.59709 187.907
8.77609 356.258
8.9551 74.8989
9.13412 65.3632
9.31318 323.322
9.49226 59.2821
9.67134 58.0122
9.85047 64.0714
10.0296 121.62
10.2088 693.205
10.388 99.0669
10.5672 99.1015
10.7465 193.741
10.9257 52.0223
11.105 45.3874
11.2844 43.2317
11.4637 40.3639
11.6431 39.5216
11.8225 40.083
12.002 116.247
12.1814 50.9001
12.3609 84.5573
12.5405 42.5919
12.72 40.0783
12.8996 41.7485
13.0792 48.5879
13.2589 69.0154
13.4386 189.275
13.6183 80.2633
13.7981 182.434
13.9779 54.8769
14.1577 65.8294
14.3376 46.9932
14.5175 42.1913
14.6974 41.7125
14.8774 49.1655
15.0574 78.5464
15.2374 59.5916
15.4175 42.1185
15.5976 41.0804
15.7778 46.1457
15.958 65.2787
16.1382 78.3712
16.3185 38.5452
16.4988 35.2583
16.6792 34.2284
16.8596 34.2504
17.04 42.0213
17.2205 35.8886
17.401 41.3851
17.5815 39.4646
17.7622 38.4898
17.9428 41.379
18.1237 46.2127
18.3044 80.3281
18.4852 56.3687
18.666 48.3047
18.8469 37.2839
19.0278 35.7485
19.2088 35.9279
19.3898 47.4118
19.5709 44.1412
19.752 34.5489
19.9332 33.5615
20.1144 34.5438
20.2957 42.4361
20.477 39.5251
20.6586 33.3817
20.84 35.1762
21.0215 30.6074
21.203 30.2326
21.3846 31.4537
21.5662 31.7147
21.7479 31.0859
21.9297 32.3828
22.1115 40.7295
22.2933 37.1538
22.4753 31.8396
22.6572 30.6097
22.8393 32.145
23.0214 32.081
23.2037 36.8861
23.3859 31.8552
23.5682 33.2715
23.7505 35.9251
23.9329 31.5793
24.1154 29.5137
24.2979 28.0649
24.4805 27.4528
24.6631 27.9384
24.8458 27.4718
25.0286 26.9471
25.2114 27.1308
25.3943 28.5671
25.5773 28.9878
25.7605 26.6171
25.9436 26.8392
26.1268 25.9589
26.31 26.9809
26.4933 26.1321
26.6767 25.8861
26.8601 27.5136
27.0437 27.4609
27.2272 25.4188
27.4109 24.9952
27.5946 24.9222
27.7784 25.1222
27.9623 24.6501
28.1462 25.2369
28.3304 25.6991
28.5145 24.6353
28.6987 23.7227
28.8829 23.0532
29.0673 22.798
29.2517 22.6937
29.4361 22.1485
29.6207 22.1382
29.8053 21.7091
29.99 21.3823
30.1748 21.5409
30.3597 21.107
30.5447 21.1441
30.7297 20.8817
30.915 21.0963
31.1002 21.1221
31.2855 20.5229
31.4708 20.1861
31.6563 20.3067
31.8418 20.268
32.0275 19.8516
32.2132 19.9202
32.399 19.5195
32.5848 19.1237
32.7708 18.7973
32.9569 18.6771
33.143 18.4937
33.3293 18.2446
33.5158 18.3118
33.7022 17.9064
33.8887 17.5817
34.0753 17.4087
34.262 17.174
34.4488 16.9084
34.6357 16.7864
34.8227 16.5799
35.0098 16.3689
35.1969 16.2455
35.3842 16.0379
35.5716 15.8771
35.759 15.8732
35.9468 15.631
36.1345 15.421
36.3222 15.289
36.5101 15.1199
36.6981 14.9872
36.8861 14.7623
37.0743 14.5618
37.2626 14.4092
37.451 14.2307
37.6395 14.1284
37.8281 13.8521
38.0168 13.6855
38.2056 13.5706
38.3945 13.3925
38.5837 13.1917
38.7728 13.0629
38.9621 12.9401
39.1514 12.7919
39.3409 12.5823
39.5304 12.4754
39.7201 12.29
39.9099 12.17
40.0999 12.0224
40.2899 11.8819
40.48 11.684
40.6703 11.5975
40.8607 11.4372
41.0512 11.3532
41.242 11.1322
41.4327 11.0717
41.6236 10.9302
41.8146 10.8109
42.0057 10.6202
42.1969 10.4747
42.3882 10.3759
42.5797 10.2347
42.7713 10.091
42.963 9.98922
43.1549 9.82026
43.3468 9.67022
43.5389 9.57743
43.7312 9.43164
43.9237 9.30479
44.1162 9.1975
44.3088 9.06932
44.5016 8.98218
44.6945 8.80896
44.8875 8.73937
45.0806 8.61301
45.2739 8.53125
45.4673 8.41339
45.6609 8.3029
45.8546 8.13681
46.0484 8.05137
46.2424 7.86153
46.4365 7.85629
46.631 7.73789
46.8254 7.60572
47.0199 7.48504
47.2146 7.35611
47.4095 7.24868
47.6044 7.1333
47.7996 7.08142
47.9948 6.96959
48.1902 6.85527
48.3858 6.7953
48.5815 6.66656
48.7774 6.59459
48.9734 6.47006
49.1696 6.42208
49.3661 6.30553
49.5626 6.18272
49.7592 6.11758
49.956 6.04495
50.153 5.95163
50.3501 5.88153
50.5474 5.7921
50.7448 5.65961
50.9424 5.60931
51.1402 5.56349
51.3381 5.44226
51.5362 5.38113
51.7344 5.30638
51.9328 5.18391
52.1316 5.09304
52.3304 5.06385
52.5293 4.9726
52.7284 4.8889
52.9276 4.7987
53.1271 4.77735
53.3267 4.64129
53.5265 4.56474
53.7264 4.47516
53.9266 4.40353
54.1269 4.32419
54.3274 4.22023
54.528 4.11473
54.7289 3.99074
54.9301 3.85915
55.1314 3.80528
55.3328 3.57374
55.5344 3.39205
55.7361 3.37115

File: Ni3Fe_FD0055.xy
TT I
1.27165 32.4415
1.45013 26.8737
1.62863 22.4238
1.80712 21.108
1.98562 20.7399
2.16411 20.4062
2.34263 21.4086
2.52115 21.8262
2.69965 26.0023
2.87818 36.5695
3.05672 63.7503
3.23527 65.616
3.4138 33.7231
3.59237 26.6932
3.77094 25.7736
3.9495 27.18
4.12809 29.5026
4.30669 37.5149
4.4853 37.7458
4.6639 43.0874
4.84253 55.3957
5.02118 105.167
5.19981 318.676
5.37848 3042.99
5.55716 150.207
5.73586 103.503
5.91455 120.314
6.09328 581.729
6.27201 213.431
6.45075 64.5458
6.62952 47.3749
6.8083 42.1409
6.98711 41.1541
7.16591 43.6862
7.34475 39.8545
7.5236 61.1625
7.70247 43.9309
7.88135 38.9943
8.06026 41.2122
8.23919 46.803
8.41812 59.6241
8.59709 188.681
8.77609 349.21
8.9551 74.3904
9.13412 65.7413
9.31318 320.008
9.49226 59.5912
9.67134 58.353
9.85047 64.3543
10.0296 122.668
10.2088 694.787
10.388 98.6561
10.5672 99.7804
10.7465 191.01
10.9257 52.2687
11.105 45.6503
11.2844 43.1464
11.4637 40.3975
11.6431 39.6266
11.8225 40.3586
12.002 116.032
12.1814 50.856
12.3609 83.8536
12.5405 42.4835
12.72 40.3204
12.8996 42.0102
13.0792 48.703
13.2589 69.7069
13.4386 189.126
13.6183 80.3511
13.7981 181.659
13.9779 54.5656
14.1577 66.7959
14.3376 46.9609
14.5175 42.2321
14.6974 42.1306
14.8774 49.6925
15.0574 79.2962
15.2374 58.9113
15.4175 42.1856
15.5976 41.1345
15.7778 46.4918
15.958 65.8602
16.1382 77.2354
16.3185 38.4651
16.4988 35.1411
16.6792 34.4073
16.8596 34.3339
17.04 41.9026
17.2205 35.8685
17.401 41.5064
17.5815 39.2696
17.7622 38.6445
17.9428 41.2322
18.1237 46.3477
18.3044 79.4783
18.4852 56.5834
18.666 48.0439
18.8469 37.3543
19.0278 35.7559
19.2088 36.1119
19.3898 47.4939
19.5709 43.945
19.752 34.3921
19.9332 33.7205
20.1144 34.5854
20.2957 42.2861
20.477 39.5981
20.6586 33.0952
20.84 35.204
21.0215 30.5867
21.203 30.3367
21.3846 31.4757
21.5662 31.7204
21.7479 31.2821
21.9297 32.5169
22.1115 40.6585
22.2933 37.1808
22.4753 31.8755
22.6572 30.7927
22.8393 32.1747
23.0214 31.8839
23.2037 36.8646
23.3859 31.8474
23.5682 33.1468
23.7505 35.9432
23.9329 31.4333
24.1154 29.624
24.2979 28.1091
24.4805 27.5443
24.6631 27.8644
24.8458 27.5212
25.0286 27.0336
25.2114 27.1995
25.3943 28.6169
25.5773 29.094
25.7605 26.5411
25.9436 26.8458
26.1268 25.9522
26.31 27.0438
26.4933 26.0696
26.6767 25.8978
26.8601 27.4933
27.0437 27.4454
27.2272 25.4507
27.4109 24.9417
27.5946 25.0908
27.7784 25.2561
27.9623 24.5247
28.1462 25.3388
28.3304 25.6744
28.5145 24.5648
28.6987 23.6518
28.8829 22.9516
29.0673 22.8464
29.2517 22.6843
29.4361 22.1344
29.6207 22.0776
29.8053 21.6837
29.99 21.314
30.1748 21.467
30.3597 21.056
30.5447 21.0853
30.7297 20.868
30.915 21.1197
31.1002 21.1084
31.2855 20.472
31.4708 20.2424
31.6563 20.2366
31.8418 20.1951
32.0275 19.7735
32.2132 19.9285
32.399 19.5519
32.5848 19.1224
32.7708 18.783
32.9569 18.7519
33.143 18.4689
33.3293 18.2368
33.5158 18.3157
33.7022 17.8172
33.8887 17.6784
34.0753 17.4209
34.262 17.1742
34.4488 16.9892
34.6357 16.7373
34.8227 16.5646
35.0098 16.3226
35.1969 16.2448
35.3842 16.0469
35.5716 15.963
35.759 15.9187
35.9468 15.6356
36.1345 15.4451
36.3222 15.2319
36.5101 15.1309
36.6981 14.883
36.8861 14.7962
37.0743 14.5965
37.2626 14.363
37.451 14.1722
37.6395 14.0786
37.8281 13.8738
38.0168 13.7249
38.2056 13.5594
38.3945 13.3474
38.5837 13.1334
38.7728 13.1193
38.9621 12.8258
39.1514 12.6842
39.3409 12.551
39.5304 12.4305
39.7201 12.3164
39.9099 12.1544
40.0999 12.019
40.2899 11.8978
40.48 11.6999
40.6703 11.593
40.8607 11.4346
41.0512 11.3044
41.242 11.161
41.4327 10.995
41.6236 10.8694
41.8146 10.7538
42.0057 10.6433
42.1969 10.4656
42.3882 10.3404
42.5797 10.2217
42.7713 10.1027
42.963 9.95298
43.1549 9.84961
43.3468 9.66837
43.5389 9.53698
43.7312 9.45444
43.9237 9.2748
44.1162 9.1543
44.3088 9.05165
44.5016 8.9114
44.6945 8.83399
44.8875 8.69886
45.0806 8.56597
45.2739 8.46598
45.4673 8.3374
45.6609 8.238
45.8546 8.11854
46.0484 8.03457
46.2424 7.93616
46.4365 7.79628
46.631 7.71934
46.8254 7.57668
47.0199 7.41807
47.2146 7.36974
47.4095 7.25264
47.6044 7.16398
47.7996 7.0368
47.9948 6.96545
48.1902 6.84216
48.3858 6.77216
48.5815 6.70367
48.7774 6.60618
48.9734 6.52304
49.1696 6.4103
49.3661 6.29738
49.5626 6.184
49.7592 6.11792
49.956 6.04923
50.153 5.9556
50.3501 5.86462
50.5474 5.76929
50.7448 5.6771
50.9424 5.65118
51.1402 5.56031
51.3381 5.44713
51.5362 5.37664
51.7344 5.248
51.9328 5.19112
52.1316 5.10599
52.3304 5.06655
52.5293 4.93012
52.7284 4.87632
52.9276 4.79608
53.1271 4.75
53.3267 4.69058
53.5265 4.58717
53.7264 4.47943
53.9266 4.39172
54.1269 4.3048
54.3274 4.21153
54.528 4.07969
54.7289 3.90412
54.9301 3.84397
55.1314 3.77505
55.3328 3.5616
55.5344 3.45922
55.7361 3.40625

File: Ni3Fe_FD0056.xy
TT I
1.27165 32.6872
1.45013 26.7468
1.62863 22.7161
1.80712 20.7762
1.98562 20.4691
2.16411 20.8379
2.34263 20.555
2.52115 21.3796
2.69965 25.4958
2.87818 36.1963
3.05672 64.0292
3.23527 65.5851
3.4138 34.4448
3.59237 27.2672
3.77094 25.6587
3.9495 27.0678
4.12809 29.3632
4.30669 37.2835
4.4853 37.5068
4.6639 43.1857
4.84253 55.2714
5.02118 105.241
5.19981 321.779
5.37848 3001.55
5.55716 149.677
5.73586 103.421
5.91455 120.395
6.09328 587.188
6.27201 211.108
6.45075 64.0061
6.62952 47.7095
6.8083 42.242
6.98711 41.5284
7.16591 43.2738
7.34475 39.6247
7.5236 62.0262
7.70247 43.9977
7.88135 39.3811
8.06026 41.2102
8.23919 46.8273
8.41812 60.1535
8.59709 190.105
8.77609 340.828
8.9551 74.3671
9.13412 65.5656
9.31318 316.688
9.49226 59.4457
9.67134 58.1662
9.85047 64.6685
10.0296 124.076
10.2088 697.494
10.388 97.8805
10.5672 100.124
10.7465 188.257
10.9257 52.3117
11.105 45.5652
11.2844 43.5412
11.4637 40.3948
11.6431 39.7552
11.8225 40.401
12.002 116.574
12.1814 50.8233
12.3609 82.8479
12.5405 42.7405
12.72 40.315
12.8996 42.0714
13.0792 49.041
13.2589 69.6049
13.4386 189.416
13.6183 79.803
13.7981 180.921
13.9779 54.4273
14.1577 67.512
14.3376 46.9331
14.5175 42.5161
14.6974 42.1766
14.8774 49.5315
15.0574 79.7731
15.2374 58.6966
15.4175 42.2321
15.5976 41.1598
15.7778 46.4298
15.958 66.3372
16.1382 76.3153
16.3185 38.6269
16.4988 35.1559
16.6792 34.2543
16.8596 34.5117
17.04 41.6678
17.2205 36.2061
17.401 41.6779
17.5815 39.1915
17.7622 38.7748
17.9428 41.7323
18.1237 46.4462
18.3044 78.7037
18.4852 56.6771
18.666 47.7508
18.8469 37.4287
19.0278 35.7673
19.2088 36.2141
19.3898 47.6184
19.5709 43.7279
19.752 34.461
19.9332 33.5961
20.1144 34.594
20.2957 42.2166
20.477 39.7354
20.6586 33.0411
20.84 35.2204
21.0215 30.6482
21.203 30.366
21.3846 31.3902
21.5662 31.608
21.7479 31.3047
21.9297 32.6069
22.1115 40.4682
22.2933 36.9063
22.4753 31.768
22.6572 30.6837
22.8393 32.34
23.0214 31.9717
23.2037 36.732
23.3859 31.8545
23.5682 33.0927
23.7505 35.848
23.9329 31.4902
24.1154 29.5367
24.2979 28.0448
24.4805 27.5878
24.6631 27.9839
24.8458 27.5757
25.0286 27.005
25.2114 27.2744
25.3943 28.5819
25.5773 28.9345
25.7605 26.459
25.9436 26.6506
26.1268 25.9501
26.31 26.913
26.4933 26.0436
26.6767 25.8415
26.8601 27.4928
27.0437 27.3317
27.2272 25.3995
27.4109 24.8515
27.5946 24.9817
27.7784 25.1087
27.9623 24.5957
28.1462 25.2163
28.3304 25.5247
28.5145 24.5145
28.6987 23.6288
28.8829 23.0518
29.0673 22.9644
29.2517 22.6367
29.4361 22.163
29.6207 22.0341
29.8053 21.6866
29.99 21.3789
30.1748 21.3915
30.3597 21.1092
30.5447 21.0424
30.7297 20.8438
30.915 21.0414
31.1002 21.0577
31.2855 20.4144
31.4708 20.1831
31.6563 20.311
31.8418 20.1632
32.0275 19.822
32.2132 19.8228
32.399 19.5153
32.5848 19.0811
32.7708 18.6806
32.9569 18.7263
33.143 18.4363
33.3293 18.2681
33.5158 18.2286
33.7022 17.8856
33.8887 17.6115
34.0753 17.3577
34.262 17.2258
34.4488 16.8861
34.6357 16.7189
34.8227 16.5417
35.0098 16.4253
35.1969 16.1689
35.3842 15.9933
35.5716 15.9495
35.759 15.9277
35.9468 15.597
36.1345 15.3996
36.3222 15.2368
36.5101 15.1769
36.6981 14.9091
36.8861 14.735
37.0743 14.5235
37.2626 14.3189
37.451 14.2084
37.6395 14.0418
37.8281 13.8807
38.0168 13.7389
38.2056 13.5117
38.3945 13.3375
38.5837 13.1918
38.7728 13.0275
38.9621 12.8364
39.1514 12.7071
39.3409 12.5557
39.5304 12.4286
39.7201 12.2754
39.9099 12.1451
40.0999 11.9968
40.2899 11.8793
40.48 11.6571
40.6703 11.5413
40.8607 11.4759
41.0512 11.3065
41.242 11.1541
41.4327 11.02
41.6236 10.8247
41.8146 10.7517
42.0057 10.6551
42.1969 10.4784
42.3882 10.3655
42.5797 10.1858
42.7713 10.0701
42.963 9.91808
43.1549 9.78381
43.3468 9.66098
43.5389 9.57538
43.7312 9.41472
43.9237 9.29228
44.1162 9.17346
44.3088 9.04549
44.5016 8.9197
44.6945 8.80408
44.8875 8.68219
45.0806 8.60562
45.2739 8.49217
45.4673 8.37059
45.6609 8.26797
45.8546 8.13057
46.0484 7.99609
46.2424 7.9105
46.4365 7.8286
46.631 7.71824
46.8254 7.57664
47.0199 7.46381
47.2146 7.35081
47.4095 7.23646
47.6044 7.18162
47.7996 7.01907
47.9948 6.93215
48.1902 6.87199
48.3858 6.74453
48.5815 6.66761
48.7774 6.59118
48.9734 6.48436
49.1696 6.38591
49.3661 6.29703
49.5626 6.16343
49.7592 6.15145
49.956 6.035
50.153 5.97123
50.3501 5.84754
50.5474 5.78323
50.7448 5.68389
50.9424 5.60694
51.1402 5.51296
51.3381 5.42904
51.5362 5.35661
51.7344 5.30695
51.9328 5.16671
52.1316 5.10905
52.3304 4.99411
52.5293 4.9173
52.7284 4.8808
52.9276 4.8177
53.1271 4.69996
53.3267 4.62031
53.5265 4.54633
53.7264 4.46405
53.9266 4.43745
54.1269 4.29434
54.3274 4.23922
54.528 4.06538
54.7289 3.96243
54.9301 3.88824
55.1314 3.73828
55.3328 3.5592
55.5344 3.46145
55.7361 3.35785

File: Ni3Fe_FD0057.xy
TT I
1.27165 32.8003
1.45013 26.3666
1.62863 22.8372
1.80712 20.7294
1.98562 21.0045
2.16411 20.0982
2.34263 20.6276
2.52115 21.7268
2.69965 25.8051
2.87818 36.1383
3.05672 64.0921
3.23527 65.8685
3.4138 33.6966
3.59237 26.4301
3.77094 25.886
3.9495 27.1342
4.12809 29.4288
4.30669 37.3049
4.4853 37.657
4.6639 43.2284
4.84253 55.9975
5.02118 105.125
5.19981 324.897
5.37848 2964.8
5.55716 149.177
5.73586 104.113
5.91455 120.874
6.09328 592.559
6.27201 208.564
6.45075 64.3601
6.62952 48.0901
6.8083 42.1517
6.98711 41.6047
7.16591 43.273
7.34475 39.852
7.5236 62.7467
7.70247 44.0995
7.88135 39.2703
8.06026 41.5874
8.23919 47.2504
8.41812 60.3478
8.59709 191.612
8.77609 333.597
8.9551 74.7249
9.13412 65.8054
9.31318 312.826
9.49226 59.8277
9.67134 58.5469
9.85047 64.7135
10.0296 125.257
10.2088 698.84
10.388 97.8981
10.5672 100.537
10.7465 185.313
10.9257 52.1936
11.105 45.6151
11.2844 43.4042
11.4637 40.4975
11.6431 39.8745
11.8225 40.525
12.002 116.805
12.1814 51.1406
12.3609 82.132
12.5405 42.6276
12.72 40.6904
12.8996 42.1802
13.0792 49.2306
13.2589 69.6885
13.4386 188.922
13.6183 79.813
13.7981 178.964
13.9779 54.6552
14.1577 68.2622
14.3376 46.9721
14.5175 42.6355
14.6974 42.2999
14.8774 49.7489
15.0574 80.6478
15.2374 57.98
15.4175 42.6041
15.5976 41.3376
15.7778 46.426
15.958 66.9577
16.1382 75.3566
16.3185 38.4447
16.4988 35.3345
16.6792 34.3037
16.8596 34.4418
17.04 41.4978
17.2205 36.2855
17.401 41.6706
17.5815 39.0545
17.7622 38.7662
17.9428 41.5302
18.1237 46.484
18.3044 77.4493
18.4852 56.8041
18.666 47.5089
18.8469 37.2546
19.0278 35.9358
19.2088 36.1261
19.3898 47.5328
19.5709 43.6963
19.752 34.4208
19.9332 33.7826
20.1144 34.5555
20.2957 41.8533
20.477 39.3985
20.6586 33.2786
20.84 35.1163
21.0215 30.6025
21.203 30.2903
21.3846 31.6091
21.5662 31.601
21.7479 31.1386
21.9297 32.6483
22.1115 40.3684
22.2933 36.7904
22.4753 31.7445
22.6572 30.6962
22.8393 32.1402
23.0214 32.0746
23.2037 36.5012
23.3859 31.8009
23.5682 33.0125
23.7505 35.929
23.9329 31.2095
24.1154 29.5102
24.2979 28.1466
24.4805 27.5549
24.6631 27.8857
24.8458 27.546
25.0286 26.9879
25.2114 27.2284
25.3943 28.4734
25.5773 28.9568
25.7605 26.5757
25.9436 26.7012
26.1268 26.0387
26.31 26.9069
26.4933 26.0773
26.6767 25.9079
26.8601 27.4494
27.0437 27.2268
27.2272 25.5254
27.4109 24.9825
27.5946 24.9718
27.7784 24.9668
27.9623 24.455
28.1462 25.2228
28.3304 25.3735
28.5145 24.5605
28.6987 23.5669
28.8829 23.0829
29.0673 22.8627
29.2517 22.6417
29.4361 22.074
29.6207 22.0939
29.8053 21.5847
29.99 21.3424
30.1748 21.4723
30.3597 20.9977
30.5447 21.0719
30.7297 20.8608
30.915 21.1111
31.1002 21.0402
31.2855 20.4241
31.4708 20.1785
31.6563 20.3211
31.8418 20.1759
32.0275 19.8244
32.2132 19.8387
32.399 19.5214
32.5848 19.1037
32.7708 18.7741
32.9569 18.7405
33.143 18.4592
33.3293 18.2001
33.5158 18.2496
33.7022 17.8438
33.8887 17.5438
34.0753 17.3991
34.262 17.1282
34.4488 16.9279
34.6357 16.6954
34.8227 16.5341
35.0098 16.3537
35.1969 16.179
35.3842 16.0288
35.5716 15.8878
35.759 15.925
35.9468 15.5711
36.1345 15.3516
36.3222 15.2779
36.5101 15.0862
36.6981 14.9156
36.8861 14.7439
37.0743 14.5503
37.2626 14.3102
37.451 14.1475
37.6395 14.0913
37.8281 13.8612
38.0168 13.6938
38.2056 13.5346
38.3945 13.3137
38.5837 13.1607
38.7728 13.0349
38.9621 12.8333
39.1514 12.7081
39.3409 12.4837
39.5304 12.3774
39.7201 12.3095
39.9099 12.1551
40.0999 11.995
40.2899 11.8197
40.48 11.6941
40.6703 11.5561
40.8607 11.4218
41.0512 11.2863
41.242 11.1489
41.4327 10.9582
41.6236 10.8826
41.8146 10.7028
42.0057 10.6082
42.1969 10.4685
42.3882 10.3586
42.5797 10.1891
42.7713 10.0848
42.963 9.88386
43.1549 9.82847
43.3468 9.66564
43.5389 9.50634
43.7312 9.36014
43.9237 9.29388
44.1162 9.13716
44.3088 9.03482
44.5016 8.87286
44.6945 8.86051
44.8875 8.65652
45.0806 8.57837
45.2739 8.44619
45.4673 8.34668
45.6609 8.22924
45.8546 8.12282
46.0484 8.00683
46.2424 7.88046
46.4365 7.78921
46.631 7.64885
46.8254 7.56844
47.0199 7.45702
47.2146 7.36304
47.4095 7.2492
47.6044 7.14371
47.7996 7.05231
47.9948 6.93638
48.1902 6.83785
48.3858 6.76853
48.5815 6.65382
48.7774 6.59212
48.9734 6.50036
49.1696 6.37465
49.3661 6.2871
49.5626 6.18898
49.7592 6.10611
49.956 6.02719
50.153 5.89918
50.3501 5.85368
50.5474 5.78132
50.7448 5.70515
50.9424 5.578
51.1402 5.51401
51.3381 5.43875
51.5362 5.35364
51.7344 5.26076
51.9328 5.20109
52.1316 5.09464
52.3304 5.03907
52.5293 4.95465
52.7284 4.86096
52.9276 4.80075
53.1271 4.71079
53.3267 4.6774
53.5265 4.58087
53.7264 4.52113
53.9266 4.42928
54.1269 4.29953
54.3274 4.24384
54.528 4.07718
54.7289 3.98866
54.9301 3.81438
55.1314 3.74382
55.3328 3.52321
55.5344 3.43503
55.7361 3.35345

File: Ni3Fe_FD0058.xy
TT I
1.27165 32.2801
1.45013 26.9696
1.62863 22.9408
1.80712 20.592
1.98562 20.4418
2.16411 20.156
2.34263 20.5772
2.52115 21.3964
2.69965 26.0837
2.87818 35.9448
3.05672 63.8401
3.23527 64.8418
3.4138 34.0164
3.59237 27.083
3.77094 25.8923
3.9495 26.7752
4.12809 29.6721
4.30669 37.5169
4.4853 37.7715
4.6639 43.6284
4.84253 56.0432
5.02118 105.946
5.19981 328.205
5.37848 2919.77
5.55716 149.245
5.73586 103.966
5.91455 121.413
6.09328 598.101
6.27201 206.258
6.45075 64.3614
6.62952 47.8915
6.8083 42.4711
6.98711 41.6755
7.16591 43.4494
7.34475 39.9576
7.5236 63.6088
7.70247 44.0597
7.88135 39.5809
8.06026 41.4875
8.23919 47.0974
8.41812 60.8303
8.59709 193.094
8.77609 325.201
8.9551 74.6929
9.13412 66.305
9.31318 309.571
9.49226 60.0784
9.67134 58.5215
9.85047 65.1736
10.0296 127.543
10.2088 702.141
10.388 97.0514
10.5672 101.328
10.7465 181.759
10.9257 52.2806
11.105 45.9963
11.2844 43.808
11.4637 41.1235
11.6431 40.1255
11.8225 40.7784
12.002 116.838
12.1814 51.3231
12.3609 81.3033
12.5405 42.8463
12.72 40.8392
12.8996 42.3664
13.0792 49.7106
13.2589 69.8533
13.4386 188.599
13.6183 79.4043
13.7981 177.934
13.9779 54.5093
14.1577 69.1943
14.3376 47.0407
14.5175 42.6213
14.6974 42.5513
14.8774 50.1968
15.0574 81.5428
15.2374 57.2759
15.4175 42.686
15.5976 41.3604
15.7778 46.8474
15.958 67.3518
16.1382 74.1178
16.3185 38.5566
16.4988 35.4086
16.6792 34.5596
16.8596 34.6423
17.04 41.2262
17.2205 36.3388
17.401 41.9599
17.5815 38.9542
17.7622 38.9397
17.9428 41.5029
18.1237 46.7301
18.3044 76.4391
18.4852 56.8128
18.666 47.1858
18.8469 37.4175
19.0278 36.0346
19.2088 36.3628
19.3898 47.7217
19.5709 43.4629
19.752 34.4774
19.9332 33.8115
20.1144 34.8052
20.2957 41.771
20.477 39.5061
20.6586 33.1412
20.84 35.2586
21.0215 30.8467
21.203 30.307
21.3846 31.6486
21.5662 31.6264
21.7479 31.2244
21.9297 32.573
22.1115 39.92
22.2933 36.5776
22.4753 31.6836
22.6572 30.6894
22.8393 32.1473
23.0214 32.066
23.2037 36.1075
23.3859 31.8843
23.5682 32.8495
23.7505 35.7568
23.9329 31.0965
24.1154 29.4382
24.2979 27.9966
24.4805 27.5186
24.6631 28.0136
24.8458 27.5425
25.0286 26.9959
25.2114 27.1953
25.3943 28.3725
25.5773 28.7503
25.7605 26.4647
25.9436 26.6563
26.1268 25.9327
26.31 26.8571
26.4933 25.9661
26.6767 25.8833
26.8601 27.4318
27.0437 27.1206
27.2272 25.3368
27.4109 24.8972
27.5946 24.8663
27.7784 24.983
27.9623 24.5362
28.1462 25.0254
28.3304 25.4376
28.5145 24.4659
28.6987 23.6209
28.8829 22.9177
29.0673 22.8253
29.2517 22.454
29.4361 22.1156
29.6207 22.0895
29.8053 21.5844
29.99 21.3798
30.1748 21.4225
30.3597 21.0455
30.5447 21.0496
30.7297 20.8141
30.915 21.1055
31.1002 20.9338
31.2855 20.5056
31.4708 20.2107
31.6563 20.2098
31.8418 20.0527
32.0275 19.7245
32.2132 19.7687
32.399 19.4429
32.5848 18.9916
32.7708 18.7147
32.9569 18.7084
33.143 18.4696
33.3293 18.2391
33.5158 18.1719
33.7022 17.7476
33.8887 17.5477
34.0753 17.3771
34.262 17.1409
34.4488 16.8759
34.6357 16.7264
34.8227 16.5343
35.0098 16.3275
35.1969 16.2359
35.3842 15.9926
35.5716 15.8661
35.759 15.8576
35.9468 15.5805
36.1345 15.377
36.3222 15.2158
36.5101 15.1423
36.6981 14.9562
36.8861 14.7666
37.0743 14.5514
37.2626 14.3525
37.451 14.2059
37.6395 14.0954
37.8281 13.8473
38.0168 13.6542
38.2056 13.5468
38.3945 13.3303
38.5837 13.1995
38.7728 13.0262
38.9621 12.9078
39.1514 12.6772
39.3409 12.5428
39.5304 12.3534
39.7201 12.2653
39.9099 12.0889
40.0999 11.9849
40.2899 11.8623
40.48 11.6538
40.6703 11.543
40.8607 11.402
41.0512 11.2866
41.242 11.1021
41.4327 10.9854
41.6236 10.8446
41.8146 10.719
42.0057 10.576
42.1969 10.4744
42.3882 10.3204
42.5797 10.1483
42.7713 10.0217
42.963 9.89071
43.1549 9.73548
43.3468 9.63679
43.5389 9.56446
43.7312 9.40178
43.9237 9.29399
44.1162 9.12233
44.3088 9.0357
44.5016 8.91178
44.6945 8.808
44.8875 8.69041
45.0806 8.56088
45.2739 8.43327
45.4673 8.35204
45.6609 8.16501
45.8546 8.12309
46.0484 7.98121
46.2424 7.87898
46.4365 7.81824
46.631 7.68917
46.8254 7.56807
47.0199 7.44367
47.2146 7.35675
47.4095 7.24973
47.6044 7.13091
47.7996 7.00568
47.9948 6.92644
48.1902 6.82454
48.3858 6.73781
48.5815 6.64721
48.7774 6.53727
48.9734 6.4682
49.1696 6.35951
49.3661 6.28087
49.5626 6.1733
49.7592 6.13277
49.956 6.02955
50.153 5.93658
50.3501 5.84156
50.5474 5.75353
50.7448 5.69242
50.9424 5.6045
51.1402 5.49359
51.3381 5.41417
51.5362 5.32429
51.7344 5.25913
51.9328 5.15791
52.1316 5.07814
52.3304 5.03055
52.5293 4.92191
52.7284 4.8754
52.9276 4.78729
53.1271 4.73609
53.3267 4.62007
53.5265 4.53239
53.7264 4.44709
53.9266 4.36841
54.1269 4.29986
54.3274 4.23487
54.528 4.06611
54.7289 3.92883
54.9301 3.85933
55.1314 3.68225
55.3328 3.55401
55.5344 3.43205
55.7361 3.33292