Folder: NiFe_MOF_catalyst_paper/XRD (part 3)

File: Ni3Fe_FD0011.xy
TT I
1.27165 36.5069
1.45013 32.0979
1.62863 28.4681
1.80712 26.414
1.98562 26.0711
2.16411 26.0367
2.34263 26.6931
2.52115 27.1599
2.69965 29.9535
2.87818 40.6883
3.05672 66.1398
3.23527 81.2733
3.4138 45.2255
3.59237 39.4811
3.77094 41.9983
3.9495 43.7937
4.12809 54.3906
4.30669 78.0565
4.4853 68.933
4.6639 55.5432
4.84253 60.4003
5.02118 91.7791
5.19981 254.728
5.37848 4059.47
5.55716 163.469
5.73586 100.259
5.91455 108.038
6.09328 409.157
6.27201 361.25
6.45075 73.5108
6.62952 54.7982
6.8083 52.391
6.98711 48.4289
7.16591 51.5685
7.34475 70.0033
7.5236 64.0221
7.70247 52.1443
7.88135 39.6511
8.06026 40.2286
8.23919 44.4927
8.41812 55.4468
8.59709 142.957
8.77609 750.042
8.9551 81.1318
9.13412 59.2021
9.31318 242.592
9.49226 51.9014
9.67134 50.437
9.85047 55.9047
10.0296 88.1603
10.2088 382.671
10.388 152.828
10.5672 88.8833
10.7465 298.148
10.9257 49.3935
11.105 41.9359
11.2844 40.4206
11.4637 38.6811
11.6431 37.6721
11.8225 37.1789
12.002 64.9486
12.1814 46.1856
12.3609 86.8234
12.5405 46.3646
12.72 39.4065
12.8996 39.3186
13.0792 41.3636
13.2589 61.8704
13.4386 121.168
13.6183 102.358
13.7981 129.968
13.9779 70.3934
14.1577 45.3829
14.3376 52.8655
14.5175 36.6664
14.6974 36.1738
14.8774 40.4664
15.0574 55.1559
15.2374 113.593
15.4175 41.3218
15.5976 37.2317
15.7778 39.4614
15.958 50.6539
16.1382 134.05
16.3185 40.8006
16.4988 32.9224
16.6792 31.0475
16.8596 30.6832
17.04 38.549
17.2205 32.4778
17.401 34.7896
17.5815 51.721
17.7622 34.3597
17.9428 41.1324
18.1237 42.2273
18.3044 78.2334
18.4852 60.39
18.666 75.2545
18.8469 36.1076
19.0278 32.5977
19.2088 32.2408
19.3898 37.4851
19.5709 45.6642
19.752 37.8256
19.9332 31.0721
20.1144 31.704
20.2957 39.5658
20.477 40.319
20.6586 43.0271
20.84 30.9124
21.0215 30.0497
21.203 27.7766
21.3846 27.9725
21.5662 32.6208
21.7479 28.9452
21.9297 30.2508
22.1115 38.2403
22.2933 47.1306
22.4753 38.3138
22.6572 29.5998
22.8393 29.4733
23.0214 31.1045
23.2037 36.3732
23.3859 36.7277
23.5682 34.4262
23.7505 33.0388
23.9329 46.6666
24.1154 29.6288
24.2979 27.1677
24.4805 25.848
24.6631 25.735
24.8458 27.8226
25.0286 25.694
25.2114 25.6692
25.3943 27.9548
25.5773 30.6331
25.7605 31.1113
25.9436 26.6238
26.1268 25.3489
26.31 25.9409
26.4933 29.0192
26.6767 25.7175
26.8601 26.6647
27.0437 32.1297
27.2272 28.0866
27.4109 24.493
27.5946 24.1587
27.7784 24.3955
27.9623 25.6147
28.1462 25.4343
28.3304 26.5977
28.5145 28.8288
28.6987 26.1355
28.8829 23.0043
29.0673 22.2658
29.2517 23.1297
29.4361 22.1619
29.6207 21.6597
29.8053 23.0269
29.99 21.2758
30.1748 20.9664
30.3597 21.0255
30.5447 21.0718
30.7297 21.2886
30.915 20.9481
31.1002 23.1307
31.2855 22.5828
31.4708 20.6408
31.6563 20.372
31.8418 21.4083
32.0275 20.9457
32.2132 20.4797
32.399 21.4045
32.5848 19.9955
32.7708 19.0047
32.9569 18.6025
33.143 18.8483
33.3293 18.3535
33.5158 18.7338
33.7022 19.4168
33.8887 18.2727
34.0753 17.7853
34.262 17.573
34.4488 17.4725
34.6357 16.9463
34.8227 17.0751
35.0098 16.5376
35.1969 16.2713
35.3842 16.2648
35.5716 16.247
35.759 16.5328
35.9468 17.0527
36.1345 16.3781
36.3222 15.7721
36.5101 15.6488
36.6981 15.755
36.8861 15.2714
37.0743 15.3869
37.2626 14.9864
37.451 14.6333
37.6395 14.468
37.8281 14.3107
38.0168 14.081
38.2056 14.06
38.3945 13.729
38.5837 13.4757
38.7728 13.4836
38.9621 13.3367
39.1514 13.2783
39.3409 13.0216
39.5304 12.7531
39.7201 12.5832
39.9099 12.5067
40.0999 12.3586
40.2899 12.4028
40.48 12.2491
40.6703 12.0426
40.8607 11.8554
41.0512 11.7279
41.242 11.7334
41.4327 11.5053
41.6236 11.2134
41.8146 11.1815
42.0057 10.9918
42.1969 10.9509
42.3882 10.8506
42.5797 10.5834
42.7713 10.4245
42.963 10.2521
43.1549 10.1178
43.3468 9.95408
43.5389 9.80513
43.7312 9.69674
43.9237 9.57591
44.1162 9.50229
44.3088 9.48023
44.5016 9.25587
44.6945 9.13208
44.8875 9.06164
45.0806 8.93685
45.2739 8.82899
45.4673 8.62925
45.6609 8.5003
45.8546 8.43779
46.0484 8.36429
46.2424 8.23165
46.4365 8.12483
46.631 8.02355
46.8254 7.86111
47.0199 7.75827
47.2146 7.69021
47.4095 7.547
47.6044 7.41578
47.7996 7.3329
47.9948 7.25731
48.1902 7.13582
48.3858 6.95723
48.5815 6.90347
48.7774 6.8005
48.9734 6.73099
49.1696 6.6096
49.3661 6.53945
49.5626 6.48597
49.7592 6.39181
49.956 6.26504
50.153 6.19508
50.3501 6.11515
50.5474 5.99213
50.7448 5.92059
50.9424 5.84034
51.1402 5.76943
51.3381 5.68815
51.5362 5.61691
51.7344 5.53486
51.9328 5.44198
52.1316 5.30629
52.3304 5.22394
52.5293 5.16198
52.7284 5.06892
52.9276 4.98852
53.1271 4.92774
53.3267 4.81061
53.5265 4.77264
53.7264 4.64446
53.9266 4.59229
54.1269 4.48851
54.3274 4.42282
54.528 4.24181
54.7289 4.16213
54.9301 3.99065
55.1314 3.8827
55.3328 3.68449
55.5344 3.6366
55.7361 3.55636

File: Ni3Fe_FD0012.xy
TT I
1.27165 36.6948
1.45013 32.1128
1.62863 28.7215
1.80712 26.775
1.98562 25.0172
2.16411 26.5698
2.34263 26.496
2.52115 26.0279
2.69965 29.3621
2.87818 39.8278
3.05672 65.9031
3.23527 79.7717
3.4138 45.1301
3.59237 39.719
3.77094 41.8542
3.9495 43.7642
4.12809 54.4872
4.30669 77.6311
4.4853 68.6545
4.6639 54.9105
4.84253 60.0778
5.02118 91.7501
5.19981 255.489
5.37848 4043.31
5.55716 162.923
5.73586 100.465
5.91455 107.672
6.09328 411.643
6.27201 357.915
6.45075 73.676
6.62952 54.8679
6.8083 52.3076
6.98711 48.4903
7.16591 51.829
7.34475 69.7096
7.5236 64.0034
7.70247 51.7266
7.88135 39.7613
8.06026 40.5255
8.23919 44.5975
8.41812 55.518
8.59709 143.742
8.77609 745.555
8.9551 80.9737
9.13412 59.0524
9.31318 243.992
9.49226 52.2642
9.67134 50.2848
9.85047 56.1192
10.0296 89.1053
10.2088 389.414
10.388 151.24
10.5672 89.1472
10.7465 296.808
10.9257 49.2628
11.105 41.7726
11.2844 40.2401
11.4637 38.5552
11.6431 37.6109
11.8225 37.1185
12.002 65.9843
12.1814 46.0083
12.3609 87.2668
12.5405 46.3165
12.72 39.5826
12.8996 39.5868
13.0792 41.4352
13.2589 61.8005
13.4386 122.977
13.6183 101.065
13.7981 131.797
13.9779 69.4336
14.1577 45.2677
14.3376 52.1444
14.5175 36.4996
14.6974 36.403
14.8774 40.8877
15.0574 55.4728
15.2374 111.841
15.4175 41.271
15.5976 37.3629
15.7778 39.5355
15.958 50.983
16.1382 133.099
16.3185 40.869
16.4988 32.9586
16.6792 31.152
16.8596 30.7985
17.04 38.6807
17.2205 32.5355
17.401 34.7556
17.5815 51.5316
17.7622 34.3112
17.9428 41.146
18.1237 42.1763
18.3044 79.1025
18.4852 59.8624
18.666 74.2628
18.8469 36.1664
19.0278 32.8331
19.2088 32.6457
19.3898 37.5776
19.5709 45.664
19.752 37.8252
19.9332 31.0965
20.1144 31.8834
20.2957 39.6434
20.477 40.0365
20.6586 42.7113
20.84 31.0449
21.0215 29.9982
21.203 27.9458
21.3846 28.2033
21.5662 32.5453
21.7479 28.9
21.9297 30.3917
22.1115 38.2354
22.2933 46.7218
22.4753 37.9549
22.6572 29.6617
22.8393 29.5339
23.0214 31.1637
23.2037 36.6214
23.3859 36.2716
23.5682 34.5136
23.7505 33.1609
23.9329 46.2281
24.1154 29.5095
24.2979 27.2101
24.4805 25.9038
24.6631 25.7768
24.8458 27.7697
25.0286 25.745
25.2114 25.7886
25.3943 28.0709
25.5773 30.5074
25.7605 30.9451
25.9436 26.5204
26.1268 25.2896
26.31 25.9236
26.4933 28.8204
26.6767 25.7151
26.8601 26.6836
27.0437 32.0734
27.2272 28.0684
27.4109 24.4913
27.5946 24.138
27.7784 24.4726
27.9623 25.6298
28.1462 25.4442
28.3304 26.5472
28.5145 28.5973
28.6987 25.9558
28.8829 23.0275
29.0673 22.3167
29.2517 23.2624
29.4361 22.158
29.6207 21.7429
29.8053 22.8725
29.99 21.2115
30.1748 21.1061
30.3597 21.0658
30.5447 21.2058
30.7297 21.2659
30.915 21.0064
31.1002 23.2032
31.2855 22.511
31.4708 20.5852
31.6563 20.5106
31.8418 21.3289
32.0275 20.9556
32.2132 20.5477
32.399 21.4024
32.5848 20.0091
32.7708 18.9552
32.9569 18.6753
33.143 18.9287
33.3293 18.3744
33.5158 18.7169
33.7022 19.3808
33.8887 18.2895
34.0753 17.7346
34.262 17.5912
34.4488 17.3965
34.6357 16.9912
34.8227 17.0169
35.0098 16.6325
35.1969 16.3172
35.3842 16.3143
35.5716 16.1942
35.759 16.4786
35.9468 17.1386
36.1345 16.391
36.3222 15.709
36.5101 15.6423
36.6981 15.7272
36.8861 15.316
37.0743 15.3562
37.2626 14.9891
37.451 14.5636
37.6395 14.4636
37.8281 14.2459
38.0168 14.0644
38.2056 14.0739
38.3945 13.7343
38.5837 13.5206
38.7728 13.5177
38.9621 13.3007
39.1514 13.1808
39.3409 12.9751
39.5304 12.714
39.7201 12.6301
39.9099 12.5199
40.0999 12.3199
40.2899 12.3705
40.48 12.1731
40.6703 12.0088
40.8607 11.9002
41.0512 11.6902
41.242 11.7041
41.4327 11.4689
41.6236 11.2241
41.8146 11.1635
42.0057 10.9937
42.1969 10.9468
42.3882 10.8416
42.5797 10.5728
42.7713 10.4487
42.963 10.2827
43.1549 10.1463
43.3468 9.97996
43.5389 9.82523
43.7312 9.72892
43.9237 9.62378
44.1162 9.5136
44.3088 9.45906
44.5016 9.23149
44.6945 9.15114
44.8875 9.03872
45.0806 8.94473
45.2739 8.85322
45.4673 8.66816
45.6609 8.54482
45.8546 8.46624
46.0484 8.35269
46.2424 8.2194
46.4365 8.10044
46.631 8.0261
46.8254 7.852
47.0199 7.80883
47.2146 7.65266
47.4095 7.55984
47.6044 7.45964
47.7996 7.32923
47.9948 7.23598
48.1902 7.12016
48.3858 7.0177
48.5815 6.90663
48.7774 6.81906
48.9734 6.75269
49.1696 6.61478
49.3661 6.50778
49.5626 6.43017
49.7592 6.37881
49.956 6.29606
50.153 6.20821
50.3501 6.06351
50.5474 6.04047
50.7448 5.92186
50.9424 5.83789
51.1402 5.75974
51.3381 5.66204
51.5362 5.58777
51.7344 5.51133
51.9328 5.37152
52.1316 5.28391
52.3304 5.24282
52.5293 5.14137
52.7284 5.05028
52.9276 4.99732
53.1271 4.92025
53.3267 4.79554
53.5265 4.716
53.7264 4.6586
53.9266 4.56667
54.1269 4.50745
54.3274 4.35448
54.528 4.26588
54.7289 4.09463
54.9301 4.0002
55.1314 3.92492
55.3328 3.72047
55.5344 3.62794
55.7361 3.54472

File: Ni3Fe_FD0013.xy
TT I
1.27165 36.1885
1.45013 32.9086
1.62863 28.4016
1.80712 26.6754
1.98562 25.6979
2.16411 25.5877
2.34263 26.4533
2.52115 26.0766
2.69965 30.2174
2.87818 39.7369
3.05672 66.4358
3.23527 80.0352
3.4138 44.5015
3.59237 39.4545
3.77094 41.7454
3.9495 43.3455
4.12809 54.8745
4.30669 78.2659
4.4853 68.1387
4.6639 54.2364
4.84253 59.5848
5.02118 91.6865
5.19981 255.399
5.37848 4027.76
5.55716 162.708
5.73586 100.438
5.91455 108.029
6.09328 414.594
6.27201 354.06
6.45075 73.6921
6.62952 55.0242
6.8083 52.3604
6.98711 48.4058
7.16591 51.5743
7.34475 69.5688
7.5236 63.9134
7.70247 51.2816
7.88135 39.5017
8.06026 40.1547
8.23919 44.7815
8.41812 55.5721
8.59709 145.06
8.77609 738.98
8.9551 80.2959
9.13412 59.3073
9.31318 245.36
9.49226 52.1507
9.67134 50.6683
9.85047 56.5943
10.0296 89.8729
10.2088 396.308
10.388 149.26
10.5672 89.1566
10.7465 295.076
10.9257 49.4824
11.105 42.0024
11.2844 40.6329
11.4637 38.7765
11.6431 37.7312
11.8225 37.2205
12.002 66.6918
12.1814 46.5287
12.3609 88.3896
12.5405 46.2097
12.72 39.6281
12.8996 39.5603
13.0792 41.6398
13.2589 62.0349
13.4386 124.727
13.6183 100.002
13.7981 133.76
13.9779 68.6936
14.1577 45.7487
14.3376 51.6369
14.5175 36.9209
14.6974 36.5143
14.8774 40.9332
15.0574 55.9912
15.2374 109.796
15.4175 41.3256
15.5976 37.5391
15.7778 39.8399
15.958 50.9961
16.1382 132.399
16.3185 40.8097
16.4988 32.9734
16.6792 31.2053
16.8596 31.1706
17.04 38.8142
17.2205 32.6676
17.401 35.0369
17.5815 51.1838
17.7622 34.4403
17.9428 41.031
18.1237 42.5071
18.3044 79.9706
18.4852 59.3667
18.666 73.6686
18.8469 36.1676
19.0278 32.6351
19.2088 32.4632
19.3898 37.8304
19.5709 45.438
19.752 37.359
19.9332 31.2964
20.1144 31.7791
20.2957 39.9666
20.477 39.9531
20.6586 42.5231
20.84 31.0839
21.0215 29.8559
21.203 27.9621
21.3846 28.3011
21.5662 32.4843
21.7479 29.0044
21.9297 30.4892
22.1115 38.5559
22.2933 46.342
22.4753 37.7236
22.6572 29.7005
22.8393 29.6275
23.0214 31.1782
23.2037 36.7454
23.3859 35.9434
23.5682 34.5375
23.7505 33.0937
23.9329 45.8965
24.1154 29.5072
24.2979 27.2817
24.4805 25.8971
24.6631 25.8201
24.8458 27.8178
25.0286 25.7579
25.2114 25.7163
25.3943 28.2315
25.5773 30.5586
25.7605 30.6267
25.9436 26.5159
26.1268 25.3494
26.31 25.9579
26.4933 28.7574
26.6767 25.6196
26.8601 26.8165
27.0437 31.7272
27.2272 27.9244
27.4109 24.4561
27.5946 24.2354
27.7784 24.6192
27.9623 25.5361
28.1462 25.5899
28.3304 26.5157
28.5145 28.517
28.6987 25.8516
28.8829 22.9879
29.0673 22.3617
29.2517 23.2017
29.4361 22.1243
29.6207 21.6961
29.8053 22.9538
29.99 21.3409
30.1748 21.1165
30.3597 20.984
30.5447 21.169
30.7297 21.1928
30.915 21.0904
31.1002 23.2076
31.2855 22.4349
31.4708 20.567
31.6563 20.4541
31.8418 21.392
32.0275 20.8243
32.2132 20.4569
32.399 21.2662
32.5848 19.9774
32.7708 18.9239
32.9569 18.6233
33.143 18.921
33.3293 18.3688
33.5158 18.7603
33.7022 19.2843
33.8887 18.1616
34.0753 17.7312
34.262 17.5529
34.4488 17.3838
34.6357 16.997
34.8227 17.0832
35.0098 16.5345
35.1969 16.2701
35.3842 16.2781
35.5716 16.27
35.759 16.455
35.9468 16.9901
36.1345 16.3131
36.3222 15.7217
36.5101 15.545
36.6981 15.6348
36.8861 15.233
37.0743 15.4124
37.2626 14.9575
37.451 14.6423
37.6395 14.4332
37.8281 14.2419
38.0168 14.0507
38.2056 14.1573
38.3945 13.6911
38.5837 13.4912
38.7728 13.5268
38.9621 13.2818
39.1514 13.2654
39.3409 12.974
39.5304 12.732
39.7201 12.6456
39.9099 12.457
40.0999 12.2984
40.2899 12.355
40.48 12.1918
40.6703 11.9372
40.8607 11.9409
41.0512 11.6874
41.242 11.6341
41.4327 11.5131
41.6236 11.2569
41.8146 11.1125
42.0057 11.0144
42.1969 10.9256
42.3882 10.8585
42.5797 10.5633
42.7713 10.3734
42.963 10.2876
43.1549 10.1292
43.3468 9.95438
43.5389 9.84056
43.7312 9.72939
43.9237 9.6304
44.1162 9.48724
44.3088 9.43377
44.5016 9.23842
44.6945 9.1072
44.8875 9.02308
45.0806 8.92015
45.2739 8.80086
45.4673 8.65394
45.6609 8.5407
45.8546 8.42928
46.0484 8.34917
46.2424 8.1931
46.4365 8.09546
46.631 7.98349
46.8254 7.8958
47.0199 7.77269
47.2146 7.61684
47.4095 7.52902
47.6044 7.42884
47.7996 7.34411
47.9948 7.17693
48.1902 7.08488
48.3858 6.98255
48.5815 6.92249
48.7774 6.85368
48.9734 6.72588
49.1696 6.63863
49.3661 6.49737
49.5626 6.42226
49.7592 6.3695
49.956 6.2826
50.153 6.18537
50.3501 6.11541
50.5474 6.03852
50.7448 5.91039
50.9424 5.83817
51.1402 5.75471
51.3381 5.64317
51.5362 5.57368
51.7344 5.45631
51.9328 5.4122
52.1316 5.31095
52.3304 5.2668
52.5293 5.12856
52.7284 5.05816
52.9276 4.99578
53.1271 4.92919
53.3267 4.82177
53.5265 4.75035
53.7264 4.65734
53.9266 4.55004
54.1269 4.48299
54.3274 4.41193
54.528 4.26167
54.7289 4.11496
54.9301 4.02342
55.1314 3.89688
55.3328 3.72913
55.5344 3.56481
55.7361 3.54879

File: Ni3Fe_FD0014.xy
TT I
1.27165 35.7985
1.45013 32.2819
1.62863 28.6013
1.80712 25.704
1.98562 25.1989
2.16411 25.9952
2.34263 26.2547
2.52115 26.4173
2.69965 30.0894
2.87818 39.2462
3.05672 66.2817
3.23527 80.1955
3.4138 44.0491
3.59237 39.4996
3.77094 41.1956
3.9495 42.9648
4.12809 54.233
4.30669 77.9577
4.4853 67.2687
4.6639 53.6703
4.84253 58.9747
5.02118 90.1514
5.19981 256.85
5.37848 4010.84
5.55716 161.972
5.73586 100.322
5.91455 108.619
6.09328 418.887
6.27201 350.13
6.45075 73.5641
6.62952 55.0149
6.8083 52.4746
6.98711 48.2213
7.16591 51.4828
7.34475 69.6627
7.5236 63.5045
7.70247 50.9559
7.88135 39.4944
8.06026 39.9814
8.23919 44.451
8.41812 55.6444
8.59709 145.82
8.77609 732.602
8.9551 80.0013
9.13412 58.9932
9.31318 246.871
9.49226 52.3934
9.67134 50.9051
9.85047 56.6684
10.0296 90.2162
10.2088 403.353
10.388 147.326
10.5672 89.2504
10.7465 293.703
10.9257 49.1245
11.105 41.8387
11.2844 40.4469
11.4637 38.4571
11.6431 37.5055
11.8225 37.2274
12.002 67.4191
12.1814 46.3547
12.3609 88.9047
12.5405 45.8937
12.72 39.7849
12.8996 39.5619
13.0792 41.792
13.2589 61.8421
13.4386 126.335
13.6183 99.4499
13.7981 135.404
13.9779 68.0634
14.1577 45.7671
14.3376 50.8402
14.5175 37.0516
14.6974 36.5877
14.8774 41.0912
15.0574 56.2305
15.2374 108.281
15.4175 41.259
15.5976 37.6347
15.7778 39.8457
15.958 51.384
16.1382 130.989
16.3185 40.4604
16.4988 33.1553
16.6792 31.2231
16.8596 31.0718
17.04 39.0345
17.2205 32.5597
17.401 35.1367
17.5815 50.8534
17.7622 34.3348
17.9428 40.8914
18.1237 42.1655
18.3044 80.9745
18.4852 58.9074
18.666 72.7812
18.8469 36.106
19.0278 32.7336
19.2088 32.5627
19.3898 37.8707
19.5709 45.6759
19.752 37.2931
19.9332 31.2764
20.1144 31.9831
20.2957 40.1845
20.477 39.6872
20.6586 42.0672
20.84 31.2077
21.0215 29.888
21.203 27.9054
21.3846 28.358
21.5662 32.6442
21.7479 29.0514
21.9297 30.6051
22.1115 38.8102
22.2933 46.0101
22.4753 37.5563
22.6572 29.7331
22.8393 29.6143
23.0214 31.2909
23.2037 36.9729
23.3859 35.7202
23.5682 34.5902
23.7505 33.2548
23.9329 45.6324
24.1154 29.6504
24.2979 27.2663
24.4805 25.9111
24.6631 25.963
24.8458 27.6496
25.0286 25.8983
25.2114 25.8095
25.3943 28.1528
25.5773 30.4968
25.7605 30.4304
25.9436 26.6728
26.1268 25.375
26.31 25.8666
26.4933 28.7399
26.6767 25.6232
26.8601 26.8826
27.0437 31.7716
27.2272 27.837
27.4109 24.5432
27.5946 24.3024
27.7784 24.5386
27.9623 25.4977
28.1462 25.4757
28.3304 26.6004
28.5145 28.4301
28.6987 25.7224
28.8829 22.9554
29.0673 22.3516
29.2517 23.2188
29.4361 22.0785
29.6207 21.7623
29.8053 22.926
29.99 21.262
30.1748 21.124
30.3597 20.9766
30.5447 21.1836
30.7297 21.2416
30.915 21.073
31.1002 23.1746
31.2855 22.2842
31.4708 20.5644
31.6563 20.5145
31.8418 21.3369
32.0275 20.8228
32.2132 20.4669
32.399 21.3136
32.5848 19.9485
32.7708 18.9353
32.9569 18.8034
33.143 18.8663
33.3293 18.3244
33.5158 18.7727
33.7022 19.1919
33.8887 18.2199
34.0753 17.7209
34.262 17.6494
34.4488 17.3147
34.6357 17.019
34.8227 17.0438
35.0098 16.6078
35.1969 16.2154
35.3842 16.248
35.5716 16.1956
35.759 16.4699
35.9468 16.9452
36.1345 16.1987
36.3222 15.7027
36.5101 15.6658
36.6981 15.6865
36.8861 15.282
37.0743 15.3231
37.2626 14.9254
37.451 14.6407
37.6395 14.43
37.8281 14.2147
38.0168 14.0504
38.2056 14.0561
38.3945 13.7222
38.5837 13.5441
38.7728 13.5525
38.9621 13.2941
39.1514 13.2291
39.3409 12.9589
39.5304 12.7481
39.7201 12.6238
39.9099 12.4595
40.0999 12.3012
40.2899 12.3588
40.48 12.171
40.6703 11.9983
40.8607 11.8639
41.0512 11.763
41.242 11.6372
41.4327 11.4845
41.6236 11.2498
41.8146 11.1096
42.0057 10.9382
42.1969 10.9625
42.3882 10.7929
42.5797 10.5863
42.7713 10.4383
42.963 10.2417
43.1549 10.1189
43.3468 9.95008
43.5389 9.84972
43.7312 9.6978
43.9237 9.56691
44.1162 9.51434
44.3088 9.40349
44.5016 9.22072
44.6945 9.10934
44.8875 9.0028
45.0806 8.9167
45.2739 8.82964
45.4673 8.68332
45.6609 8.56414
45.8546 8.45585
46.0484 8.33406
46.2424 8.21189
46.4365 8.09096
46.631 7.97021
46.8254 7.82565
47.0199 7.75743
47.2146 7.66147
47.4095 7.54589
47.6044 7.42615
47.7996 7.31844
47.9948 7.20557
48.1902 7.09228
48.3858 6.99546
48.5815 6.88735
48.7774 6.82542
48.9734 6.73261
49.1696 6.6241
49.3661 6.50353
49.5626 6.41892
49.7592 6.35221
49.956 6.26688
50.153 6.18709
50.3501 6.07085
50.5474 6.00584
50.7448 5.89947
50.9424 5.85217
51.1402 5.7456
51.3381 5.64665
51.5362 5.574
51.7344 5.48292
51.9328 5.38496
52.1316 5.28902
52.3304 5.23736
52.5293 5.12115
52.7284 5.05306
52.9276 5.007
53.1271 4.92111
53.3267 4.83004
53.5265 4.74204
53.7264 4.6354
53.9266 4.59791
54.1269 4.47489
54.3274 4.40138
54.528 4.26437
54.7289 4.10814
54.9301 4.00094
55.1314 3.90776
55.3328 3.70134
55.5344 3.57135
55.7361 3.49921

File: Ni3Fe_FD0015.xy
TT I
1.27165 36.2647
1.45013 31.9588
1.62863 28.0703
1.80712 25.5934
1.98562 25.9384
2.16411 25.629
2.34263 26.6855
2.52115 26.0253
2.69965 30.0114
2.87818 40.5211
3.05672 66.0553
3.23527 79.6957
3.4138 44.3432
3.59237 39.6748
3.77094 40.813
3.9495 42.4081
4.12809 53.597
4.30669 78.8286
4.4853 66.3887
4.6639 52.8094
4.84253 58.2317
5.02118 90.0664
5.19981 258.46
5.37848 3993.75
5.55716 160.807
5.73586 99.8989
5.91455 109.219
6.09328 421.073
6.27201 346.146
6.45075 73.3276
6.62952 54.8893
6.8083 52.1026
6.98711 47.5598
7.16591 50.8065
7.34475 69.0613
7.5236 62.9105
7.70247 50.2484
7.88135 38.8846
8.06026 40.2247
8.23919 44.6878
8.41812 55.9276
8.59709 147.443
8.77609 726.928
8.9551 79.5999
9.13412 58.8087
9.31318 248.611
9.49226 52.3707
9.67134 50.9912
9.85047 57.3269
10.0296 90.8861
10.2088 412.413
10.388 145.319
10.5672 89.4087
10.7465 291.836
10.9257 49.168
11.105 41.967
11.2844 40.5469
11.4637 38.8076
11.6431 37.6396
11.8225 37.1634
12.002 68.0853
12.1814 46.3884
12.3609 89.776
12.5405 45.8682
12.72 39.7532
12.8996 39.6555
13.0792 41.7305
13.2589 62.0943
13.4386 128.432
13.6183 98.4917
13.7981 137.881
13.9779 67.357
14.1577 46.3424
14.3376 50.6139
14.5175 36.9382
14.6974 36.8162
14.8774 41.2718
15.0574 56.4055
15.2374 106.251
15.4175 41.005
15.5976 37.488
15.7778 40.0137
15.958 51.6524
16.1382 130.142
16.3185 40.3963
16.4988 33.1155
16.6792 31.3422
16.8596 31.0583
17.04 38.904
17.2205 32.8881
17.401 35.0605
17.5815 50.618
17.7622 34.57
17.9428 40.661
18.1237 42.2965
18.3044 82.0009
18.4852 58.3994
18.666 71.7807
18.8469 35.988
19.0278 32.8619
19.2088 32.7575
19.3898 38.1409
19.5709 45.691
19.752 37.0815
19.9332 31.2844
20.1144 31.9434
20.2957 40.4385
20.477 39.746
20.6586 41.8412
20.84 31.2685
21.0215 29.6643
21.203 28.1133
21.3846 28.2692
21.5662 32.6035
21.7479 29.1394
21.9297 30.6945
22.1115 38.8661
22.2933 45.3676
22.4753 37.252
22.6572 29.7553
22.8393 29.7567
23.0214 31.0723
23.2037 37.2751
23.3859 35.3664
23.5682 34.4668
23.7505 33.3015
23.9329 45.1477
24.1154 29.4986
24.2979 27.1825
24.4805 26.0167
24.6631 26.052
24.8458 27.808
25.0286 25.8781
25.2114 25.9343
25.3943 28.316
25.5773 30.4769
25.7605 30.1795
25.9436 26.6553
26.1268 25.3123
26.31 26.0904
26.4933 28.5622
26.6767 25.6081
26.8601 26.7847
27.0437 31.4545
27.2272 27.6413
27.4109 24.4808
27.5946 24.311
27.7784 24.6187
27.9623 25.5902
28.1462 25.3854
28.3304 26.6697
28.5145 28.2856
28.6987 25.6698
28.8829 22.9514
29.0673 22.3625
29.2517 23.235
29.4361 22.0804
29.6207 21.6915
29.8053 22.8899
29.99 21.3463
30.1748 21.1463
30.3597 20.9578
30.5447 21.2645
30.7297 21.0867
30.915 21.0607
31.1002 23.1154
31.2855 22.2282
31.4708 20.5505
31.6563 20.4055
31.8418 21.43
32.0275 20.7232
32.2132 20.4917
32.399 21.1528
32.5848 19.923
32.7708 18.9389
32.9569 18.7899
33.143 18.8195
33.3293 18.2973
33.5158 18.7691
33.7022 19.1989
33.8887 18.0774
34.0753 17.7344
34.262 17.6149
34.4488 17.3224
34.6357 16.9624
34.8227 16.9542
35.0098 16.5205
35.1969 16.2927
35.3842 16.3132
35.5716 16.3036
35.759 16.55
35.9468 16.8962
36.1345 16.2438
36.3222 15.7594
36.5101 15.6128
36.6981 15.5725
36.8861 15.2126
37.0743 15.3011
37.2626 14.924
37.451 14.6274
37.6395 14.4542
37.8281 14.242
38.0168 14.0261
38.2056 13.9916
38.3945 13.6783
38.5837 13.5203
38.7728 13.5158
38.9621 13.2453
39.1514 13.2552
39.3409 12.9691
39.5304 12.7562
39.7201 12.5109
39.9099 12.4539
40.0999 12.3322
40.2899 12.3178
40.48 12.1411
40.6703 11.9521
40.8607 11.8652
41.0512 11.7147
41.242 11.6588
41.4327 11.4843
41.6236 11.2053
41.8146 11.1032
42.0057 11.0037
42.1969 10.8877
42.3882 10.8325
42.5797 10.5002
42.7713 10.429
42.963 10.2449
43.1549 10.128
43.3468 9.98975
43.5389 9.8411
43.7312 9.67117
43.9237 9.58462
44.1162 9.49753
44.3088 9.39079
44.5016 9.23881
44.6945 9.15171
44.8875 9.01479
45.0806 8.89732
45.2739 8.79213
45.4673 8.68839
45.6609 8.52269
45.8546 8.42532
46.0484 8.3277
46.2424 8.21284
46.4365 8.0771
46.631 7.97412
46.8254 7.8828
47.0199 7.76151
47.2146 7.63937
47.4095 7.50506
47.6044 7.40891
47.7996 7.28716
47.9948 7.22945
48.1902 7.12863
48.3858 7.00974
48.5815 6.90492
48.7774 6.82476
48.9734 6.73031
49.1696 6.63312
49.3661 6.53745
49.5626 6.43127
49.7592 6.36132
49.956 6.26778
50.153 6.17068
50.3501 6.0637
50.5474 6.01591
50.7448 5.89408
50.9424 5.82874
51.1402 5.70336
51.3381 5.6311
51.5362 5.58528
51.7344 5.46142
51.9328 5.37355
52.1316 5.28589
52.3304 5.26099
52.5293 5.1367
52.7284 5.04233
52.9276 4.97146
53.1271 4.89536
53.3267 4.81889
53.5265 4.73133
53.7264 4.63145
53.9266 4.55478
54.1269 4.44171
54.3274 4.39927
54.528 4.27212
54.7289 4.13324
54.9301 3.98698
55.1314 3.89929
55.3328 3.76151
55.5344 3.59052
55.7361 3.51664