Folder: NiFe_MOF_catalyst_paper/XRD (part 161)

File: Ni3Fe_FD0873.xy
TT I
1.27165 7.13397
1.45013 6.01667
1.62863 5.2223
1.80712 4.4275
1.98562 4.87446
2.16411 5.3133
2.34263 5.5805
2.52115 7.58489
2.69965 8.45469
2.87818 9.08021
3.05672 11.3461
3.23527 15.1811
3.4138 18.8926
3.59237 24.1901
3.77094 26.2944
3.9495 29.6148
4.12809 34.5267
4.30669 249.181
4.4853 68.4524
4.6639 54.8668
4.84253 65.8065
5.02118 84.4141
5.19981 288.583
5.37848 178.705
5.55716 100.174
5.73586 90.2918
5.91455 91.1051
6.09328 4366.21
6.27201 81.6313
6.45075 66.2186
6.62952 62.2237
6.8083 58.1591
6.98711 55.3608
7.16591 55.0626
7.34475 97.8479
7.5236 54.2406
7.70247 55.5024
7.88135 56.976
8.06026 61.0528
8.23919 68.3431
8.41812 83.6439
8.59709 1107.45
8.77609 97.3093
8.9551 91.0545
9.13412 80.4145
9.31318 81.1006
9.49226 83.0211
9.67134 98.6887
9.85047 97.465
10.0296 295.781
10.2088 408.871
10.388 102.598
10.5672 522.902
10.7465 85.1951
10.9257 77.4279
11.105 70.7702
11.2844 69.8899
11.4637 64.346
11.6431 62.6991
11.8225 61.4563
12.002 62.1273
12.1814 149.335
12.3609 70.6825
12.5405 63.7206
12.72 69.9123
12.8996 69.6007
13.0792 77.0352
13.2589 224.197
13.4386 123.695
13.6183 239.851
13.7981 95.9556
13.9779 74.7209
14.1577 71.4036
14.3376 70.7795
14.5175 67.6964
14.6974 69.1408
14.8774 104.745
15.0574 146.175
15.2374 70.3352
15.4175 65.1352
15.5976 64.5894
15.7778 89.6428
15.958 156.672
16.1382 62.2903
16.3185 58.161
16.4988 54.7869
16.6792 53.5854
16.8596 54.2966
17.04 54.6468
17.2205 64.6449
17.401 70.0306
17.5815 58.3383
17.7622 60.034
17.9428 70.7515
18.1237 138.779
18.3044 88.9636
18.4852 76.5575
18.666 59.5935
18.8469 57.1028
19.0278 56.0455
19.2088 58.345
19.3898 76.2571
19.5709 53.4304
19.752 52.4478
19.9332 54.925
20.1144 69.3388
20.2957 63.3498
20.477 53.326
20.6586 48.8949
20.84 48.0471
21.0215 47.7874
21.203 50.1427
21.3846 48.1797
21.5662 48.07
21.7479 51.4157
21.9297 63.8723
22.1115 55.528
22.2933 49.1671
22.4753 48.2898
22.6572 47.9358
22.8393 50.943
23.0214 56.6939
23.2037 47.9917
23.3859 48.8121
23.5682 56.4379
23.7505 47.6622
23.9329 44.6468
24.1154 43.492
24.2979 42.7439
24.4805 42.2774
24.6631 42.3304
24.8458 41.7384
25.0286 42.1111
25.2114 43.947
25.3943 44.0561
25.5773 40.3455
25.7605 39.8913
25.9436 40.2387
26.1268 41.2325
26.31 39.4768
26.4933 40.2044
26.6767 41.6189
26.8601 40.013
27.0437 38.2835
27.2272 37.8815
27.4109 37.9901
27.5946 37.906
27.7784 37.3672
27.9623 37.8168
28.1462 38.285
28.3304 36.8311
28.5145 35.4655
28.6987 35.3217
28.8829 34.8441
29.0673 34.2933
29.2517 33.763
29.4361 33.7296
29.6207 32.7472
29.8053 32.4218
29.99 32.2382
30.1748 31.9833
30.3597 31.8578
30.5447 31.7708
30.7297 31.8247
30.915 31.1279
31.1002 30.6512
31.2855 30.507
31.4708 30.4219
31.6563 29.9753
31.8418 29.7828
32.0275 29.6131
32.2132 28.985
32.399 28.5433
32.5848 28.1625
32.7708 27.7156
32.9569 27.6878
33.143 27.3779
33.3293 27.0653
33.5158 26.6961
33.7022 26.2078
33.8887 26.0174
34.0753 25.6815
34.262 25.3648
34.4488 24.8672
34.6357 24.6412
34.8227 24.4401
35.0098 24.2067
35.1969 23.8656
35.3842 23.6778
35.5716 23.4834
35.759 23.1625
35.9468 22.8177
36.1345 22.6108
36.3222 22.4237
36.5101 22.1339
36.6981 21.8016
36.8861 21.5075
37.0743 21.2332
37.2626 21.0823
37.451 20.7177
37.6395 20.5605
37.8281 20.2361
38.0168 19.9221
38.2056 19.7709
38.3945 19.3639
38.5837 19.1653
38.7728 19.0011
38.9621 18.7104
39.1514 18.4038
39.3409 18.2009
39.5304 17.9659
39.7201 17.8172
39.9099 17.5884
40.0999 17.3621
40.2899 17.1417
40.48 16.9434
40.6703 16.6483
40.8607 16.5086
41.0512 16.2989
41.242 16.0549
41.4327 15.8465
41.6236 15.6128
41.8146 15.453
42.0057 15.23
42.1969 15.0139
42.3882 14.9339
42.5797 14.6691
42.7713 14.4356
42.963 14.243
43.1549 14.0267
43.3468 13.8437
43.5389 13.6659
43.7312 13.4556
43.9237 13.3031
44.1162 13.1277
44.3088 12.9015
44.5016 12.7268
44.6945 12.5927
44.8875 12.4008
45.0806 12.2253
45.2739 12.0462
45.4673 11.8728
45.6609 11.7156
45.8546 11.6049
46.0484 11.4132
46.2424 11.2484
46.4365 11.0294
46.631 10.9004
46.8254 10.7413
47.0199 10.5559
47.2146 10.4387
47.4095 10.2969
47.6044 10.1014
47.7996 9.95211
47.9948 9.81113
48.1902 9.68865
48.3858 9.56124
48.5815 9.42779
48.7774 9.28593
48.9734 9.13288
49.1696 8.96501
49.3661 8.84237
49.5626 8.68682
49.7592 8.57442
49.956 8.46387
50.153 8.34199
50.3501 8.22238
50.5474 8.06447
50.7448 7.97199
50.9424 7.84865
51.1402 7.72378
51.3381 7.58803
51.5362 7.47021
51.7344 7.32864
51.9328 7.206
52.1316 7.04516
52.3304 6.99475
52.5293 6.90939
52.7284 6.7651
52.9276 6.61436
53.1271 6.52663
53.3267 6.41134
53.5265 6.28197
53.7264 6.19005
53.9266 6.08132
54.1269 5.94878
54.3274 5.88094
54.528 5.79741
54.7289 5.54716
54.9301 5.35663
55.1314 5.29491
55.3328 5.09039
55.5344 4.88805
55.7361 4.69698

File: Ni3Fe_FD0874.xy
TT I
1.27165 6.97228
1.45013 6.64532
1.62863 5.53023
1.80712 4.55502
1.98562 5.05168
2.16411 5.09796
2.34263 5.27051
2.52115 7.38067
2.69965 8.30338
2.87818 8.50861
3.05672 11.1806
3.23527 15.2284
3.4138 19.0397
3.59237 24.2381
3.77094 26.304
3.9495 29.7227
4.12809 34.3404
4.30669 252.407
4.4853 68.7637
4.6639 54.7685
4.84253 65.9745
5.02118 85.0052
5.19981 287.397
5.37848 179.671
5.55716 100.099
5.73586 89.9667
5.91455 90.7189
6.09328 4356.09
6.27201 81.7495
6.45075 66.1284
6.62952 62.1411
6.8083 58.1661
6.98711 55.4173
7.16591 54.9498
7.34475 98.1243
7.5236 54.1902
7.70247 55.2407
7.88135 56.9828
8.06026 61.1626
8.23919 68.6145
8.41812 83.5301
8.59709 1101.55
8.77609 97.278
8.9551 91.6766
9.13412 80.5265
9.31318 81.0339
9.49226 82.8361
9.67134 98.4961
9.85047 98.0962
10.0296 294.794
10.2088 409.82
10.388 102.666
10.5672 521.191
10.7465 85.204
10.9257 77.5434
11.105 70.9971
11.2844 70.1691
11.4637 63.9613
11.6431 62.7215
11.8225 61.4803
12.002 62.1929
12.1814 148.931
12.3609 70.6796
12.5405 63.3695
12.72 69.9707
12.8996 69.6577
13.0792 77.2462
13.2589 222.789
13.4386 123.997
13.6183 238.966
13.7981 96.2642
13.9779 74.4392
14.1577 71.3313
14.3376 70.7646
14.5175 67.6647
14.6974 69.0847
14.8774 104.837
15.0574 146.628
15.2374 70.3549
15.4175 65.254
15.5976 64.4426
15.7778 89.5689
15.958 156.408
16.1382 62.1888
16.3185 58.0565
16.4988 54.6495
16.6792 53.7515
16.8596 54.54
17.04 54.7288
17.2205 65.0619
17.401 69.9194
17.5815 58.1861
17.7622 60.3686
17.9428 70.5706
18.1237 138.646
18.3044 88.6491
18.4852 76.4524
18.666 59.3647
18.8469 56.9548
19.0278 55.9743
19.2088 58.43
19.3898 76.3121
19.5709 53.3687
19.752 52.461
19.9332 55.0076
20.1144 69.2434
20.2957 63.251
20.477 53.1669
20.6586 48.8025
20.84 48.1583
21.0215 47.9347
21.203 50.1006
21.3846 48.2705
21.5662 47.8844
21.7479 51.2791
21.9297 63.8168
22.1115 55.4541
22.2933 49.2618
22.4753 48.2666
22.6572 47.9892
22.8393 50.8658
23.0214 56.8169
23.2037 48.1065
23.3859 48.866
23.5682 56.4062
23.7505 47.8818
23.9329 44.6686
24.1154 43.3557
24.2979 42.7023
24.4805 42.42
24.6631 42.1022
24.8458 41.6603
25.0286 42.2509
25.2114 44.0331
25.3943 43.9636
25.5773 40.2371
25.7605 39.8923
25.9436 40.1492
26.1268 41.0676
26.31 39.6601
26.4933 40.0009
26.6767 41.551
26.8601 39.9354
27.0437 38.4577
27.2272 38.0154
27.4109 37.8181
27.5946 37.7739
27.7784 37.332
27.9623 37.7657
28.1462 38.3153
28.3304 36.6915
28.5145 35.3124
28.6987 35.027
28.8829 34.9089
29.0673 34.1955
29.2517 33.7934
29.4361 33.6601
29.6207 32.5778
29.8053 32.4624
29.99 32.1417
30.1748 32.0251
30.3597 31.8158
30.5447 31.7194
30.7297 31.7699
30.915 31.2558
31.1002 30.6354
31.2855 30.4012
31.4708 30.4332
31.6563 29.9712
31.8418 29.7538
32.0275 29.5524
32.2132 29.0001
32.399 28.587
32.5848 28.2053
32.7708 27.7575
32.9569 27.654
33.143 27.389
33.3293 27.1217
33.5158 26.73
33.7022 26.2311
33.8887 25.9989
34.0753 25.7486
34.262 25.2912
34.4488 25.0166
34.6357 24.6219
34.8227 24.4111
35.0098 24.1236
35.1969 23.9182
35.3842 23.6507
35.5716 23.4834
35.759 23.1796
35.9468 22.7836
36.1345 22.571
36.3222 22.3901
36.5101 22.1374
36.6981 21.8394
36.8861 21.4644
37.0743 21.1617
37.2626 20.8868
37.451 20.7251
37.6395 20.6212
37.8281 20.208
38.0168 19.9605
38.2056 19.6951
38.3945 19.4114
38.5837 19.2254
38.7728 18.9905
38.9621 18.704
39.1514 18.4802
39.3409 18.2045
39.5304 17.988
39.7201 17.7783
39.9099 17.5355
40.0999 17.351
40.2899 17.1833
40.48 16.9114
40.6703 16.6997
40.8607 16.4842
41.0512 16.2601
41.242 16.0482
41.4327 15.871
41.6236 15.6203
41.8146 15.4314
42.0057 15.2167
42.1969 15.0537
42.3882 14.8347
42.5797 14.692
42.7713 14.4226
42.963 14.2441
43.1549 14.0774
43.3468 13.8677
43.5389 13.6109
43.7312 13.4293
43.9237 13.2855
44.1162 13.0445
44.3088 12.9218
44.5016 12.7492
44.6945 12.5973
44.8875 12.4034
45.0806 12.2334
45.2739 12.0321
45.4673 11.893
45.6609 11.667
45.8546 11.5818
46.0484 11.3918
46.2424 11.2339
46.4365 11.092
46.631 10.8869
46.8254 10.7364
47.0199 10.5802
47.2146 10.4437
47.4095 10.243
47.6044 10.126
47.7996 9.93155
47.9948 9.80437
48.1902 9.68975
48.3858 9.48297
48.5815 9.42444
48.7774 9.25877
48.9734 9.1592
49.1696 8.98363
49.3661 8.85571
49.5626 8.72891
49.7592 8.59606
49.956 8.46936
50.153 8.32456
50.3501 8.19825
50.5474 8.07616
50.7448 7.96999
50.9424 7.8329
51.1402 7.75044
51.3381 7.57996
51.5362 7.45812
51.7344 7.35299
51.9328 7.22351
52.1316 7.08426
52.3304 6.97688
52.5293 6.89128
52.7284 6.73917
52.9276 6.61155
53.1271 6.53985
53.3267 6.42916
53.5265 6.29137
53.7264 6.22276
53.9266 6.09369
54.1269 5.97318
54.3274 5.83108
54.528 5.73301
54.7289 5.55895
54.9301 5.39967
55.1314 5.29773
55.3328 5.0453
55.5344 4.88127
55.7361 4.74192

File: Ni3Fe_FD0875.xy
TT I
1.27165 7.43737
1.45013 5.39759
1.62863 5.00651
1.80712 4.68777
1.98562 4.88057
2.16411 5.01027
2.34263 4.98258
2.52115 7.76875
2.69965 9.1003
2.87818 8.22417
3.05672 11.0286
3.23527 15.6139
3.4138 19.1326
3.59237 24.4275
3.77094 26.2304
3.9495 29.7794
4.12809 34.5575
4.30669 254.634
4.4853 68.5896
4.6639 54.9276
4.84253 65.9538
5.02118 84.4494
5.19981 288.246
5.37848 178.919
5.55716 99.8782
5.73586 90.2119
5.91455 91.0892
6.09328 4349.46
6.27201 81.7954
6.45075 66.3471
6.62952 61.8743
6.8083 58.2463
6.98711 55.3759
7.16591 55.0082
7.34475 98.343
7.5236 54.2635
7.70247 55.7567
7.88135 57.0423
8.06026 61.5386
8.23919 68.2632
8.41812 83.4413
8.59709 1103.09
8.77609 97.6496
8.9551 91.7228
9.13412 80.5994
9.31318 80.9135
9.49226 83.0694
9.67134 98.366
9.85047 98.2871
10.0296 294.594
10.2088 408.863
10.388 102.857
10.5672 523.306
10.7465 85.1779
10.9257 77.868
11.105 71.0533
11.2844 70.0644
11.4637 63.9684
11.6431 62.8793
11.8225 61.7781
12.002 62.3429
12.1814 149.15
12.3609 71.0232
12.5405 63.7255
12.72 69.5558
12.8996 69.7528
13.0792 76.9614
13.2589 223.063
13.4386 123.676
13.6183 239.68
13.7981 96.0463
13.9779 74.4931
14.1577 71.569
14.3376 70.8555
14.5175 67.7101
14.6974 69.2101
14.8774 104.565
15.0574 146.817
15.2374 70.4349
15.4175 65.3254
15.5976 64.6707
15.7778 89.3584
15.958 155.813
16.1382 62.1081
16.3185 58.3134
16.4988 54.9257
16.6792 53.6333
16.8596 54.5989
17.04 54.9021
17.2205 64.9425
17.401 69.865
17.5815 58.2925
17.7622 60.3662
17.9428 70.6749
18.1237 138.612
18.3044 88.8319
18.4852 76.6917
18.666 59.4716
18.8469 57.2896
19.0278 56.273
19.2088 58.3659
19.3898 76.1865
19.5709 53.5664
19.752 52.3891
19.9332 55.0764
20.1144 69.4717
20.2957 63.354
20.477 53.167
20.6586 49.044
20.84 48.0667
21.0215 47.7846
21.203 50.3065
21.3846 48.3819
21.5662 47.931
21.7479 51.431
21.9297 63.8849
22.1115 55.5414
22.2933 49.2493
22.4753 48.2449
22.6572 47.9927
22.8393 50.9212
23.0214 56.6738
23.2037 48.1322
23.3859 48.829
23.5682 56.5625
23.7505 47.6476
23.9329 44.5673
24.1154 43.4784
24.2979 42.9066
24.4805 42.1909
24.6631 42.2084
24.8458 41.6241
25.0286 42.1833
25.2114 44.0991
25.3943 44.2352
25.5773 40.4152
25.7605 39.8783
25.9436 40.2514
26.1268 41.0661
26.31 39.6357
26.4933 40.129
26.6767 41.6105
26.8601 39.9969
27.0437 38.3543
27.2272 37.978
27.4109 37.8585
27.5946 37.8096
27.7784 37.2989
27.9623 37.8673
28.1462 38.3679
28.3304 36.707
28.5145 35.4173
28.6987 35.15
28.8829 34.9627
29.0673 34.2062
29.2517 33.8476
29.4361 33.7542
29.6207 32.6746
29.8053 32.3556
29.99 32.2905
30.1748 32.0896
30.3597 31.8493
30.5447 31.7007
30.7297 31.839
30.915 31.084
31.1002 30.6705
31.2855 30.4336
31.4708 30.3735
31.6563 29.8785
31.8418 29.7268
32.0275 29.572
32.2132 29.1245
32.399 28.6467
32.5848 28.2088
32.7708 27.7677
32.9569 27.729
33.143 27.3709
33.3293 27.0721
33.5158 26.7022
33.7022 26.2766
33.8887 25.9228
34.0753 25.6353
34.262 25.3113
34.4488 24.9635
34.6357 24.6813
34.8227 24.4589
35.0098 24.2318
35.1969 23.8492
35.3842 23.7379
35.5716 23.4656
35.759 23.2628
35.9468 22.774
36.1345 22.5535
36.3222 22.3727
36.5101 22.1422
36.6981 21.8849
36.8861 21.4735
37.0743 21.254
37.2626 20.9831
37.451 20.6857
37.6395 20.5749
37.8281 20.2373
38.0168 19.943
38.2056 19.7453
38.3945 19.4248
38.5837 19.1615
38.7728 18.9623
38.9621 18.7277
39.1514 18.4845
39.3409 18.2368
39.5304 18.0543
39.7201 17.8625
39.9099 17.5821
40.0999 17.3756
40.2899 17.1873
40.48 16.9067
40.6703 16.736
40.8607 16.5577
41.0512 16.2582
41.242 16.0939
41.4327 15.8319
41.6236 15.6629
41.8146 15.457
42.0057 15.2327
42.1969 15.0436
42.3882 14.8347
42.5797 14.6312
42.7713 14.4375
42.963 14.2304
43.1549 14.0469
43.3468 13.8643
43.5389 13.7112
43.7312 13.4962
43.9237 13.3325
44.1162 13.0913
44.3088 12.9152
44.5016 12.7515
44.6945 12.5528
44.8875 12.3728
45.0806 12.2652
45.2739 12.0878
45.4673 11.8833
45.6609 11.7208
45.8546 11.577
46.0484 11.4446
46.2424 11.2468
46.4365 11.1197
46.631 10.9085
46.8254 10.7105
47.0199 10.5773
47.2146 10.4714
47.4095 10.2732
47.6044 10.1077
47.7996 9.94897
47.9948 9.8393
48.1902 9.6854
48.3858 9.5522
48.5815 9.446
48.7774 9.3114
48.9734 9.15522
49.1696 9.02014
49.3661 8.83476
49.5626 8.70217
49.7592 8.58216
49.956 8.45834
50.153 8.32309
50.3501 8.19238
50.5474 8.08903
50.7448 8.0116
50.9424 7.81734
51.1402 7.7099
51.3381 7.57804
51.5362 7.45656
51.7344 7.36463
51.9328 7.23975
52.1316 7.0914
52.3304 7.01234
52.5293 6.88802
52.7284 6.78587
52.9276 6.65163
53.1271 6.55993
53.3267 6.46377
53.5265 6.32356
53.7264 6.22593
53.9266 6.10723
54.1269 6.02281
54.3274 5.88259
54.528 5.75359
54.7289 5.59173
54.9301 5.40403
55.1314 5.3032
55.3328 5.1094
55.5344 4.91191
55.7361 4.77444

File: Ni3Fe_FD0876.xy
TT I
1.27165 7.07823
1.45013 5.95662
1.62863 5.13678
1.80712 4.86532
1.98562 5.0395
2.16411 5.52197
2.34263 5.83086
2.52115 7.31369
2.69965 8.34145
2.87818 8.09298
3.05672 10.7002
3.23527 15.2105
3.4138 19.2252
3.59237 24.225
3.77094 26.5659
3.9495 29.5902
4.12809 34.6187
4.30669 255.323
4.4853 68.7444
4.6639 54.8573
4.84253 66.4993
5.02118 84.2775
5.19981 290.982
5.37848 177.837
5.55716 100.255
5.73586 90.0602
5.91455 90.9296
6.09328 4361.3
6.27201 82.0073
6.45075 66.7061
6.62952 62.1706
6.8083 58.4045
6.98711 55.362
7.16591 54.9698
7.34475 97.9235
7.5236 54.3428
7.70247 55.5249
7.88135 57.1385
8.06026 61.4048
8.23919 68.8346
8.41812 83.6676
8.59709 1108.63
8.77609 97.3409
8.9551 91.9193
9.13412 80.8286
9.31318 81.4172
9.49226 83.2946
9.67134 98.9049
9.85047 97.9715
10.0296 296.196
10.2088 404.976
10.388 102.705
10.5672 524.859
10.7465 85.4369
10.9257 77.8774
11.105 71.0593
11.2844 70.1289
11.4637 64.3656
11.6431 62.8994
11.8225 61.6674
12.002 62.693
12.1814 149.463
12.3609 71.1364
12.5405 63.8158
12.72 69.8647
12.8996 69.7335
13.0792 77.2367
13.2589 224.25
13.4386 123.398
13.6183 240.164
13.7981 95.6675
13.9779 74.624
14.1577 71.6173
14.3376 71.0534
14.5175 67.8879
14.6974 69.166
14.8774 104.782
15.0574 146.435
15.2374 70.4875
15.4175 65.3593
15.5976 64.7381
15.7778 89.7709
15.958 155.07
16.1382 62.2509
16.3185 58.073
16.4988 54.7557
16.6792 53.8148
16.8596 54.5091
17.04 54.9213
17.2205 65.0314
17.401 69.8439
17.5815 58.4726
17.7622 60.3356
17.9428 70.8917
18.1237 138.423
18.3044 88.5512
18.4852 76.7898
18.666 59.6048
18.8469 57.1221
19.0278 56.1257
19.2088 58.2931
19.3898 76.5073
19.5709 53.536
19.752 52.5235
19.9332 55.1199
20.1144 69.4642
20.2957 63.3478
20.477 53.2435
20.6586 49.0084
20.84 48.1174
21.0215 47.7765
21.203 50.3063
21.3846 48.3493
21.5662 48.0998
21.7479 51.4631
21.9297 63.9912
22.1115 55.49
22.2933 49.1341
22.4753 48.1882
22.6572 48.1442
22.8393 51.1196
23.0214 56.946
23.2037 48.1869
23.3859 48.9033
23.5682 56.4052
23.7505 47.7415
23.9329 44.752
24.1154 43.535
24.2979 42.879
24.4805 42.4317
24.6631 42.3291
24.8458 41.744
25.0286 42.2933
25.2114 44.1058
25.3943 44.1576
25.5773 40.4546
25.7605 39.9319
25.9436 40.1681
26.1268 41.0594
26.31 39.5753
26.4933 40.2684
26.6767 41.6325
26.8601 39.8306
27.0437 38.4002
27.2272 38.0734
27.4109 37.973
27.5946 37.9379
27.7784 37.3758
27.9623 37.9521
28.1462 38.3627
28.3304 36.7289
28.5145 35.6623
28.6987 35.1327
28.8829 35.1229
29.0673 34.247
29.2517 33.9091
29.4361 33.617
29.6207 32.7582
29.8053 32.4875
29.99 32.236
30.1748 32.0043
30.3597 31.9477
30.5447 31.7839
30.7297 31.8784
30.915 31.2929
31.1002 30.7297
31.2855 30.5289
31.4708 30.519
31.6563 29.9821
31.8418 29.7348
32.0275 29.5815
32.2132 29.0171
32.399 28.64
32.5848 28.1422
32.7708 27.8199
32.9569 27.7122
33.143 27.4696
33.3293 27.106
33.5158 26.7394
33.7022 26.2902
33.8887 26.0514
34.0753 25.6461
34.262 25.3363
34.4488 25.0965
34.6357 24.6428
34.8227 24.4316
35.0098 24.2184
35.1969 23.885
35.3842 23.7295
35.5716 23.4681
35.759 23.1689
35.9468 22.8684
36.1345 22.6764
36.3222 22.3471
36.5101 22.1689
36.6981 21.8812
36.8861 21.5525
37.0743 21.2751
37.2626 20.9802
37.451 20.6767
37.6395 20.631
37.8281 20.2709
38.0168 19.9685
38.2056 19.7317
38.3945 19.4737
38.5837 19.2368
38.7728 19.0265
38.9621 18.7795
39.1514 18.4937
39.3409 18.2275
39.5304 18.0532
39.7201 17.9148
39.9099 17.6405
40.0999 17.4086
40.2899 17.1282
40.48 16.8923
40.6703 16.7263
40.8607 16.5649
41.0512 16.3533
41.242 16.081
41.4327 15.8691
41.6236 15.7049
41.8146 15.4657
42.0057 15.3055
42.1969 15.0537
42.3882 14.8575
42.5797 14.6219
42.7713 14.4703
42.963 14.2659
43.1549 14.0722
43.3468 13.8822
43.5389 13.6504
43.7312 13.4736
43.9237 13.3097
44.1162 13.1749
44.3088 12.9225
44.5016 12.7379
44.6945 12.5827
44.8875 12.4008
45.0806 12.1986
45.2739 12.0802
45.4673 11.8811
45.6609 11.7334
45.8546 11.5463
46.0484 11.3894
46.2424 11.2347
46.4365 11.0769
46.631 10.9116
46.8254 10.6936
47.0199 10.5963
47.2146 10.421
47.4095 10.2902
47.6044 10.1289
47.7996 9.97107
47.9948 9.82677
48.1902 9.68908
48.3858 9.53712
48.5815 9.44009
48.7774 9.27135
48.9734 9.13065
49.1696 9.01735
49.3661 8.87455
49.5626 8.705
49.7592 8.63777
49.956 8.48714
50.153 8.37006
50.3501 8.21721
50.5474 8.08277
50.7448 7.94602
50.9424 7.83956
51.1402 7.72968
51.3381 7.58418
51.5362 7.46133
51.7344 7.35771
51.9328 7.20877
52.1316 7.11361
52.3304 7.01888
52.5293 6.89423
52.7284 6.75146
52.9276 6.65448
53.1271 6.56854
53.3267 6.41212
53.5265 6.33631
53.7264 6.21347
53.9266 6.11931
54.1269 5.99308
54.3274 5.90413
54.528 5.74982
54.7289 5.58535
54.9301 5.4162
55.1314 5.27956
55.3328 5.09547
55.5344 4.95695
55.7361 4.78254

File: Ni3Fe_FD0877.xy
TT I
1.27165 7.3074
1.45013 5.81326
1.62863 4.94046
1.80712 4.82404
1.98562 4.34476
2.16411 4.90748
2.34263 5.50838
2.52115 7.51662
2.69965 8.70315
2.87818 9.15217
3.05672 11.3657
3.23527 14.8806
3.4138 18.905
3.59237 24.4433
3.77094 26.0791
3.9495 30.0228
4.12809 34.9522
4.30669 257.583
4.4853 69.0892
4.6639 55.0233
4.84253 66.0053
5.02118 84.3344
5.19981 289.486
5.37848 177.948
5.55716 99.8834
5.73586 90.2816
5.91455 90.7292
6.09328 4283.9
6.27201 81.8566
6.45075 66.4815
6.62952 62.3377
6.8083 58.4823
6.98711 55.3917
7.16591 54.9793
7.34475 98.7147
7.5236 54.4455
7.70247 55.698
7.88135 57.2039
8.06026 61.4316
8.23919 68.5966
8.41812 83.84
8.59709 1103.16
8.77609 97.5203
8.9551 91.6008
9.13412 80.8209
9.31318 81.4483
9.49226 83.0737
9.67134 99.0736
9.85047 98.4236
10.0296 295.531
10.2088 407.657
10.388 103.12
10.5672 520.22
10.7465 85.2733
10.9257 77.5508
11.105 71.1092
11.2844 70.1057
11.4637 64.3302
11.6431 63.0293
11.8225 61.6721
12.002 62.6276
12.1814 148.973
12.3609 71.3636
12.5405 63.5522
12.72 69.7577
12.8996 69.911
13.0792 77.0739
13.2589 223.409
13.4386 123.683
13.6183 238.788
13.7981 96.1514
13.9779 74.6484
14.1577 71.7088
14.3376 71.1726
14.5175 67.6419
14.6974 69.3554
14.8774 104.53
15.0574 147.29
15.2374 70.4554
15.4175 65.4593
15.5976 64.6789
15.7778 89.9101
15.958 155.843
16.1382 62.5936
16.3185 58.122
16.4988 54.6991
16.6792 53.9579
16.8596 54.4795
17.04 54.9246
17.2205 65.0108
17.401 69.633
17.5815 58.1889
17.7622 60.4013
17.9428 70.8512
18.1237 138.471
18.3044 88.9352
18.4852 76.7087
18.666 59.8539
18.8469 57.1531
19.0278 56.0331
19.2088 58.3832
19.3898 76.4566
19.5709 53.3678
19.752 52.4025
19.9332 55.0654
20.1144 69.3873
20.2957 63.4132
20.477 53.0958
20.6586 49.0778
20.84 48.164
21.0215 47.9946
21.203 50.2677
21.3846 48.33
21.5662 48.1367
21.7479 51.4921
21.9297 64.0803
22.1115 55.5222
22.2933 49.2066
22.4753 48.4607
22.6572 47.9274
22.8393 50.9661
23.0214 56.8686
23.2037 48.2292
23.3859 48.8216
23.5682 56.4541
23.7505 47.841
23.9329 44.6879
24.1154 43.5599
24.2979 42.9919
24.4805 42.4286
24.6631 42.3531
24.8458 41.6894
25.0286 42.2125
25.2114 44.0947
25.3943 44.304
25.5773 40.4126
25.7605 40.0354
25.9436 40.3345
26.1268 41.1954
26.31 39.6326
26.4933 40.1948
26.6767 41.6266
26.8601 40.0389
27.0437 38.4795
27.2272 37.9855
27.4109 37.794
27.5946 37.8705
27.7784 37.4674
27.9623 37.9347
28.1462 38.4018
28.3304 36.8515
28.5145 35.4396
28.6987 35.1734
28.8829 34.9959
29.0673 34.2661
29.2517 33.9532
29.4361 33.7542
29.6207 32.7013
29.8053 32.5071
29.99 32.1612
30.1748 32.0068
30.3597 31.9237
30.5447 31.7567
30.7297 31.8915
30.915 31.1982
31.1002 30.7502
31.2855 30.4865
31.4708 30.4631
31.6563 29.992
31.8418 29.7307
32.0275 29.6115
32.2132 29.0486
32.399 28.5752
32.5848 28.1742
32.7708 27.7879
32.9569 27.7234
33.143 27.5082
33.3293 27.1704
33.5158 26.734
33.7022 26.3746
33.8887 25.9819
34.0753 25.7146
34.262 25.2694
34.4488 24.9885
34.6357 24.6945
34.8227 24.3693
35.0098 24.2071
35.1969 23.8911
35.3842 23.7461
35.5716 23.4881
35.759 23.1622
35.9468 22.8429
36.1345 22.6559
36.3222 22.4348
36.5101 22.151
36.6981 21.8772
36.8861 21.5116
37.0743 21.2374
37.2626 20.9868
37.451 20.7318
37.6395 20.5911
37.8281 20.3113
38.0168 19.9938
38.2056 19.7675
38.3945 19.4504
38.5837 19.241
38.7728 18.9685
38.9621 18.7228
39.1514 18.5725
39.3409 18.3006
39.5304 18.0329
39.7201 17.8673
39.9099 17.6787
40.0999 17.3281
40.2899 17.1528
40.48 16.937
40.6703 16.7064
40.8607 16.5565
41.0512 16.3518
41.242 16.1021
41.4327 15.8828
41.6236 15.6629
41.8146 15.5291
42.0057 15.2194
42.1969 15.0118
42.3882 14.852
42.5797 14.6638
42.7713 14.5451
42.963 14.2503
43.1549 14.0717
43.3468 13.8666
43.5389 13.7118
43.7312 13.4918
43.9237 13.297
44.1162 13.0959
44.3088 12.9589
44.5016 12.7369
44.6945 12.5684
44.8875 12.4726
45.0806 12.2568
45.2739 12.0892
45.4673 11.9094
45.6609 11.7018
45.8546 11.5883
46.0484 11.4388
46.2424 11.2309
46.4365 11.0687
46.631 10.9126
46.8254 10.7533
47.0199 10.567
47.2146 10.4257
47.4095 10.2928
47.6044 10.0943
47.7996 9.96298
47.9948 9.85203
48.1902 9.694
48.3858 9.59362
48.5815 9.44133
48.7774 9.30182
48.9734 9.15897
49.1696 8.99845
49.3661 8.82784
49.5626 8.70954
49.7592 8.58231
49.956 8.49017
50.153 8.3478
50.3501 8.22407
50.5474 8.08843
50.7448 7.97057
50.9424 7.86085
51.1402 7.71247
51.3381 7.56355
51.5362 7.47323
51.7344 7.36743
51.9328 7.20153
52.1316 7.06209
52.3304 6.94785
52.5293 6.90336
52.7284 6.75231
52.9276 6.64809
53.1271 6.56252
53.3267 6.46167
53.5265 6.333
53.7264 6.19873
53.9266 6.09606
54.1269 5.95273
54.3274 5.89179
54.528 5.72794
54.7289 5.57233
54.9301 5.47042
55.1314 5.32229
55.3328 5.09286
55.5344 4.90948
55.7361 4.70326