Folder: NiFe_MOF_catalyst_paper/XRD (part 109)

File: Ni3Fe_FD0590.xy
TT I
1.27165 7.62109
1.45013 5.89931
1.62863 5.154
1.80712 4.94891
1.98562 4.49569
2.16411 4.7627
2.34263 5.57774
2.52115 6.82337
2.69965 8.1604
2.87818 9.30661
3.05672 11.367
3.23527 14.706
3.4138 18.5324
3.59237 23.1086
3.77094 25.608
3.9495 29.7323
4.12809 34.5799
4.30669 110.984
4.4853 55.3761
4.6639 56.062
4.84253 69.0441
5.02118 89.2304
5.19981 482.638
5.37848 201.574
5.55716 103.375
5.73586 93.812
5.91455 97.8443
6.09328 4383.75
6.27201 82.0544
6.45075 69.4713
6.62952 63.0702
6.8083 59.2822
6.98711 55.9856
7.16591 55.8507
7.34475 69.686
7.5236 54.9644
7.70247 56.941
7.88135 58.1328
8.06026 62.9912
8.23919 70.1231
8.41812 85.5088
8.59709 1254.24
8.77609 99.592
8.9551 89.7218
9.13412 83.5259
9.31318 85.1818
9.49226 85.6955
9.67134 96.2791
9.85047 102.094
10.0296 384.017
10.2088 363.202
10.388 107.046
10.5672 517.548
10.7465 87.1295
10.9257 78.305
11.105 72.1328
11.2844 69.3688
11.4637 65.2059
11.6431 63.945
11.8225 63.3339
12.002 65.2287
12.1814 156.882
12.3609 67.5868
12.5405 65.5885
12.72 68.6338
12.8996 72.1043
13.0792 81.5159
13.2589 254.308
13.4386 121.079
13.6183 257.316
13.7981 96.4992
13.9779 76.6025
14.1577 72.7014
14.3376 70.9396
14.5175 69.8786
14.6974 71.3107
14.8774 117.002
15.0574 144.171
15.2374 70.2403
15.4175 66.7505
15.5976 66.5589
15.7778 99.7481
15.958 149.746
16.1382 62.1449
16.3185 58.3259
16.4988 55.7356
16.6792 54.9679
16.8596 55.2066
17.04 56.7298
17.2205 68.1581
17.401 70.8673
17.5815 59.7405
17.7622 62.2911
17.9428 75.8728
18.1237 141.819
18.3044 92.3302
18.4852 76.4043
18.666 60.851
18.8469 58.4931
19.0278 57.5073
19.2088 60.0892
19.3898 75.8257
19.5709 54.4606
19.752 53.7109
19.9332 57.0922
20.1144 70.1837
20.2957 64.2556
20.477 53.5146
20.6586 50.0442
20.84 49.2276
21.0215 48.9907
21.203 51.3249
21.3846 49.1892
21.5662 49.4829
21.7479 53.5381
21.9297 64.968
22.1115 56.2865
22.2933 49.9411
22.4753 49.0985
22.6572 49.4105
22.8393 52.5851
23.0214 57.3795
23.2037 49.1943
23.3859 50.3343
23.5682 57.3144
23.7505 48.2825
23.9329 45.5354
24.1154 44.4005
24.2979 43.6794
24.4805 43.2067
24.6631 43.08
24.8458 42.6317
25.0286 43.3657
25.2114 44.9327
25.3943 44.8874
25.5773 41.1963
25.7605 40.6898
25.9436 41.2395
26.1268 41.8846
26.31 40.3757
26.4933 41.037
26.6767 42.4585
26.8601 40.6756
27.0437 39.1957
27.2272 38.7999
27.4109 38.6686
27.5946 38.6134
27.7784 38.1207
27.9623 38.572
28.1462 39.0654
28.3304 37.3568
28.5145 36.2436
28.6987 35.8251
28.8829 35.5985
29.0673 34.9147
29.2517 34.5164
29.4361 34.2985
29.6207 33.3316
29.8053 33.0836
29.99 32.8054
30.1748 32.6912
30.3597 32.5104
30.5447 32.3822
30.7297 32.406
30.915 31.8373
31.1002 31.4215
31.2855 31.0803
31.4708 31.0097
31.6563 30.5525
31.8418 30.3192
32.0275 30.2103
32.2132 29.5408
32.399 29.1584
32.5848 28.6278
32.7708 28.3841
32.9569 28.2469
33.143 27.9936
33.3293 27.5282
33.5158 27.1981
33.7022 26.7939
33.8887 26.4783
34.0753 26.1711
34.262 25.8498
34.4488 25.4226
34.6357 25.14
34.8227 24.8034
35.0098 24.6633
35.1969 24.3863
35.3842 24.1814
35.5716 23.946
35.759 23.5782
35.9468 23.2452
36.1345 22.9818
36.3222 22.7899
36.5101 22.5349
36.6981 22.2975
36.8861 21.9624
37.0743 21.6231
37.2626 21.3317
37.451 21.1109
37.6395 20.8965
37.8281 20.5976
38.0168 20.2948
38.2056 20.0419
38.3945 19.8447
38.5837 19.5599
38.7728 19.297
38.9621 19.0886
39.1514 18.8076
39.3409 18.5787
39.5304 18.3869
39.7201 18.104
39.9099 17.8981
40.0999 17.6774
40.2899 17.4586
40.48 17.1901
40.6703 17.0519
40.8607 16.8517
41.0512 16.5925
41.242 16.2815
41.4327 16.1547
41.6236 15.9416
41.8146 15.744
42.0057 15.532
42.1969 15.3015
42.3882 15.1596
42.5797 14.9016
42.7713 14.7518
42.963 14.5536
43.1549 14.2993
43.3468 14.0687
43.5389 13.9318
43.7312 13.697
43.9237 13.5066
44.1162 13.3247
44.3088 13.1041
44.5016 12.9723
44.6945 12.8147
44.8875 12.6173
45.0806 12.388
45.2739 12.2795
45.4673 12.1403
45.6609 11.9153
45.8546 11.7259
46.0484 11.5948
46.2424 11.4124
46.4365 11.2569
46.631 11.0475
46.8254 10.9339
47.0199 10.7804
47.2146 10.6166
47.4095 10.4365
47.6044 10.2774
47.7996 10.1484
47.9948 9.96457
48.1902 9.86158
48.3858 9.71629
48.5815 9.5819
48.7774 9.43018
48.9734 9.28954
49.1696 9.14542
49.3661 8.98418
49.5626 8.84506
49.7592 8.78295
49.956 8.60045
50.153 8.50056
50.3501 8.3361
50.5474 8.21877
50.7448 8.09186
50.9424 7.97642
51.1402 7.83976
51.3381 7.70834
51.5362 7.58652
51.7344 7.44494
51.9328 7.35752
52.1316 7.21044
52.3304 7.10485
52.5293 6.98719
52.7284 6.87603
52.9276 6.74847
53.1271 6.6711
53.3267 6.52391
53.5265 6.41129
53.7264 6.35046
53.9266 6.19634
54.1269 6.07861
54.3274 5.9586
54.528 5.82358
54.7289 5.70437
54.9301 5.48483
55.1314 5.40941
55.3328 5.19133
55.5344 4.98412
55.7361 4.86275

File: Ni3Fe_FD0592.xy
TT I
1.27165 7.35831
1.45013 5.79654
1.62863 5.13349
1.80712 4.56683
1.98562 4.92767
2.16411 4.7897
2.34263 5.46018
2.52115 6.79086
2.69965 7.94709
2.87818 9.04656
3.05672 11.0147
3.23527 15.2355
3.4138 19.2817
3.59237 23.4286
3.77094 25.7666
3.9495 29.3741
4.12809 34.2711
4.30669 109.24
4.4853 55.4151
4.6639 55.9499
4.84253 69.1082
5.02118 89.01
5.19981 481.455
5.37848 202.21
5.55716 103.873
5.73586 94.1966
5.91455 97.3088
6.09328 4361.53
6.27201 82.0875
6.45075 69.0389
6.62952 62.7418
6.8083 59.0599
6.98711 55.7473
7.16591 56.0714
7.34475 69.3257
7.5236 54.6203
7.70247 57.2508
7.88135 58.2566
8.06026 62.8196
8.23919 70.1586
8.41812 85.2184
8.59709 1265.47
8.77609 99.5987
8.9551 89.9878
9.13412 83.6351
9.31318 85.1757
9.49226 85.6691
9.67134 95.8254
9.85047 102.215
10.0296 383.112
10.2088 365.979
10.388 107.111
10.5672 516.122
10.7465 87.0259
10.9257 78.2586
11.105 72.123
11.2844 69.0956
11.4637 65.4065
11.6431 63.72
11.8225 62.8979
12.002 65.0696
12.1814 157.132
12.3609 67.5925
12.5405 64.9146
12.72 68.726
12.8996 71.9908
13.0792 81.5579
13.2589 254.408
13.4386 121.304
13.6183 255.286
13.7981 96.5534
13.9779 76.4249
14.1577 72.2197
14.3376 70.792
14.5175 69.6453
14.6974 71.3881
14.8774 116.609
15.0574 144.056
15.2374 70.2747
15.4175 66.9534
15.5976 66.7028
15.7778 99.7732
15.958 149.243
16.1382 62.0219
16.3185 58.3357
16.4988 55.6793
16.6792 54.8179
16.8596 55.1745
17.04 56.6507
17.2205 68.1012
17.401 70.9343
17.5815 59.7226
17.7622 61.968
17.9428 75.7092
18.1237 141.612
18.3044 92.1448
18.4852 76.6978
18.666 60.5013
18.8469 58.4012
19.0278 57.1595
19.2088 60.1131
19.3898 75.8392
19.5709 54.5742
19.752 53.95
19.9332 57.1165
20.1144 70.2465
20.2957 64.4461
20.477 53.3265
20.6586 49.9061
20.84 49.0835
21.0215 49.039
21.203 51.1169
21.3846 49.2332
21.5662 49.4726
21.7479 53.4917
21.9297 65.0051
22.1115 56.324
22.2933 49.936
22.4753 49.2426
22.6572 49.3611
22.8393 52.6353
23.0214 57.305
23.2037 49.1082
23.3859 50.4064
23.5682 57.2244
23.7505 48.2393
23.9329 45.4466
24.1154 44.4015
24.2979 43.6343
24.4805 43.168
24.6631 43.055
24.8458 42.6573
25.0286 43.2346
25.2114 45.186
25.3943 44.8536
25.5773 41.2581
25.7605 40.7155
25.9436 41.2388
26.1268 42.151
26.31 40.4102
26.4933 41.1487
26.6767 42.4011
26.8601 40.7248
27.0437 39.0483
27.2272 38.754
27.4109 38.5814
27.5946 38.5002
27.7784 38.2535
27.9623 38.6663
28.1462 38.9297
28.3304 37.3007
28.5145 36.1706
28.6987 35.9499
28.8829 35.5935
29.0673 34.9037
29.2517 34.554
29.4361 34.3081
29.6207 33.3177
29.8053 33.0297
29.99 32.7544
30.1748 32.5709
30.3597 32.5811
30.5447 32.3441
30.7297 32.4057
30.915 31.7462
31.1002 31.1798
31.2855 31.0759
31.4708 31.009
31.6563 30.5757
31.8418 30.3637
32.0275 30.0394
32.2132 29.5054
32.399 29.1799
32.5848 28.7909
32.7708 28.398
32.9569 28.1725
33.143 28.0243
33.3293 27.5583
33.5158 27.1968
33.7022 26.7676
33.8887 26.4692
34.0753 26.189
34.262 25.7874
34.4488 25.4924
34.6357 25.0827
34.8227 24.8
35.0098 24.6575
35.1969 24.3109
35.3842 24.12
35.5716 23.8895
35.759 23.5679
35.9468 23.2179
36.1345 23.0738
36.3222 22.7621
36.5101 22.5449
36.6981 22.2383
36.8861 21.961
37.0743 21.571
37.2626 21.4114
37.451 21.1396
37.6395 20.944
37.8281 20.5851
38.0168 20.3059
38.2056 20.0003
38.3945 19.7843
38.5837 19.5351
38.7728 19.3013
38.9621 19.0623
39.1514 18.7817
39.3409 18.5826
39.5304 18.2915
39.7201 18.2373
39.9099 17.9454
40.0999 17.6455
40.2899 17.4788
40.48 17.2515
40.6703 17.0307
40.8607 16.811
41.0512 16.6037
41.242 16.3721
41.4327 16.1471
41.6236 15.9204
41.8146 15.6723
42.0057 15.5039
42.1969 15.345
42.3882 15.0919
42.5797 14.899
42.7713 14.701
42.963 14.5211
43.1549 14.2979
43.3468 14.0495
43.5389 13.9171
43.7312 13.6831
43.9237 13.5183
44.1162 13.3365
44.3088 13.1601
44.5016 12.9549
44.6945 12.819
44.8875 12.6097
45.0806 12.3931
45.2739 12.2864
45.4673 12.1252
45.6609 11.8768
45.8546 11.7608
46.0484 11.6104
46.2424 11.4331
46.4365 11.2521
46.631 11.1024
46.8254 10.9401
47.0199 10.7773
47.2146 10.6283
47.4095 10.4378
47.6044 10.2636
47.7996 10.1215
47.9948 9.96328
48.1902 9.80571
48.3858 9.73152
48.5815 9.58877
48.7774 9.43084
48.9734 9.31171
49.1696 9.1375
49.3661 8.99588
49.5626 8.88579
49.7592 8.75613
49.956 8.61226
50.153 8.49204
50.3501 8.35255
50.5474 8.21425
50.7448 8.10507
50.9424 7.97191
51.1402 7.83107
51.3381 7.72823
51.5362 7.57552
51.7344 7.47181
51.9328 7.31353
52.1316 7.24354
52.3304 7.13446
52.5293 6.9974
52.7284 6.87095
52.9276 6.75765
53.1271 6.60493
53.3267 6.51424
53.5265 6.41449
53.7264 6.29887
53.9266 6.21372
54.1269 6.0989
54.3274 5.9533
54.528 5.82776
54.7289 5.65045
54.9301 5.49504
55.1314 5.37049
55.3328 5.17442
55.5344 4.96375
55.7361 4.84722

File: Ni3Fe_FD0593.xy
TT I
1.27165 7.26047
1.45013 6.45869
1.62863 5.30028
1.80712 5.21885
1.98562 4.68278
2.16411 4.57195
2.34263 5.19879
2.52115 6.68138
2.69965 7.42649
2.87818 8.84726
3.05672 11.1879
3.23527 15.5216
3.4138 18.8426
3.59237 22.8231
3.77094 25.6921
3.9495 29.5729
4.12809 34.3332
4.30669 107.954
4.4853 55.1173
4.6639 55.7791
4.84253 68.65
5.02118 89.0491
5.19981 481.249
5.37848 201.917
5.55716 103.466
5.73586 93.6861
5.91455 97.3496
6.09328 4369.91
6.27201 81.9133
6.45075 69.0319
6.62952 63.0
6.8083 59.5261
6.98711 56.0706
7.16591 56.0282
7.34475 68.6117
7.5236 54.6878
7.70247 57.1592
7.88135 57.9544
8.06026 63.0348
8.23919 70.2543
8.41812 85.3076
8.59709 1271.9
8.77609 99.7085
8.9551 89.9761
9.13412 83.4597
9.31318 84.9517
9.49226 85.6666
9.67134 95.9248
9.85047 102.52
10.0296 382.906
10.2088 362.57
10.388 107.432
10.5672 515.103
10.7465 87.1289
10.9257 78.6379
11.105 72.1534
11.2844 69.1624
11.4637 65.2749
11.6431 63.9983
11.8225 62.9921
12.002 65.257
12.1814 157.368
12.3609 67.6967
12.5405 65.11
12.72 68.8677
12.8996 72.2682
13.0792 81.619
13.2589 254.076
13.4386 121.756
13.6183 255.786
13.7981 96.5091
13.9779 76.7058
14.1577 72.5713
14.3376 71.1048
14.5175 69.5685
14.6974 71.3792
14.8774 116.548
15.0574 143.156
15.2374 70.2779
15.4175 66.9987
15.5976 66.6428
15.7778 100.027
15.958 149.771
16.1382 62.2197
16.3185 58.3459
16.4988 55.8513
16.6792 54.9656
16.8596 55.282
17.04 56.5068
17.2205 68.2069
17.401 70.9997
17.5815 59.7199
17.7622 61.9376
17.9428 75.7331
18.1237 141.143
18.3044 92.531
18.4852 76.5225
18.666 60.6992
18.8469 58.5859
19.0278 57.1836
19.2088 60.162
19.3898 75.9878
19.5709 54.4686
19.752 53.6746
19.9332 57.0006
20.1144 70.3219
20.2957 64.3955
20.477 53.5668
20.6586 50.0434
20.84 49.208
21.0215 48.9302
21.203 51.1142
21.3846 49.1735
21.5662 49.4718
21.7479 53.454
21.9297 64.9931
22.1115 56.2454
22.2933 50.1422
22.4753 49.0834
22.6572 49.4149
22.8393 52.7369
23.0214 57.2913
23.2037 49.2571
23.3859 50.3448
23.5682 57.3269
23.7505 48.2961
23.9329 45.4679
24.1154 44.3282
24.2979 43.6977
24.4805 43.1924
24.6631 43.0318
24.8458 42.5638
25.0286 43.2458
25.2114 45.0871
25.3943 44.83
25.5773 41.0806
25.7605 40.5886
25.9436 41.0903
26.1268 41.9799
26.31 40.33
26.4933 41.0957
26.6767 42.3873
26.8601 40.6124
27.0437 39.2093
27.2272 38.7239
27.4109 38.7443
27.5946 38.5623
27.7784 38.1102
27.9623 38.7764
28.1462 39.0047
28.3304 37.3377
28.5145 36.2196
28.6987 35.817
28.8829 35.5399
29.0673 34.9211
29.2517 34.5244
29.4361 34.3785
29.6207 33.2533
29.8053 33.0095
29.99 32.9199
30.1748 32.6331
30.3597 32.4826
30.5447 32.3494
30.7297 32.516
30.915 31.8418
31.1002 31.3662
31.2855 31.0673
31.4708 31.0365
31.6563 30.4728
31.8418 30.4016
32.0275 30.1853
32.2132 29.5724
32.399 29.0854
32.5848 28.6783
32.7708 28.2848
32.9569 28.2157
33.143 28.0299
33.3293 27.6105
33.5158 27.1936
33.7022 26.8463
33.8887 26.5016
34.0753 26.0716
34.262 25.8293
34.4488 25.5141
34.6357 25.1948
34.8227 24.8558
35.0098 24.6707
35.1969 24.3211
35.3842 24.1482
35.5716 23.8679
35.759 23.6172
35.9468 23.2852
36.1345 23.0488
36.3222 22.8493
36.5101 22.5741
36.6981 22.2356
36.8861 21.9987
37.0743 21.689
37.2626 21.4076
37.451 21.1185
37.6395 20.8942
37.8281 20.5846
38.0168 20.3574
38.2056 20.0569
38.3945 19.7583
38.5837 19.6044
38.7728 19.3728
38.9621 19.1189
39.1514 18.7725
39.3409 18.5702
39.5304 18.4248
39.7201 18.1643
39.9099 17.9367
40.0999 17.6763
40.2899 17.4703
40.48 17.2039
40.6703 17.0311
40.8607 16.8322
41.0512 16.5853
41.242 16.3149
41.4327 16.1201
41.6236 15.9446
41.8146 15.7074
42.0057 15.5071
42.1969 15.3464
42.3882 15.0945
42.5797 14.902
42.7713 14.6895
42.963 14.5073
43.1549 14.3151
43.3468 14.0711
43.5389 13.861
43.7312 13.7223
43.9237 13.5224
44.1162 13.3384
44.3088 13.2029
44.5016 13.013
44.6945 12.8154
44.8875 12.6209
45.0806 12.4388
45.2739 12.2452
45.4673 12.1317
45.6609 11.9332
45.8546 11.7628
46.0484 11.5618
46.2424 11.3928
46.4365 11.2672
46.631 11.0663
46.8254 10.9124
47.0199 10.7665
47.2146 10.5996
47.4095 10.4229
47.6044 10.3173
47.7996 10.1112
47.9948 9.95758
48.1902 9.86341
48.3858 9.72585
48.5815 9.59209
48.7774 9.4707
48.9734 9.288
49.1696 9.17667
49.3661 9.00531
49.5626 8.81422
49.7592 8.71681
49.956 8.65402
50.153 8.48131
50.3501 8.36015
50.5474 8.19859
50.7448 8.08074
50.9424 7.99282
51.1402 7.86074
51.3381 7.72612
51.5362 7.60415
51.7344 7.49106
51.9328 7.34418
52.1316 7.2031
52.3304 7.09994
52.5293 6.97285
52.7284 6.84697
52.9276 6.77695
53.1271 6.64361
53.3267 6.56417
53.5265 6.39362
53.7264 6.29109
53.9266 6.19561
54.1269 6.06075
54.3274 6.0044
54.528 5.86133
54.7289 5.65219
54.9301 5.49938
55.1314 5.39421
55.3328 5.17861
55.5344 4.98987
55.7361 4.85221

File: Ni3Fe_FD0594.xy
TT I
1.27165 7.57202
1.45013 6.29183
1.62863 5.31392
1.80712 5.2354
1.98562 4.92005
2.16411 4.66123
2.34263 5.1617
2.52115 6.22511
2.69965 7.2676
2.87818 8.83339
3.05672 11.2193
3.23527 14.9087
3.4138 18.8846
3.59237 23.0109
3.77094 25.9642
3.9495 29.9291
4.12809 34.1247
4.30669 107.922
4.4853 55.0098
4.6639 56.4744
4.84253 68.9049
5.02118 88.8059
5.19981 480.977
5.37848 202.885
5.55716 103.518
5.73586 93.6675
5.91455 97.5111
6.09328 4369.77
6.27201 81.6837
6.45075 69.4268
6.62952 63.0884
6.8083 59.3154
6.98711 55.9178
7.16591 55.9955
7.34475 68.9506
7.5236 54.512
7.70247 56.5922
7.88135 58.142
8.06026 63.2229
8.23919 70.216
8.41812 85.134
8.59709 1262.79
8.77609 99.6532
8.9551 89.7327
9.13412 83.5645
9.31318 85.1434
9.49226 85.7993
9.67134 95.7747
9.85047 102.464
10.0296 382.417
10.2088 364.026
10.388 106.979
10.5672 512.862
10.7465 87.278
10.9257 78.1235
11.105 72.0417
11.2844 69.4293
11.4637 65.1366
11.6431 64.0942
11.8225 62.9137
12.002 65.3745
12.1814 157.209
12.3609 67.5792
12.5405 65.2938
12.72 68.584
12.8996 72.0137
13.0792 81.9125
13.2589 253.433
13.4386 121.472
13.6183 256.187
13.7981 96.5899
13.9779 76.3807
14.1577 72.4808
14.3376 70.9162
14.5175 69.6805
14.6974 71.4909
14.8774 116.768
15.0574 143.35
15.2374 70.1163
15.4175 66.9601
15.5976 66.6731
15.7778 99.6945
15.958 149.83
16.1382 61.9791
16.3185 58.4287
16.4988 55.8792
16.6792 54.8509
16.8596 55.4797
17.04 56.5316
17.2205 68.0524
17.401 70.9372
17.5815 59.6526
17.7622 62.1687
17.9428 75.8666
18.1237 140.936
18.3044 92.193
18.4852 76.4822
18.666 60.5603
18.8469 58.4734
19.0278 57.2467
19.2088 60.0914
19.3898 76.1283
19.5709 54.5933
19.752 53.6054
19.9332 56.9989
20.1144 70.3346
20.2957 64.2634
20.477 53.3398
20.6586 50.0758
20.84 49.1031
21.0215 49.0598
21.203 51.0888
21.3846 49.1512
21.5662 49.5654
21.7479 53.4526
21.9297 65.0581
22.1115 56.3471
22.2933 49.9474
22.4753 49.0209
22.6572 49.402
22.8393 52.5803
23.0214 57.4308
23.2037 49.3246
23.3859 50.416
23.5682 57.3376
23.7505 48.3265
23.9329 45.5832
24.1154 44.2754
24.2979 43.7752
24.4805 43.1245
24.6631 43.0361
24.8458 42.5089
25.0286 43.2268
25.2114 44.8408
25.3943 44.8479
25.5773 41.158
25.7605 40.5804
25.9436 41.3226
26.1268 41.9796
26.31 40.3216
26.4933 40.9461
26.6767 42.4338
26.8601 40.6452
27.0437 39.1871
27.2272 38.6451
27.4109 38.6659
27.5946 38.5709
27.7784 38.2998
27.9623 38.6532
28.1462 39.0531
28.3304 37.3824
28.5145 36.2654
28.6987 35.8585
28.8829 35.6365
29.0673 34.8048
29.2517 34.5168
29.4361 34.4165
29.6207 33.237
29.8053 33.0924
29.99 32.7975
30.1748 32.6256
30.3597 32.489
30.5447 32.4375
30.7297 32.4119
30.915 31.8244
31.1002 31.3595
31.2855 31.0738
31.4708 31.0945
31.6563 30.5619
31.8418 30.4162
32.0275 30.0545
32.2132 29.6104
32.399 29.1798
32.5848 28.6625
32.7708 28.3174
32.9569 28.1739
33.143 27.9493
33.3293 27.4729
33.5158 27.2036
33.7022 26.7598
33.8887 26.5514
34.0753 26.1222
34.262 25.8519
34.4488 25.4646
34.6357 25.1
34.8227 24.8295
35.0098 24.6248
35.1969 24.3598
35.3842 24.1653
35.5716 23.9937
35.759 23.5609
35.9468 23.3567
36.1345 22.995
36.3222 22.8345
36.5101 22.5512
36.6981 22.2526
36.8861 22.0001
37.0743 21.6296
37.2626 21.3904
37.451 21.1448
37.6395 20.9485
37.8281 20.6113
38.0168 20.3037
38.2056 20.0835
38.3945 19.7644
38.5837 19.5585
38.7728 19.3452
38.9621 19.0414
39.1514 18.8379
39.3409 18.5562
39.5304 18.3701
39.7201 18.1642
39.9099 17.8843
40.0999 17.643
40.2899 17.4862
40.48 17.1982
40.6703 17.0369
40.8607 16.7814
41.0512 16.6091
41.242 16.288
41.4327 16.1351
41.6236 15.9646
41.8146 15.714
42.0057 15.4792
42.1969 15.2537
42.3882 15.137
42.5797 14.9147
42.7713 14.6835
42.963 14.4772
43.1549 14.2796
43.3468 14.0657
43.5389 13.9183
43.7312 13.6534
43.9237 13.4647
44.1162 13.3676
44.3088 13.1188
44.5016 12.938
44.6945 12.7717
44.8875 12.6053
45.0806 12.4254
45.2739 12.2591
45.4673 12.0829
45.6609 11.9116
45.8546 11.7601
46.0484 11.5854
46.2424 11.4195
46.4365 11.2424
46.631 11.0401
46.8254 10.9238
47.0199 10.741
47.2146 10.6467
47.4095 10.4715
47.6044 10.2655
47.7996 10.1176
47.9948 10.0114
48.1902 9.8519
48.3858 9.70937
48.5815 9.56982
48.7774 9.45113
48.9734 9.26877
49.1696 9.16738
49.3661 8.97995
49.5626 8.85477
49.7592 8.74864
49.956 8.62662
50.153 8.48836
50.3501 8.32293
50.5474 8.23931
50.7448 8.07316
50.9424 7.97842
51.1402 7.84622
51.3381 7.69848
51.5362 7.58095
51.7344 7.47698
51.9328 7.35416
52.1316 7.20937
52.3304 7.12598
52.5293 6.98548
52.7284 6.85444
52.9276 6.74837
53.1271 6.61563
53.3267 6.51976
53.5265 6.46412
53.7264 6.31028
53.9266 6.18996
54.1269 6.09058
54.3274 5.98368
54.528 5.85484
54.7289 5.67316
54.9301 5.51713
55.1314 5.38431
55.3328 5.18731
55.5344 4.97411
55.7361 4.82738

File: Ni3Fe_FD0596.xy
TT I
1.27165 7.90849
1.45013 6.1853
1.62863 5.63711
1.80712 4.69384
1.98562 4.32938
2.16411 4.44773
2.34263 5.48031
2.52115 6.47744
2.69965 7.26267
2.87818 8.72299
3.05672 11.0828
3.23527 14.9706
3.4138 18.5829
3.59237 23.2588
3.77094 25.8924
3.9495 29.5976
4.12809 34.0125
4.30669 105.463
4.4853 55.4614
4.6639 55.6259
4.84253 68.4246
5.02118 88.5641
5.19981 479.11
5.37848 203.392
5.55716 103.85
5.73586 94.2087
5.91455 97.2566
6.09328 4407.47
6.27201 81.6882
6.45075 69.4859
6.62952 62.9141
6.8083 59.446
6.98711 55.7935
7.16591 56.0113
7.34475 68.5966
7.5236 54.5538
7.70247 56.7004
7.88135 58.0031
8.06026 63.1033
8.23919 70.122
8.41812 85.0576
8.59709 1255.04
8.77609 99.9899
8.9551 89.9964
9.13412 83.3415
9.31318 85.3621
9.49226 85.4589
9.67134 95.6351
9.85047 101.918
10.0296 381.989
10.2088 363.749
10.388 107.173
10.5672 516.788
10.7465 87.1905
10.9257 78.2902
11.105 71.8144
11.2844 69.1342
11.4637 64.8693
11.6431 64.0325
11.8225 62.9627
12.002 65.0135
12.1814 157.448
12.3609 67.3738
12.5405 65.1647
12.72 68.5072
12.8996 71.948
13.0792 81.4656
13.2589 253.748
13.4386 122.077
13.6183 255.572
13.7981 96.5959
13.9779 76.3596
14.1577 72.5305
14.3376 70.7634
14.5175 69.4303
14.6974 71.253
14.8774 116.494
15.0574 143.084
15.2374 69.9345
15.4175 67.1509
15.5976 66.3944
15.7778 99.272
15.958 149.712
16.1382 61.8382
16.3185 58.326
16.4988 55.7144
16.6792 55.0761
16.8596 55.1654
17.04 56.671
17.2205 68.1768
17.401 71.0798
17.5815 59.7271
17.7622 61.96
17.9428 75.7459
18.1237 141.359
18.3044 92.0772
18.4852 76.7704
18.666 60.6077
18.8469 58.5343
19.0278 57.2363
19.2088 60.0727
19.3898 75.9008
19.5709 54.4863
19.752 53.6576
19.9332 57.0596
20.1144 70.2743
20.2957 64.2176
20.477 53.3345
20.6586 49.8359
20.84 49.1257
21.0215 48.8127
21.203 51.1951
21.3846 49.1495
21.5662 49.5774
21.7479 53.4694
21.9297 64.8924
22.1115 56.3288
22.2933 49.9975
22.4753 49.0667
22.6572 49.4495
22.8393 52.6577
23.0214 57.5231
23.2037 49.2108
23.3859 50.2481
23.5682 57.3521
23.7505 48.2509
23.9329 45.4063
24.1154 44.3109
24.2979 43.787
24.4805 43.1421
24.6631 42.9681
24.8458 42.5764
25.0286 43.3131
25.2114 44.9269
25.3943 44.773
25.5773 41.2049
25.7605 40.6906
25.9436 41.158
26.1268 41.8794
26.31 40.354
26.4933 41.0661
26.6767 42.4882
26.8601 40.7208
27.0437 39.1484
27.2272 38.7791
27.4109 38.5996
27.5946 38.6544
27.7784 38.1404
27.9623 38.8302
28.1462 39.0738
28.3304 37.3627
28.5145 36.1985
28.6987 35.8075
28.8829 35.535
29.0673 34.8169
29.2517 34.5092
29.4361 34.2953
29.6207 33.2402
29.8053 33.0683
29.99 32.8064
30.1748 32.6945
30.3597 32.5284
30.5447 32.4062
30.7297 32.3866
30.915 31.7839
31.1002 31.3304
31.2855 31.1425
31.4708 31.028
31.6563 30.5653
31.8418 30.3556
32.0275 30.0479
32.2132 29.5255
32.399 29.0187
32.5848 28.6767
32.7708 28.3069
32.9569 28.2551
33.143 27.9932
33.3293 27.525
33.5158 27.1766
33.7022 26.7641
33.8887 26.4866
34.0753 26.098
34.262 25.7638
34.4488 25.5415
34.6357 25.0766
34.8227 24.8006
35.0098 24.6578
35.1969 24.3177
35.3842 24.0732
35.5716 23.8059
35.759 23.5737
35.9468 23.2734
36.1345 22.995
36.3222 22.7908
36.5101 22.5315
36.6981 22.2209
36.8861 21.9587
37.0743 21.618
37.2626 21.4367
37.451 21.058
37.6395 20.9211
37.8281 20.6019
38.0168 20.3588
38.2056 20.1242
38.3945 19.8018
38.5837 19.5802
38.7728 19.2825
38.9621 19.0808
39.1514 18.8485
39.3409 18.5466
39.5304 18.354
39.7201 18.1614
39.9099 17.9234
40.0999 17.7222
40.2899 17.4101
40.48 17.2295
40.6703 17.0468
40.8607 16.7854
41.0512 16.5417
41.242 16.3506
41.4327 16.1282
41.6236 15.9568
41.8146 15.702
42.0057 15.567
42.1969 15.254
42.3882 15.0917
42.5797 14.8701
42.7713 14.6487
42.963 14.4812
43.1549 14.3243
43.3468 14.0861
43.5389 13.9328
43.7312 13.6618
43.9237 13.5375
44.1162 13.3117
44.3088 13.1253
44.5016 12.9385
44.6945 12.7581
44.8875 12.5808
45.0806 12.427
45.2739 12.2181
45.4673 12.1089
45.6609 11.9004
45.8546 11.7888
46.0484 11.6556
46.2424 11.4171
46.4365 11.2796
46.631 11.0866
46.8254 10.8874
47.0199 10.7908
47.2146 10.6118
47.4095 10.4439
47.6044 10.265
47.7996 10.0986
47.9948 9.97285
48.1902 9.86558
48.3858 9.73573
48.5815 9.57349
48.7774 9.42096
48.9734 9.31517
49.1696 9.15163
49.3661 8.98873
49.5626 8.82761
49.7592 8.73962
49.956 8.61229
50.153 8.46394
50.3501 8.34389
50.5474 8.22429
50.7448 8.10185
50.9424 7.9739
51.1402 7.8807
51.3381 7.7121
51.5362 7.56145
51.7344 7.47449
51.9328 7.33929
52.1316 7.21127
52.3304 7.11379
52.5293 6.98929
52.7284 6.89025
52.9276 6.76454
53.1271 6.65165
53.3267 6.55476
53.5265 6.44728
53.7264 6.29197
53.9266 6.18749
54.1269 6.1363
54.3274 5.9755
54.528 5.84572
54.7289 5.64514
54.9301 5.51359
55.1314 5.36433
55.3328 5.18
55.5344 4.97202
55.7361 4.78594