Folder: NiFe_MOF_catalyst_paper/XRD (part 16)

File: Ni3Fe_FD0080.xy
TT I
1.27165 10.7015
1.45013 7.62886
1.62863 7.34692
1.80712 6.57294
1.98562 6.56289
2.16411 5.44509
2.34263 5.24834
2.52115 4.42109
2.69965 5.25024
2.87818 7.87447
3.05672 11.2206
3.23527 15.4406
3.4138 18.5469
3.59237 21.2775
3.77094 24.2747
3.9495 27.7365
4.12809 31.9166
4.30669 37.417
4.4853 43.7048
4.6639 53.0611
4.84253 65.8531
5.02118 99.2413
5.19981 756.705
5.37848 1348.29
5.55716 120.864
5.73586 101.924
5.91455 122.34
6.09328 1416.76
6.27201 111.385
6.45075 66.8314
6.62952 58.1103
6.8083 53.8276
6.98711 51.5052
7.16591 50.826
7.34475 50.254
7.5236 73.0715
7.70247 52.7356
7.88135 53.8274
8.06026 58.1091
8.23919 65.4227
8.41812 84.4919
8.59709 552.98
8.77609 161.356
8.9551 84.6435
9.13412 81.2129
9.31318 145.102
9.49226 81.0254
9.67134 85.2429
9.85047 96.5582
10.0296 559.068
10.2088 1459.07
10.388 106.141
10.5672 174.57
10.7465 114.497
10.9257 73.1531
11.105 66.8849
11.2844 62.99
11.4637 60.4744
11.6431 59.2309
11.8225 58.7913
12.002 89.429
12.1814 85.1308
12.3609 93.7511
12.5405 60.4683
12.72 61.6346
12.8996 65.6941
13.0792 78.6822
13.2589 151.538
13.4386 316.71
13.6183 134.233
13.7981 238.713
13.9779 73.4927
14.1577 89.5889
14.3376 66.2657
14.5175 64.9695
14.6974 66.2143
14.8774 110.386
15.0574 196.197
15.2374 67.4809
15.4175 62.6413
15.5976 62.366
15.7778 100.408
15.958 150.075
16.1382 65.6407
16.3185 54.8863
16.4988 52.531
16.6792 51.2115
16.8596 51.5718
17.04 53.6227
17.2205 58.8714
17.401 77.1489
17.5815 55.9036
17.7622 59.4028
17.9428 81.3636
18.1237 79.2646
18.3044 88.7584
18.4852 101.764
18.666 59.0882
18.8469 55.2608
19.0278 53.8665
19.2088 58.9082
19.3898 60.594
19.5709 58.1267
19.752 50.5627
19.9332 55.2871
20.1144 56.9254
20.2957 57.3881
20.477 61.928
20.6586 47.4038
20.84 47.6429
21.0215 46.5486
21.203 46.0063
21.3846 48.9688
21.5662 46.318
21.7479 50.5075
21.9297 52.2289
22.1115 55.7084
22.2933 52.7513
22.4753 46.3173
22.6572 46.5133
22.8393 48.4429
23.0214 49.6826
23.2037 49.0248
23.3859 49.4415
23.5682 47.0286
23.7505 55.4391
23.9329 43.4511
24.1154 42.1815
24.2979 41.3673
24.4805 40.7115
24.6631 40.7946
24.8458 40.4049
25.0286 40.5243
25.2114 40.8564
25.3943 41.3153
25.5773 40.5842
25.7605 38.6804
25.9436 38.7734
26.1268 38.4883
26.31 39.5778
26.4933 38.4379
26.6767 38.5675
26.8601 39.6703
27.0437 38.0003
27.2272 36.9747
27.4109 36.375
27.5946 36.3977
27.7784 36.6341
27.9623 35.9873
28.1462 36.4808
28.3304 36.0378
28.5145 34.5838
28.6987 33.9479
28.8829 33.4475
29.0673 33.4319
29.2517 32.5192
29.4361 31.9945
29.6207 32.1129
29.8053 31.34
29.99 30.9522
30.1748 30.7261
30.3597 30.8208
30.5447 30.4705
30.7297 30.145
30.915 30.5383
31.1002 29.8318
31.2855 29.3648
31.4708 29.0089
31.6563 29.1918
31.8418 28.6159
32.0275 28.331
32.2132 28.1483
32.399 27.6286
32.5848 27.0167
32.7708 26.7865
32.9569 26.6064
33.143 26.2558
33.3293 26.0449
33.5158 25.9032
33.7022 25.2202
33.8887 24.9375
34.0753 24.7125
34.262 24.2374
34.4488 24.07
34.6357 23.7972
34.8227 23.3667
35.0098 23.1995
35.1969 22.9549
35.3842 22.789
35.5716 22.483
35.759 22.3475
35.9468 21.9175
36.1345 21.7199
36.3222 21.5026
36.5101 21.2933
36.6981 20.9999
36.8861 20.6718
37.0743 20.4045
37.2626 20.1479
37.451 19.916
37.6395 19.7858
37.8281 19.4338
38.0168 19.1422
38.2056 18.8518
38.3945 18.6951
38.5837 18.4593
38.7728 18.2807
38.9621 18.0419
39.1514 17.7395
39.3409 17.508
39.5304 17.3045
39.7201 17.069
39.9099 16.9761
40.0999 16.7297
40.2899 16.4987
40.48 16.3402
40.6703 16.1351
40.8607 15.9495
41.0512 15.683
41.242 15.443
41.4327 15.2722
41.6236 15.0462
41.8146 14.8646
42.0057 14.7231
42.1969 14.4701
42.3882 14.299
42.5797 14.1095
42.7713 13.9123
42.963 13.6912
43.1549 13.5037
43.3468 13.3289
43.5389 13.1525
43.7312 12.9529
43.9237 12.8023
44.1162 12.6346
44.3088 12.4437
44.5016 12.2479
44.6945 12.0854
44.8875 11.9345
45.0806 11.7681
45.2739 11.6108
45.4673 11.4583
45.6609 11.2479
45.8546 11.1227
46.0484 11.027
46.2424 10.8049
46.4365 10.6827
46.631 10.4917
46.8254 10.3671
47.0199 10.1938
47.2146 10.0213
47.4095 9.88533
47.6044 9.69343
47.7996 9.59574
47.9948 9.45768
48.1902 9.33509
48.3858 9.22181
48.5815 9.06682
48.7774 8.9849
48.9734 8.8169
49.1696 8.67755
49.3661 8.48875
49.5626 8.42783
49.7592 8.30884
49.956 8.19626
50.153 8.03507
50.3501 7.91618
50.5474 7.81795
50.7448 7.68758
50.9424 7.59434
51.1402 7.49061
51.3381 7.36733
51.5362 7.24212
51.7344 7.08197
51.9328 6.96506
52.1316 6.86968
52.3304 6.75692
52.5293 6.61396
52.7284 6.52542
52.9276 6.42371
53.1271 6.34247
53.3267 6.18841
53.5265 6.12064
53.7264 5.97281
53.9266 5.87199
54.1269 5.72884
54.3274 5.63259
54.528 5.46643
54.7289 5.29061
54.9301 5.04792
55.1314 4.90584
55.3328 4.72182
55.5344 4.58721
55.7361 4.51001

File: Ni3Fe_FD0081.xy
TT I
1.27165 10.1429
1.45013 7.71494
1.62863 7.36475
1.80712 6.66596
1.98562 6.61429
2.16411 6.06529
2.34263 5.01469
2.52115 4.22387
2.69965 5.1782
2.87818 7.78522
3.05672 10.9119
3.23527 14.9334
3.4138 18.3744
3.59237 21.154
3.77094 24.7557
3.9495 28.2641
4.12809 32.1032
4.30669 37.3749
4.4853 43.8086
4.6639 53.4093
4.84253 65.9614
5.02118 99.0319
5.19981 753.333
5.37848 1295.01
5.55716 120.854
5.73586 102.25
5.91455 122.272
6.09328 1474.09
6.27201 110.627
6.45075 67.3151
6.62952 58.6012
6.8083 54.1394
6.98711 51.753
7.16591 50.4665
7.34475 50.3913
7.5236 70.9788
7.70247 52.8657
7.88135 54.2824
8.06026 58.6772
8.23919 65.8625
8.41812 84.4472
8.59709 576.571
8.77609 159.843
8.9551 85.49
9.13412 81.4561
9.31318 139.155
9.49226 81.4124
9.67134 85.7856
9.85047 96.8056
10.0296 570.243
10.2088 1468.88
10.388 106.777
10.5672 181.106
10.7465 112.819
10.9257 73.688
11.105 67.5142
11.2844 63.862
11.4637 60.8579
11.6431 60.0053
11.8225 58.9606
12.002 87.6653
12.1814 87.3531
12.3609 93.9161
12.5405 60.5155
12.72 62.1689
12.8996 66.3845
13.0792 78.8825
13.2589 155.524
13.4386 317.408
13.6183 137.7
13.7981 237.653
13.9779 73.9791
14.1577 88.2657
14.3376 66.6762
14.5175 65.505
14.6974 67.1767
14.8774 112.765
15.0574 199.273
15.2374 67.9815
15.4175 63.4002
15.5976 63.2546
15.7778 102.44
15.958 152.633
16.1382 65.7143
16.3185 55.4621
16.4988 52.7452
16.6792 51.8082
16.8596 52.1159
17.04 53.7794
17.2205 59.6272
17.401 78.2066
17.5815 56.6019
17.7622 59.9313
17.9428 82.7471
18.1237 81.1919
18.3044 89.5489
18.4852 102.573
18.666 59.4937
18.8469 55.7059
19.0278 54.4605
19.2088 59.5414
19.3898 61.2647
19.5709 58.7122
19.752 51.0231
19.9332 55.8425
20.1144 58.0337
20.2957 58.0816
20.477 62.5756
20.6586 47.7526
20.84 48.209
21.0215 46.9838
21.203 46.5975
21.3846 49.5032
21.5662 46.7961
21.7479 51.3807
21.9297 53.1897
22.1115 56.1217
22.2933 53.3584
22.4753 46.6662
22.6572 47.0437
22.8393 49.1255
23.0214 50.4364
23.2037 49.5173
23.3859 50.1412
23.5682 47.6684
23.7505 56.191
23.9329 43.9951
24.1154 42.7194
24.2979 41.7853
24.4805 41.118
24.6631 41.2524
24.8458 40.7013
25.0286 40.9449
25.2114 41.3308
25.3943 41.7687
25.5773 41.1505
25.7605 39.0679
25.9436 39.1227
26.1268 38.9472
26.31 39.922
26.4933 38.8858
26.6767 39.0571
26.8601 40.1456
27.0437 38.3639
27.2272 37.3347
27.4109 36.8315
27.5946 36.7056
27.7784 37.1319
27.9623 36.5211
28.1462 36.9286
28.3304 36.4841
28.5145 35.0181
28.6987 34.4743
28.8829 33.7539
29.0673 33.7814
29.2517 32.7992
29.4361 32.3764
29.6207 32.2485
29.8053 31.5277
29.99 31.3391
30.1748 31.0187
30.3597 31.0637
30.5447 30.8716
30.7297 30.5195
30.915 30.8175
31.1002 30.2147
31.2855 29.5432
31.4708 29.4012
31.6563 29.472
31.8418 28.8478
32.0275 28.6494
32.2132 28.4417
32.399 27.9005
32.5848 27.3467
32.7708 27.0502
32.9569 26.8666
33.143 26.523
33.3293 26.4198
33.5158 26.1451
33.7022 25.4921
33.8887 25.2282
34.0753 25.0384
34.262 24.6174
34.4488 24.2484
34.6357 23.9831
34.8227 23.6139
35.0098 23.4927
35.1969 23.2039
35.3842 22.985
35.5716 22.8124
35.759 22.6136
35.9468 22.1639
36.1345 21.904
36.3222 21.7538
36.5101 21.5198
36.6981 21.2662
36.8861 20.9939
37.0743 20.655
37.2626 20.3945
37.451 20.1523
37.6395 19.9633
37.8281 19.6803
38.0168 19.351
38.2056 19.1463
38.3945 18.9272
38.5837 18.6651
38.7728 18.4675
38.9621 18.2283
39.1514 17.9919
39.3409 17.7174
39.5304 17.5905
39.7201 17.3309
39.9099 17.1498
40.0999 16.915
40.2899 16.7118
40.48 16.4311
40.6703 16.1909
40.8607 16.1008
41.0512 15.8933
41.242 15.6074
41.4327 15.4218
41.6236 15.217
41.8146 15.0585
42.0057 14.8473
42.1969 14.6047
42.3882 14.4408
42.5797 14.2544
42.7713 14.0824
42.963 13.8257
43.1549 13.7094
43.3468 13.4802
43.5389 13.3105
43.7312 13.0974
43.9237 12.9005
44.1162 12.7829
44.3088 12.5931
44.5016 12.3952
44.6945 12.2515
44.8875 12.0768
45.0806 11.9126
45.2739 11.6962
45.4673 11.5776
45.6609 11.4048
45.8546 11.3001
46.0484 11.1054
46.2424 10.9405
46.4365 10.7831
46.631 10.6363
46.8254 10.4495
47.0199 10.2932
47.2146 10.1714
47.4095 10.0007
47.6044 9.87707
47.7996 9.73662
47.9948 9.57218
48.1902 9.45523
48.3858 9.273
48.5815 9.15895
48.7774 9.02393
48.9734 8.89593
49.1696 8.78011
49.3661 8.63536
49.5626 8.47395
49.7592 8.39026
49.956 8.31363
50.153 8.17553
50.3501 8.03634
50.5474 7.93844
50.7448 7.78932
50.9424 7.67436
51.1402 7.51377
51.3381 7.44654
51.5362 7.31484
51.7344 7.14266
51.9328 7.05573
52.1316 6.93608
52.3304 6.79979
52.5293 6.72438
52.7284 6.56098
52.9276 6.5087
53.1271 6.37357
53.3267 6.26648
53.5265 6.18156
53.7264 6.06295
53.9266 5.95637
54.1269 5.82185
54.3274 5.69314
54.528 5.51711
54.7289 5.34243
54.9301 5.11968
55.1314 5.0231
55.3328 4.7773
55.5344 4.62905
55.7361 4.53552

File: Ni3Fe_FD0082.xy
TT I
1.27165 10.4006
1.45013 7.10026
1.62863 6.78804
1.80712 6.3585
1.98562 6.84645
2.16411 5.75017
2.34263 5.16805
2.52115 4.50705
2.69965 5.54356
2.87818 7.8376
3.05672 11.4945
3.23527 15.1477
3.4138 18.5375
3.59237 21.3176
3.77094 24.5547
3.9495 28.2665
4.12809 32.4175
4.30669 37.1236
4.4853 44.1766
4.6639 53.1654
4.84253 66.3857
5.02118 98.7529
5.19981 762.773
5.37848 1222.76
5.55716 120.233
5.73586 101.776
5.91455 121.926
6.09328 1531.04
6.27201 109.035
6.45075 67.9509
6.62952 58.8343
6.8083 54.4116
6.98711 51.9546
7.16591 51.0055
7.34475 50.7716
7.5236 69.9605
7.70247 53.4579
7.88135 54.3532
8.06026 58.9
8.23919 66.4691
8.41812 85.3094
8.59709 593.444
8.77609 156.347
8.9551 85.4602
9.13412 81.4954
9.31318 132.765
9.49226 82.0321
9.67134 86.4329
9.85047 97.6916
10.0296 582.293
10.2088 1453.88
10.388 107.103
10.5672 187.461
10.7465 110.461
10.9257 74.0068
11.105 67.9933
11.2844 64.1645
11.4637 61.4284
11.6431 60.2287
11.8225 59.3697
12.002 85.3879
12.1814 88.7165
12.3609 93.1194
12.5405 60.9179
12.72 62.5274
12.8996 66.8783
13.0792 79.2961
13.2589 158.674
13.4386 312.919
13.6183 140.504
13.7981 230.306
13.9779 74.3506
14.1577 87.6338
14.3376 67.4339
14.5175 65.8546
14.6974 67.5589
14.8774 114.061
15.0574 201.408
15.2374 68.2151
15.4175 63.9513
15.5976 63.5792
15.7778 103.466
15.958 155.854
16.1382 65.229
16.3185 55.5248
16.4988 53.199
16.6792 52.2745
16.8596 52.4156
17.04 54.3191
17.2205 60.2324
17.401 78.6079
17.5815 56.9309
17.7622 60.3236
17.9428 83.345
18.1237 82.746
18.3044 88.9802
18.4852 102.911
18.666 59.6914
18.8469 56.0635
19.0278 54.9081
19.2088 60.2373
19.3898 61.6101
19.5709 58.8262
19.752 51.5793
19.9332 56.2388
20.1144 58.6005
20.2957 58.2705
20.477 62.7157
20.6586 48.1733
20.84 48.2321
21.0215 47.2931
21.203 46.8135
21.3846 49.8559
21.5662 47.2041
21.7479 51.8991
21.9297 53.9093
22.1115 56.2889
22.2933 53.363
22.4753 46.9487
22.6572 47.2514
22.8393 49.3813
23.0214 50.9729
23.2037 49.6739
23.3859 50.3842
23.5682 48.1978
23.7505 56.133
23.9329 44.2537
24.1154 42.8579
24.2979 42.0905
24.4805 41.3887
24.6631 41.5943
24.8458 41.0513
25.0286 41.3346
25.2114 41.7502
25.3943 42.1074
25.5773 41.261
25.7605 39.3733
25.9436 39.4582
26.1268 39.2605
26.31 40.1553
26.4933 39.0522
26.6767 39.2774
26.8601 40.332
27.0437 38.5699
27.2272 37.5608
27.4109 37.1175
27.5946 36.9488
27.7784 37.3307
27.9623 36.6476
28.1462 37.1728
28.3304 36.7414
28.5145 35.2047
28.6987 34.5614
28.8829 34.0156
29.0673 33.9522
29.2517 33.1091
29.4361 32.5927
29.6207 32.537
29.8053 31.784
29.99 31.4841
30.1748 31.2885
30.3597 31.3926
30.5447 30.978
30.7297 30.6993
30.915 30.9317
31.1002 30.4286
31.2855 29.814
31.4708 29.6511
31.6563 29.6504
31.8418 29.1051
32.0275 28.8154
32.2132 28.6659
32.399 28.0709
32.5848 27.5543
32.7708 27.3009
32.9569 27.092
33.143 26.7386
33.3293 26.4954
33.5158 26.2937
33.7022 25.7745
33.8887 25.4404
34.0753 25.1865
34.262 24.7528
34.4488 24.4371
34.6357 24.1077
34.8227 23.8084
35.0098 23.6497
35.1969 23.422
35.3842 23.1001
35.5716 22.9115
35.759 22.778
35.9468 22.3163
36.1345 22.1317
36.3222 21.9307
36.5101 21.6473
36.6981 21.372
36.8861 21.0985
37.0743 20.745
37.2626 20.5505
37.451 20.2735
37.6395 20.0991
37.8281 19.8385
38.0168 19.5358
38.2056 19.2826
38.3945 18.9196
38.5837 18.7555
38.7728 18.5665
38.9621 18.3451
39.1514 17.9984
39.3409 17.868
39.5304 17.6587
39.7201 17.4701
39.9099 17.2258
40.0999 17.0135
40.2899 16.7647
40.48 16.5577
40.6703 16.3206
40.8607 16.204
41.0512 15.9842
41.242 15.7527
41.4327 15.5097
41.6236 15.2829
41.8146 15.0976
42.0057 14.9063
42.1969 14.7479
42.3882 14.5345
42.5797 14.3542
42.7713 14.1676
42.963 13.9419
43.1549 13.7687
43.3468 13.5667
43.5389 13.3821
43.7312 13.185
43.9237 13.0054
44.1162 12.849
44.3088 12.6679
44.5016 12.4827
44.6945 12.3328
44.8875 12.1421
45.0806 11.964
45.2739 11.8127
45.4673 11.6613
45.6609 11.4546
45.8546 11.3771
46.0484 11.1917
46.2424 10.9969
46.4365 10.8597
46.631 10.6687
46.8254 10.5098
47.0199 10.3703
47.2146 10.2445
47.4095 10.0644
47.6044 9.92736
47.7996 9.78221
47.9948 9.63032
48.1902 9.5008
48.3858 9.3494
48.5815 9.20186
48.7774 9.05097
48.9734 8.96686
49.1696 8.83196
49.3661 8.68555
49.5626 8.54217
49.7592 8.45565
49.956 8.3468
50.153 8.2174
50.3501 8.07396
50.5474 7.93338
50.7448 7.87075
50.9424 7.71578
51.1402 7.5753
51.3381 7.47351
51.5362 7.34605
51.7344 7.22587
51.9328 7.0555
52.1316 6.95071
52.3304 6.87378
52.5293 6.76896
52.7284 6.61595
52.9276 6.51
53.1271 6.41194
53.3267 6.28607
53.5265 6.18549
53.7264 6.09921
53.9266 5.98143
54.1269 5.8189
54.3274 5.69133
54.528 5.54615
54.7289 5.41743
54.9301 5.22989
55.1314 5.03213
55.3328 4.76565
55.5344 4.68035
55.7361 4.59012

File: Ni3Fe_FD0083.xy
TT I
1.27165 10.2569
1.45013 7.60628
1.62863 7.1715
1.80712 6.30971
1.98562 6.1363
2.16411 5.79954
2.34263 5.29488
2.52115 4.85152
2.69965 5.36548
2.87818 7.50423
3.05672 11.4695
3.23527 15.026
3.4138 18.8248
3.59237 21.415
3.77094 24.5256
3.9495 28.3146
4.12809 31.8689
4.30669 37.1453
4.4853 44.3565
4.6639 53.1608
4.84253 66.282
5.02118 98.4178
5.19981 758.001
5.37848 1170.71
5.55716 119.982
5.73586 102.037
5.91455 121.285
6.09328 1581.35
6.27201 108.709
6.45075 67.2618
6.62952 59.0312
6.8083 54.4415
6.98711 52.1722
7.16591 51.4007
7.34475 50.8478
7.5236 68.2654
7.70247 53.2368
7.88135 54.8163
8.06026 59.1462
8.23919 66.3609
8.41812 85.141
8.59709 609.966
8.77609 155.227
8.9551 85.4675
9.13412 81.6976
9.31318 127.984
9.49226 82.4315
9.67134 86.578
9.85047 97.8975
10.0296 589.726
10.2088 1444.48
10.388 107.014
10.5672 192.535
10.7465 108.79
10.9257 74.3498
11.105 68.0211
11.2844 64.1691
11.4637 61.5175
11.6431 60.2169
11.8225 59.5332
12.002 83.5096
12.1814 90.3564
12.3609 92.6882
12.5405 61.2861
12.72 62.8938
12.8996 67.2569
13.0792 79.1014
13.2589 161.76
13.4386 310.972
13.6183 143.18
13.7981 228.889
13.9779 74.7157
14.1577 86.3557
14.3376 67.342
14.5175 66.2212
14.6974 67.6809
14.8774 115.39
15.0574 202.913
15.2374 68.4131
15.4175 64.055
15.5976 63.76
15.7778 105.051
15.958 157.463
16.1382 64.8352
16.3185 55.8137
16.4988 53.2842
16.6792 52.3054
16.8596 52.5278
17.04 54.3639
17.2205 60.7009
17.401 79.5277
17.5815 57.135
17.7622 60.4548
17.9428 84.2304
18.1237 84.3158
18.3044 89.9043
18.4852 103.482
18.666 59.9976
18.8469 56.3761
19.0278 54.951
19.2088 60.5162
19.3898 61.786
19.5709 58.8671
19.752 51.6655
19.9332 56.5681
20.1144 59.07
20.2957 58.6033
20.477 62.8571
20.6586 48.4874
20.84 48.265
21.0215 47.4958
21.203 47.1063
21.3846 49.8981
21.5662 47.3807
21.7479 52.1736
21.9297 54.2733
22.1115 56.3749
22.2933 53.5943
22.4753 47.3069
22.6572 47.5595
22.8393 49.7691
23.0214 51.3326
23.2037 49.8692
23.3859 50.891
23.5682 48.4219
23.7505 56.2411
23.9329 44.4474
24.1154 43.1115
24.2979 42.3979
24.4805 41.6819
24.6631 41.956
24.8458 41.2805
25.0286 41.3813
25.2114 41.9708
25.3943 42.3899
25.5773 41.4706
25.7605 39.516
25.9436 39.5328
26.1268 39.4657
26.31 40.2978
26.4933 39.3503
26.6767 39.5593
26.8601 40.495
27.0437 38.719
27.2272 37.7896
27.4109 37.2597
27.5946 37.2528
27.7784 37.5184
27.9623 36.8461
28.1462 37.4548
28.3304 37.0291
28.5145 35.2823
28.6987 34.7574
28.8829 34.2073
29.0673 34.1369
29.2517 33.2812
29.4361 32.8624
29.6207 32.7287
29.8053 31.9444
29.99 31.5887
30.1748 31.3752
30.3597 31.4253
30.5447 31.2167
30.7297 30.9323
30.915 31.086
31.1002 30.5035
31.2855 29.9369
31.4708 29.8131
31.6563 29.9247
31.8418 29.2628
32.0275 28.9855
32.2132 28.774
32.399 28.1701
32.5848 27.807
32.7708 27.3539
32.9569 27.1986
33.143 26.8448
33.3293 26.5995
33.5158 26.5025
33.7022 25.7989
33.8887 25.4721
34.0753 25.3584
34.262 24.8534
34.4488 24.5913
34.6357 24.2371
34.8227 23.9629
35.0098 23.6901
35.1969 23.5358
35.3842 23.2613
35.5716 23.0577
35.759 22.7967
35.9468 22.4437
36.1345 22.2192
36.3222 22.0169
36.5101 21.6596
36.6981 21.4591
36.8861 21.2412
37.0743 20.9156
37.2626 20.6748
37.451 20.4152
37.6395 20.1723
37.8281 19.8949
38.0168 19.6308
38.2056 19.373
38.3945 19.0988
38.5837 18.9158
38.7728 18.6777
38.9621 18.4399
39.1514 18.2548
39.3409 17.9204
39.5304 17.6627
39.7201 17.5253
39.9099 17.3832
40.0999 17.18
40.2899 16.8198
40.48 16.6214
40.6703 16.4529
40.8607 16.2938
41.0512 16.091
41.242 15.7946
41.4327 15.628
41.6236 15.393
41.8146 15.2047
42.0057 15.0277
42.1969 14.7776
42.3882 14.62
42.5797 14.4233
42.7713 14.2334
42.963 14.0235
43.1549 13.8732
43.3468 13.6722
43.5389 13.4566
43.7312 13.2905
43.9237 13.0799
44.1162 12.934
44.3088 12.7052
44.5016 12.5602
44.6945 12.3782
44.8875 12.2277
45.0806 12.0185
45.2739 11.8513
45.4673 11.7045
45.6609 11.5369
45.8546 11.4115
46.0484 11.1898
46.2424 11.0581
46.4365 10.9093
46.631 10.7316
46.8254 10.5825
47.0199 10.3965
47.2146 10.2868
47.4095 10.1175
47.6044 9.93313
47.7996 9.85228
47.9948 9.65206
48.1902 9.54957
48.3858 9.43142
48.5815 9.27675
48.7774 9.15883
48.9734 9.02561
49.1696 8.85911
49.3661 8.71896
49.5626 8.5832
49.7592 8.5095
49.956 8.36868
50.153 8.25341
50.3501 8.09853
50.5474 7.96434
50.7448 7.85985
50.9424 7.77073
51.1402 7.63716
51.3381 7.51329
51.5362 7.37241
51.7344 7.25203
51.9328 7.13748
52.1316 7.03113
52.3304 6.922
52.5293 6.80903
52.7284 6.67274
52.9276 6.5801
53.1271 6.47562
53.3267 6.32235
53.5265 6.24523
53.7264 6.12735
53.9266 5.95567
54.1269 5.88976
54.3274 5.75492
54.528 5.55746
54.7289 5.39725
54.9301 5.21083
55.1314 5.08031
55.3328 4.89566
55.5344 4.7083
55.7361 4.62598

File: Ni3Fe_FD0084.xy
TT I
1.27165 9.82996
1.45013 7.6853
1.62863 6.93903
1.80712 6.0416
1.98562 6.38041
2.16411 5.58535
2.34263 5.01725
2.52115 3.9583
2.69965 5.10602
2.87818 7.02518
3.05672 11.1861
3.23527 15.3486
3.4138 18.3016
3.59237 21.3523
3.77094 24.6146
3.9495 28.1201
4.12809 31.7496
4.30669 37.3448
4.4853 43.9286
4.6639 53.1562
4.84253 66.5396
5.02118 98.5188
5.19981 757.815
5.37848 1122.95
5.55716 119.151
5.73586 101.882
5.91455 120.864
6.09328 1627.35
6.27201 107.041
6.45075 67.356
6.62952 59.4172
6.8083 54.7489
6.98711 52.279
7.16591 51.1795
7.34475 51.0366
7.5236 67.9011
7.70247 53.4607
7.88135 54.8005
8.06026 59.3244
8.23919 66.5861
8.41812 85.0534
8.59709 624.091
8.77609 151.958
8.9551 85.7367
9.13412 81.4263
9.31318 123.232
9.49226 82.2116
9.67134 86.9563
9.85047 98.2329
10.0296 596.38
10.2088 1435.25
10.388 106.955
10.5672 198.474
10.7465 107.268
10.9257 74.3973
11.105 68.3315
11.2844 64.1381
11.4637 61.5924
11.6431 60.4118
11.8225 59.8284
12.002 81.6178
12.1814 91.3384
12.3609 91.0232
12.5405 61.4948
12.72 63.1471
12.8996 67.4393
13.0792 79.5245
13.2589 163.648
13.4386 306.921
13.6183 145.585
13.7981 225.959
13.9779 74.8106
14.1577 85.1105
14.3376 67.4142
14.5175 66.5741
14.6974 68.0126
14.8774 116.475
15.0574 205.123
15.2374 68.5604
15.4175 64.2386
15.5976 64.2116
15.7778 105.67
15.958 159.847
16.1382 64.8012
16.3185 55.7907
16.4988 53.8153
16.6792 52.4408
16.8596 52.8275
17.04 54.405
17.2205 61.1156
17.401 79.642
17.5815 57.1788
17.7622 60.3993
17.9428 84.5221
18.1237 85.5051
18.3044 89.2607
18.4852 103.503
18.666 60.0852
18.8469 56.5828
19.0278 55.0701
19.2088 60.8282
19.3898 61.9376
19.5709 58.6098
19.752 51.6888
19.9332 56.8679
20.1144 59.5958
20.2957 58.7073
20.477 62.9486
20.6586 48.5459
20.84 48.3271
21.0215 47.828
21.203 47.2789
21.3846 50.0829
21.5662 47.518
21.7479 52.4245
21.9297 54.6998
22.1115 56.5917
22.2933 53.7912
22.4753 47.4428
22.6572 47.9677
22.8393 49.7992
23.0214 51.759
23.2037 49.8725
23.3859 51.0085
23.5682 48.8948
23.7505 56.3195
23.9329 44.4955
24.1154 43.3403
24.2979 42.4745
24.4805 41.8115
24.6631 42.0393
24.8458 41.3717
25.0286 41.7356
25.2114 42.3194
25.3943 42.6494
25.5773 41.509
25.7605 39.8028
25.9436 39.6954
26.1268 39.6724
26.31 40.4717
26.4933 39.5899
26.6767 39.669
26.8601 40.5241
27.0437 38.8038
27.2272 37.9222
27.4109 37.3588
27.5946 37.2167
27.7784 37.5871
27.9623 37.0746
28.1462 37.5781
28.3304 36.9622
28.5145 35.4267
28.6987 34.918
28.8829 34.3968
29.0673 34.3037
29.2517 33.4102
29.4361 33.0797
29.6207 32.8011
29.8053 32.027
29.99 31.8156
30.1748 31.4703
30.3597 31.6783
30.5447 31.3016
30.7297 31.0718
30.915 31.1883
31.1002 30.6694
31.2855 30.0811
31.4708 29.9629
31.6563 29.9472
31.8418 29.28
32.0275 29.1195
32.2132 28.9304
32.399 28.3322
32.5848 27.7216
32.7708 27.499
32.9569 27.4021
33.143 26.9066
33.3293 26.7448
33.5158 26.5532
33.7022 25.9453
33.8887 25.5549
34.0753 25.3635
34.262 25.0164
34.4488 24.7731
34.6357 24.2995
34.8227 24.0566
35.0098 23.8303
35.1969 23.6151
35.3842 23.3832
35.5716 23.0286
35.759 22.848
35.9468 22.5567
36.1345 22.2701
36.3222 22.1332
36.5101 21.891
36.6981 21.5476
36.8861 21.3136
37.0743 20.9805
37.2626 20.7323
37.451 20.471
37.6395 20.2164
37.8281 19.9852
38.0168 19.7091
38.2056 19.4286
38.3945 19.2311
38.5837 18.9487
38.7728 18.6986
38.9621 18.5152
39.1514 18.206
39.3409 18.0271
39.5304 17.8364
39.7201 17.5793
39.9099 17.3992
40.0999 17.151
40.2899 16.958
40.48 16.7226
40.6703 16.5721
40.8607 16.3385
41.0512 16.1234
41.242 15.9437
41.4327 15.7262
41.6236 15.4549
41.8146 15.2949
42.0057 15.0852
42.1969 14.9052
42.3882 14.6666
42.5797 14.4609
42.7713 14.3048
42.963 14.083
43.1549 13.8823
43.3468 13.6753
43.5389 13.4935
43.7312 13.3163
43.9237 13.128
44.1162 13.0045
44.3088 12.7979
44.5016 12.6143
44.6945 12.4392
44.8875 12.2683
45.0806 12.0947
45.2739 11.9314
45.4673 11.7632
45.6609 11.5748
45.8546 11.4645
46.0484 11.2544
46.2424 11.089
46.4365 10.9452
46.631 10.8132
46.8254 10.6154
47.0199 10.4609
47.2146 10.2969
47.4095 10.135
47.6044 10.0164
47.7996 9.85383
47.9948 9.68994
48.1902 9.56775
48.3858 9.40543
48.5815 9.30979
48.7774 9.18207
48.9734 9.05179
49.1696 8.91751
49.3661 8.76409
49.5626 8.61859
49.7592 8.50925
49.956 8.3979
50.153 8.2795
50.3501 8.1259
50.5474 8.01978
50.7448 7.92423
50.9424 7.74317
51.1402 7.63647
51.3381 7.52621
51.5362 7.41694
51.7344 7.28017
51.9328 7.13408
52.1316 7.04277
52.3304 6.90952
52.5293 6.81415
52.7284 6.69122
52.9276 6.57591
53.1271 6.48611
53.3267 6.40014
53.5265 6.23197
53.7264 6.15099
53.9266 6.04546
54.1269 5.90111
54.3274 5.76049
54.528 5.56622
54.7289 5.4271
54.9301 5.21702
55.1314 5.12525
55.3328 4.91954
55.5344 4.71457
55.7361 4.63571