Folder: NiFe_MOF_catalyst_paper/XRD (part 19)

File: Ni3Fe_FD0095.xy
TT I
1.27165 9.10316
1.45013 7.74317
1.62863 6.87313
1.80712 6.12388
1.98562 5.73062
2.16411 5.04187
2.34263 4.18956
2.52115 3.86715
2.69965 5.0643
2.87818 7.59995
3.05672 11.3054
3.23527 14.8739
3.4138 18.3197
3.59237 21.3353
3.77094 24.9467
3.9495 28.1108
4.12809 32.4548
4.30669 36.7857
4.4853 44.6713
4.6639 53.1769
4.84253 66.1499
5.02118 94.7664
5.19981 699.717
5.37848 787.43
5.55716 113.306
5.73586 99.2334
5.91455 114.007
6.09328 2043.38
6.27201 98.6269
6.45075 67.1432
6.62952 59.3315
6.8083 54.8322
6.98711 52.9028
7.16591 51.528
7.34475 50.8245
7.5236 60.5635
7.70247 53.263
7.88135 55.3285
8.06026 59.7689
8.23919 67.4655
8.41812 84.5208
8.59709 727.508
8.77609 133.944
8.9551 85.3078
9.13412 81.1237
9.31318 99.2668
9.49226 82.7023
9.67134 87.3241
9.85047 98.2206
10.0296 600.783
10.2088 1252.4
10.388 105.572
10.5672 247.444
10.7465 96.9848
10.9257 74.6952
11.105 68.8796
11.2844 65.2466
11.4637 62.6209
11.6431 61.25
11.8225 60.2569
12.002 70.9119
12.1814 101.017
12.3609 83.1372
12.5405 62.0893
12.72 63.9751
12.8996 68.5823
13.0792 79.0051
13.2589 179.977
13.4386 267.11
13.6183 162.54
13.7981 192.772
13.9779 75.2035
14.1577 78.0132
14.3376 68.1975
14.5175 67.2657
14.6974 68.8839
14.8774 119.903
15.0574 208.952
15.2374 68.7396
15.4175 65.0987
15.5976 64.6565
15.7778 107.908
15.958 172.417
16.1382 62.6459
16.3185 56.345
16.4988 53.9315
16.6792 53.1857
16.8596 53.1828
17.04 54.623
17.2205 62.8027
17.401 80.8481
17.5815 58.1582
17.7622 60.6164
17.9428 85.5141
18.1237 96.8099
18.3044 87.8956
18.4852 101.039
18.666 60.1928
18.8469 57.4164
19.0278 55.688
19.2088 61.4097
19.3898 64.1434
19.5709 57.2681
19.752 52.3772
19.9332 57.6972
20.1144 62.5867
20.2957 59.0973
20.477 61.329
20.6586 49.0289
20.84 48.5515
21.0215 48.2386
21.203 48.1355
21.3846 50.1387
21.5662 48.0692
21.7479 53.1636
21.9297 57.7939
22.1115 56.0567
22.2933 52.9424
22.4753 47.9033
22.6572 48.271
22.8393 50.6725
23.0214 53.8616
23.2037 49.6381
23.3859 51.2262
23.5682 50.5117
23.7505 54.878
23.9329 44.9284
24.1154 43.7653
24.2979 42.8917
24.4805 42.3968
24.6631 42.342
24.8458 41.8388
25.0286 42.2149
25.2114 43.1717
25.3943 43.3681
25.5773 41.6667
25.7605 40.1015
25.9436 40.2631
26.1268 40.5113
26.31 40.6646
26.4933 40.0433
26.6767 40.7012
26.8601 40.7505
27.0437 38.9954
27.2272 38.3292
27.4109 37.8715
27.5946 37.957
27.7784 38.0351
27.9623 37.6337
28.1462 38.2884
28.3304 37.4753
28.5145 35.7747
28.6987 35.2427
28.8829 34.8203
29.0673 34.6814
29.2517 33.8565
29.4361 33.5393
29.6207 33.1561
29.8053 32.4743
29.99 32.0786
30.1748 31.884
30.3597 32.133
30.5447 31.7637
30.7297 31.5273
30.915 31.3803
31.1002 30.8513
31.2855 30.5253
31.4708 30.2816
31.6563 30.3819
31.8418 29.7675
32.0275 29.5851
32.2132 29.222
32.399 28.6104
32.5848 28.1436
32.7708 27.8587
32.9569 27.6762
33.143 27.3188
33.3293 27.1321
33.5158 26.8376
33.7022 26.2883
33.8887 25.8913
34.0753 25.6866
34.262 25.1881
34.4488 25.02
34.6357 24.6094
34.8227 24.3499
35.0098 24.2178
35.1969 23.9499
35.3842 23.6243
35.5716 23.428
35.759 23.2792
35.9468 22.7972
36.1345 22.5728
36.3222 22.4023
36.5101 22.1955
36.6981 21.872
36.8861 21.6395
37.0743 21.2026
37.2626 21.0209
37.451 20.6814
37.6395 20.5871
37.8281 20.2482
38.0168 19.9207
38.2056 19.6847
38.3945 19.3874
38.5837 19.2405
38.7728 18.9793
38.9621 18.747
39.1514 18.4633
39.3409 18.2527
39.5304 17.9781
39.7201 17.8691
39.9099 17.5841
40.0999 17.3929
40.2899 17.2094
40.48 16.9438
40.6703 16.6612
40.8607 16.5282
41.0512 16.3367
41.242 16.1052
41.4327 15.9039
41.6236 15.6558
41.8146 15.482
42.0057 15.199
42.1969 15.0321
42.3882 14.8026
42.5797 14.644
42.7713 14.4674
42.963 14.2452
43.1549 14.0878
43.3468 13.8554
43.5389 13.6327
43.7312 13.4784
43.9237 13.3094
44.1162 13.0959
44.3088 12.9604
44.5016 12.7235
44.6945 12.5844
44.8875 12.3729
45.0806 12.2116
45.2739 12.0186
45.4673 11.8597
45.6609 11.6769
45.8546 11.5688
46.0484 11.4006
46.2424 11.1991
46.4365 11.0833
46.631 10.8694
46.8254 10.7138
47.0199 10.5656
47.2146 10.4269
47.4095 10.2749
47.6044 10.1107
47.7996 9.92398
47.9948 9.82539
48.1902 9.66617
48.3858 9.55982
48.5815 9.41732
48.7774 9.30074
48.9734 9.15895
49.1696 9.01568
49.3661 8.8604
49.5626 8.71805
49.7592 8.58687
49.956 8.46212
50.153 8.35366
50.3501 8.21179
50.5474 8.11522
50.7448 7.9802
50.9424 7.87423
51.1402 7.73339
51.3381 7.59692
51.5362 7.5138
51.7344 7.35944
51.9328 7.23478
52.1316 7.07439
52.3304 6.99106
52.5293 6.87348
52.7284 6.76559
52.9276 6.66797
53.1271 6.55501
53.3267 6.42308
53.5265 6.29623
53.7264 6.20519
53.9266 6.12761
54.1269 5.92277
54.3274 5.83263
54.528 5.67491
54.7289 5.48944
54.9301 5.3038
55.1314 5.19271
55.3328 4.94815
55.5344 4.76975
55.7361 4.72396

File: Ni3Fe_FD0096.xy
TT I
1.27165 9.06236
1.45013 7.59018
1.62863 6.16301
1.80712 6.00335
1.98562 5.57395
2.16411 4.67642
2.34263 4.48554
2.52115 3.87635
2.69965 5.45301
2.87818 8.14809
3.05672 11.0329
3.23527 14.4997
3.4138 18.4267
3.59237 21.88
3.77094 24.6135
3.9495 28.0007
4.12809 32.5151
4.30669 37.0928
4.4853 44.4749
4.6639 53.6816
4.84253 65.996
5.02118 94.2795
5.19981 691.566
5.37848 749.425
5.55716 112.829
5.73586 98.9408
5.91455 113.505
6.09328 2063.85
6.27201 98.3422
6.45075 66.6882
6.62952 59.7803
6.8083 54.8875
6.98711 52.5825
7.16591 51.5901
7.34475 51.3898
7.5236 60.161
7.70247 53.4374
7.88135 55.4888
8.06026 60.0766
8.23919 67.2037
8.41812 84.7422
8.59709 734.68
8.77609 132.975
8.9551 85.2355
9.13412 80.8752
9.31318 98.2604
9.49226 82.7351
9.67134 87.8492
9.85047 98.4422
10.0296 598.98
10.2088 1221.49
10.388 105.613
10.5672 250.743
10.7465 96.5214
10.9257 74.9429
11.105 69.188
11.2844 65.2265
11.4637 62.369
11.6431 61.2198
11.8225 60.3763
12.002 70.4899
12.1814 101.873
12.3609 83.196
12.5405 61.914
12.72 64.2579
12.8996 68.4413
13.0792 78.6079
13.2589 180.958
13.4386 264.17
13.6183 163.949
13.7981 191.789
13.9779 75.2937
14.1577 77.6915
14.3376 67.9509
14.5175 67.2854
14.6974 68.6643
14.8774 119.694
15.0574 207.894
15.2374 68.5403
15.4175 65.1109
15.5976 64.7191
15.7778 108.096
15.958 172.783
16.1382 62.3434
16.3185 56.35
16.4988 54.1171
16.6792 53.1781
16.8596 53.4236
17.04 54.3708
17.2205 62.4996
17.401 81.0748
17.5815 57.9076
17.7622 60.544
17.9428 85.1612
18.1237 97.5068
18.3044 87.9418
18.4852 100.593
18.666 60.0054
18.8469 57.1794
19.0278 55.7971
19.2088 61.2547
19.3898 64.3039
19.5709 57.1523
19.752 52.4268
19.9332 57.6159
20.1144 62.7631
20.2957 59.2328
20.477 61.2089
20.6586 49.0444
20.84 48.4822
21.0215 48.254
21.203 48.1794
21.3846 50.1443
21.5662 48.221
21.7479 53.2775
21.9297 57.9678
22.1115 56.0915
22.2933 53.0852
22.4753 47.9869
22.6572 48.2815
22.8393 50.7854
23.0214 54.121
23.2037 49.8364
23.3859 51.426
23.5682 50.6578
23.7505 54.9542
23.9329 45.0351
24.1154 43.6312
24.2979 42.94
24.4805 42.1907
24.6631 42.3226
24.8458 41.8907
25.0286 42.2776
25.2114 43.1616
25.3943 43.5575
25.5773 41.6031
25.7605 40.1777
25.9436 40.1254
26.1268 40.4268
26.31 40.5356
26.4933 40.1677
26.6767 40.6331
26.8601 40.7337
27.0437 38.9608
27.2272 38.2766
27.4109 37.8172
27.5946 37.8331
27.7784 38.0321
27.9623 37.7785
28.1462 38.2655
28.3304 37.4229
28.5145 35.7141
28.6987 35.2558
28.8829 34.6942
29.0673 34.6189
29.2517 33.7482
29.4361 33.5072
29.6207 33.0692
29.8053 32.5419
29.99 32.1504
30.1748 31.9933
30.3597 31.9786
30.5447 31.7271
30.7297 31.6033
30.915 31.5324
31.1002 30.9169
31.2855 30.4516
31.4708 30.2625
31.6563 30.405
31.8418 29.7744
32.0275 29.4482
32.2132 29.1456
32.399 28.6312
32.5848 28.205
32.7708 27.8672
32.9569 27.7171
33.143 27.3761
33.3293 27.0293
33.5158 26.8514
33.7022 26.2894
33.8887 25.9726
34.0753 25.7429
34.262 25.3224
34.4488 25.0012
34.6357 24.7061
34.8227 24.4113
35.0098 24.1117
35.1969 23.9185
35.3842 23.6296
35.5716 23.4014
35.759 23.1715
35.9468 22.8075
36.1345 22.6602
36.3222 22.4029
36.5101 22.1103
36.6981 21.8408
36.8861 21.5475
37.0743 21.2441
37.2626 20.9301
37.451 20.7609
37.6395 20.5222
37.8281 20.2349
38.0168 19.9854
38.2056 19.7036
38.3945 19.4158
38.5837 19.1744
38.7728 18.9757
38.9621 18.7375
39.1514 18.5125
39.3409 18.1644
39.5304 18.0444
39.7201 17.8201
39.9099 17.5803
40.0999 17.3566
40.2899 17.0969
40.48 16.9028
40.6703 16.7421
40.8607 16.5346
41.0512 16.3175
41.242 16.0975
41.4327 15.9072
41.6236 15.6464
41.8146 15.4412
42.0057 15.2428
42.1969 14.9843
42.3882 14.8686
42.5797 14.6283
42.7713 14.4499
42.963 14.2603
43.1549 14.0768
43.3468 13.8296
43.5389 13.6463
43.7312 13.4797
43.9237 13.329
44.1162 13.0918
44.3088 12.9475
44.5016 12.7758
44.6945 12.5781
44.8875 12.387
45.0806 12.2447
45.2739 12.0258
45.4673 11.8906
45.6609 11.7458
45.8546 11.584
46.0484 11.3927
46.2424 11.2386
46.4365 11.0689
46.631 10.8528
46.8254 10.7214
47.0199 10.5922
47.2146 10.4375
47.4095 10.2782
47.6044 10.1212
47.7996 9.97075
47.9948 9.8527
48.1902 9.66391
48.3858 9.59407
48.5815 9.4108
48.7774 9.30213
48.9734 9.16794
49.1696 9.00961
49.3661 8.87992
49.5626 8.73509
49.7592 8.60449
49.956 8.4723
50.153 8.37588
50.3501 8.22879
50.5474 8.10109
50.7448 7.98953
50.9424 7.87563
51.1402 7.72914
51.3381 7.58382
51.5362 7.48298
51.7344 7.37386
51.9328 7.21386
52.1316 7.07633
52.3304 7.01139
52.5293 6.86713
52.7284 6.76413
52.9276 6.61803
53.1271 6.53826
53.3267 6.42202
53.5265 6.29354
53.7264 6.22644
53.9266 6.09359
54.1269 5.95782
54.3274 5.82982
54.528 5.68652
54.7289 5.49656
54.9301 5.37635
55.1314 5.24499
55.3328 4.95933
55.5344 4.77192
55.7361 4.64

File: Ni3Fe_FD0097.xy
TT I
1.27165 8.98674
1.45013 7.1771
1.62863 6.46379
1.80712 5.95109
1.98562 5.28569
2.16411 5.054
2.34263 4.25495
2.52115 3.63457
2.69965 4.44378
2.87818 7.60199
3.05672 11.01
3.23527 14.9945
3.4138 17.9578
3.59237 21.3795
3.77094 24.7129
3.9495 28.072
4.12809 32.2794
4.30669 37.3315
4.4853 44.2897
4.6639 52.9118
4.84253 65.5018
5.02118 93.9814
5.19981 681.593
5.37848 726.82
5.55716 112.359
5.73586 97.8418
5.91455 112.344
6.09328 2091.33
6.27201 97.1327
6.45075 66.677
6.62952 59.1802
6.8083 55.1875
6.98711 52.7934
7.16591 51.6858
7.34475 51.5367
7.5236 59.324
7.70247 53.3243
7.88135 55.2765
8.06026 60.025
8.23919 67.2309
8.41812 84.3283
8.59709 740.626
8.77609 131.636
8.9551 85.1586
9.13412 80.7518
9.31318 96.9882
9.49226 82.4907
9.67134 87.1401
9.85047 98.3389
10.0296 596.118
10.2088 1225.18
10.388 105.604
10.5672 252.936
10.7465 96.3282
10.9257 74.8579
11.105 69.1599
11.2844 65.0119
11.4637 62.5167
11.6431 61.1529
11.8225 60.1941
12.002 70.2708
12.1814 102.236
12.3609 82.2365
12.5405 61.9601
12.72 64.2157
12.8996 68.4279
13.0792 78.5931
13.2589 182.103
13.4386 263.51
13.6183 165.34
13.7981 190.479
13.9779 75.2642
14.1577 77.3688
14.3376 67.8617
14.5175 67.309
14.6974 68.5051
14.8774 120.155
15.0574 208.197
15.2374 68.447
15.4175 64.8482
15.5976 64.567
15.7778 108.269
15.958 173.085
16.1382 62.4341
16.3185 56.5629
16.4988 53.9867
16.6792 52.925
16.8596 53.3036
17.04 54.637
17.2205 62.9568
17.401 80.6938
17.5815 58.0866
17.7622 60.5625
17.9428 85.0098
18.1237 98.1932
18.3044 87.7177
18.4852 100.163
18.666 60.1277
18.8469 57.3273
19.0278 55.8504
19.2088 61.4266
19.3898 64.473
19.5709 57.1842
19.752 52.5465
19.9332 57.6404
20.1144 62.7757
20.2957 59.3267
20.477 61.0437
20.6586 49.0803
20.84 48.3744
21.0215 48.1852
21.203 48.2826
21.3846 50.3071
21.5662 48.111
21.7479 53.224
21.9297 57.9019
22.1115 56.0844
22.2933 52.9986
22.4753 48.0221
22.6572 48.341
22.8393 50.8571
23.0214 54.2592
23.2037 49.8058
23.3859 51.2291
23.5682 50.7364
23.7505 54.8896
23.9329 44.9565
24.1154 43.5859
24.2979 42.8934
24.4805 42.2265
24.6631 42.3742
24.8458 41.9089
25.0286 42.222
25.2114 43.1246
25.3943 43.4878
25.5773 41.4549
25.7605 39.9801
25.9436 40.259
26.1268 40.4077
26.31 40.6088
26.4933 40.1244
26.6767 40.6644
26.8601 40.8332
27.0437 39.1509
27.2272 38.333
27.4109 37.786
27.5946 37.8104
27.7784 38.0352
27.9623 37.6405
28.1462 38.3356
28.3304 37.528
28.5145 35.8831
28.6987 35.4226
28.8829 34.8046
29.0673 34.7123
29.2517 33.8884
29.4361 33.5709
29.6207 33.1282
29.8053 32.5845
29.99 32.2749
30.1748 31.9652
30.3597 32.0774
30.5447 31.6824
30.7297 31.5774
30.915 31.5947
31.1002 31.0987
31.2855 30.4879
31.4708 30.3391
31.6563 30.4207
31.8418 29.784
32.0275 29.6132
32.2132 29.2164
32.399 28.6976
32.5848 28.2263
32.7708 27.868
32.9569 27.7142
33.143 27.3334
33.3293 27.1457
33.5158 26.874
33.7022 26.3303
33.8887 26.0375
34.0753 25.8221
34.262 25.2895
34.4488 24.9522
34.6357 24.6897
34.8227 24.4473
35.0098 24.22
35.1969 23.8775
35.3842 23.7246
35.5716 23.522
35.759 23.2138
35.9468 22.8198
36.1345 22.6523
36.3222 22.3379
36.5101 22.1174
36.6981 21.8217
36.8861 21.572
37.0743 21.2716
37.2626 21.0117
37.451 20.6792
37.6395 20.5544
37.8281 20.2337
38.0168 19.9719
38.2056 19.6563
38.3945 19.507
38.5837 19.2038
38.7728 18.9672
38.9621 18.7725
39.1514 18.494
39.3409 18.2346
39.5304 18.0058
39.7201 17.8315
39.9099 17.6408
40.0999 17.3668
40.2899 17.1799
40.48 16.9292
40.6703 16.6901
40.8607 16.5354
41.0512 16.3072
41.242 16.0416
41.4327 15.8891
41.6236 15.6707
41.8146 15.4746
42.0057 15.2771
42.1969 15.0155
42.3882 14.8219
42.5797 14.6004
42.7713 14.4515
42.963 14.2664
43.1549 14.1026
43.3468 13.8388
43.5389 13.645
43.7312 13.4719
43.9237 13.2859
44.1162 13.1111
44.3088 12.9145
44.5016 12.7495
44.6945 12.5746
44.8875 12.4173
45.0806 12.2129
45.2739 12.0531
45.4673 11.9036
45.6609 11.7508
45.8546 11.5454
46.0484 11.3808
46.2424 11.236
46.4365 11.0852
46.631 10.8593
46.8254 10.7354
47.0199 10.6086
47.2146 10.438
47.4095 10.3048
47.6044 10.1092
47.7996 9.97194
47.9948 9.82588
48.1902 9.70784
48.3858 9.55873
48.5815 9.43267
48.7774 9.28032
48.9734 9.16669
49.1696 9.02288
49.3661 8.85435
49.5626 8.73167
49.7592 8.57245
49.956 8.50387
50.153 8.36838
50.3501 8.22145
50.5474 8.11247
50.7448 7.9658
50.9424 7.86997
51.1402 7.7497
51.3381 7.60998
51.5362 7.51927
51.7344 7.3828
51.9328 7.22116
52.1316 7.09978
52.3304 7.02911
52.5293 6.88092
52.7284 6.74807
52.9276 6.67414
53.1271 6.5636
53.3267 6.41187
53.5265 6.3167
53.7264 6.20999
53.9266 6.08867
54.1269 5.98531
54.3274 5.88631
54.528 5.70374
54.7289 5.55125
54.9301 5.34669
55.1314 5.15714
55.3328 4.95419
55.5344 4.76206
55.7361 4.70832

File: Ni3Fe_FD0098.xy
TT I
1.27165 8.95656
1.45013 6.83122
1.62863 6.00453
1.80712 5.56671
1.98562 5.19373
2.16411 5.08587
2.34263 4.26156
2.52115 3.89622
2.69965 4.77978
2.87818 7.40387
3.05672 10.8916
3.23527 14.8712
3.4138 18.3881
3.59237 21.7012
3.77094 24.4929
3.9495 28.1285
4.12809 31.8705
4.30669 37.2606
4.4853 44.1806
4.6639 53.128
4.84253 66.2214
5.02118 93.9438
5.19981 680.861
5.37848 703.497
5.55716 112.288
5.73586 97.4682
5.91455 112.68
6.09328 2115.96
6.27201 96.4897
6.45075 66.6152
6.62952 59.0942
6.8083 54.6111
6.98711 52.5796
7.16591 51.7647
7.34475 51.2424
7.5236 59.4254
7.70247 53.0821
7.88135 55.1359
8.06026 59.8884
8.23919 66.8778
8.41812 84.0976
8.59709 747.576
8.77609 130.947
8.9551 84.9575
9.13412 80.8632
9.31318 96.4321
9.49226 82.7186
9.67134 87.3314
9.85047 98.516
10.0296 595.042
10.2088 1209.23
10.388 105.409
10.5672 256.358
10.7465 95.6427
10.9257 74.7016
11.105 69.3195
11.2844 65.1369
11.4637 62.4218
11.6431 61.0847
11.8225 60.4151
12.002 69.853
12.1814 102.729
12.3609 81.5623
12.5405 62.2017
12.72 64.0351
12.8996 68.5057
13.0792 78.9351
13.2589 182.461
13.4386 257.94
13.6183 166.156
13.7981 187.353
13.9779 75.3326
14.1577 76.9462
14.3376 68.0241
14.5175 67.3039
14.6974 68.7308
14.8774 120.151
15.0574 206.174
15.2374 68.4058
15.4175 65.1554
15.5976 64.722
15.7778 108.021
15.958 173.984
16.1382 62.2343
16.3185 56.4016
16.4988 54.1334
16.6792 53.0722
16.8596 53.1545
17.04 54.5921
17.2205 62.9649
17.401 80.735
17.5815 57.9662
17.7622 60.8636
17.9428 85.358
18.1237 98.7229
18.3044 87.4549
18.4852 99.9171
18.666 60.2661
18.8469 57.1791
19.0278 55.7823
19.2088 61.5624
19.3898 64.5918
19.5709 57.1427
19.752 52.5335
19.9332 57.6765
20.1144 63.3039
20.2957 59.4043
20.477 60.938
20.6586 48.8808
20.84 48.5109
21.0215 48.3002
21.203 48.3056
21.3846 50.2582
21.5662 48.1439
21.7479 53.2287
21.9297 58.2146
22.1115 55.8355
22.2933 52.9499
22.4753 47.9902
22.6572 48.2117
22.8393 50.8735
23.0214 54.2544
23.2037 49.6041
23.3859 51.208
23.5682 50.7627
23.7505 54.6969
23.9329 45.0045
24.1154 43.6561
24.2979 42.9535
24.4805 42.2206
24.6631 42.3273
24.8458 41.8215
25.0286 42.2355
25.2114 43.3157
25.3943 43.4647
25.5773 41.4072
25.7605 40.0891
25.9436 40.163
26.1268 40.4962
26.31 40.6219
26.4933 40.1798
26.6767 40.8667
26.8601 40.7391
27.0437 39.0823
27.2272 38.4108
27.4109 37.8989
27.5946 37.9744
27.7784 37.9363
27.9623 37.7498
28.1462 38.4045
28.3304 37.5598
28.5145 35.7449
28.6987 35.3624
28.8829 34.7994
29.0673 34.5446
29.2517 33.9437
29.4361 33.5829
29.6207 33.1928
29.8053 32.6077
29.99 32.259
30.1748 32.0012
30.3597 32.0111
30.5447 31.7006
30.7297 31.5924
30.915 31.6107
31.1002 31.0575
31.2855 30.5558
31.4708 30.3851
31.6563 30.3779
31.8418 29.881
32.0275 29.5869
32.2132 29.2798
32.399 28.573
32.5848 28.1684
32.7708 28.0109
32.9569 27.7732
33.143 27.4145
33.3293 27.1794
33.5158 26.9191
33.7022 26.2793
33.8887 25.9723
34.0753 25.7384
34.262 25.352
34.4488 25.0925
34.6357 24.6854
34.8227 24.4672
35.0098 24.1558
35.1969 23.9395
35.3842 23.6424
35.5716 23.4447
35.759 23.1791
35.9468 22.8392
36.1345 22.6562
36.3222 22.3335
36.5101 22.0954
36.6981 21.8581
36.8861 21.5236
37.0743 21.2576
37.2626 21.0141
37.451 20.7488
37.6395 20.4901
37.8281 20.2543
38.0168 19.9497
38.2056 19.7558
38.3945 19.5014
38.5837 19.2205
38.7728 19.0388
38.9621 18.7502
39.1514 18.4686
39.3409 18.3318
39.5304 18.0491
39.7201 17.8461
39.9099 17.6525
40.0999 17.3576
40.2899 17.1506
40.48 16.9818
40.6703 16.7463
40.8607 16.532
41.0512 16.2992
41.242 16.0694
41.4327 15.947
41.6236 15.6453
41.8146 15.5256
42.0057 15.2208
42.1969 15.0655
42.3882 14.8806
42.5797 14.6429
42.7713 14.4793
42.963 14.2592
43.1549 13.9822
43.3468 13.8341
43.5389 13.6754
43.7312 13.483
43.9237 13.3426
44.1162 13.1176
44.3088 12.9141
44.5016 12.7431
44.6945 12.5334
44.8875 12.384
45.0806 12.2295
45.2739 12.0788
45.4673 11.9544
45.6609 11.7102
45.8546 11.6141
46.0484 11.3954
46.2424 11.2208
46.4365 11.0603
46.631 10.88
46.8254 10.7067
47.0199 10.5922
47.2146 10.4036
47.4095 10.2364
47.6044 10.107
47.7996 9.97568
47.9948 9.83147
48.1902 9.66712
48.3858 9.5716
48.5815 9.44112
48.7774 9.28603
48.9734 9.17221
49.1696 9.0035
49.3661 8.84357
49.5626 8.73504
49.7592 8.60488
49.956 8.46223
50.153 8.37101
50.3501 8.22803
50.5474 8.10697
50.7448 7.99915
50.9424 7.8656
51.1402 7.74037
51.3381 7.60543
51.5362 7.47705
51.7344 7.36924
51.9328 7.22551
52.1316 7.09761
52.3304 7.03008
52.5293 6.87939
52.7284 6.73617
52.9276 6.66507
53.1271 6.58352
53.3267 6.47692
53.5265 6.31986
53.7264 6.20964
53.9266 6.11712
54.1269 5.96907
54.3274 5.87243
54.528 5.69577
54.7289 5.51342
54.9301 5.33371
55.1314 5.17621
55.3328 4.96718
55.5344 4.75853
55.7361 4.67289

File: Ni3Fe_FD0099.xy
TT I
1.27165 8.67367
1.45013 6.80759
1.62863 5.96169
1.80712 5.96578
1.98562 5.64693
2.16411 4.8087
2.34263 4.48005
2.52115 3.81926
2.69965 5.53275
2.87818 6.8297
3.05672 11.2081
3.23527 14.9411
3.4138 18.2504
3.59237 21.4722
3.77094 24.7142
3.9495 28.5382
4.12809 32.2979
4.30669 37.4128
4.4853 44.0962
4.6639 53.4213
4.84253 66.1583
5.02118 94.2913
5.19981 679.904
5.37848 695.175
5.55716 112.055
5.73586 97.866
5.91455 112.01
6.09328 2140.71
6.27201 96.6516
6.45075 66.775
6.62952 59.3561
6.8083 55.1788
6.98711 52.7
7.16591 51.5039
7.34475 51.4028
7.5236 59.4627
7.70247 52.9139
7.88135 55.4001
8.06026 59.8117
8.23919 67.1368
8.41812 84.2613
8.59709 752.439
8.77609 130.317
8.9551 85.2698
9.13412 81.1234
9.31318 95.4852
9.49226 82.3642
9.67134 87.4147
9.85047 98.1651
10.0296 594.419
10.2088 1193.68
10.388 105.528
10.5672 259.057
10.7465 95.2027
10.9257 75.0983
11.105 69.2584
11.2844 65.1975
11.4637 62.5302
11.6431 61.1575
11.8225 60.0132
12.002 69.4915
12.1814 103.569
12.3609 80.9155
12.5405 62.3502
12.72 64.0816
12.8996 68.4277
13.0792 78.7821
13.2589 182.919
13.4386 254.132
13.6183 166.61
13.7981 184.064
13.9779 75.0836
14.1577 76.8779
14.3376 68.0182
14.5175 67.3217
14.6974 68.9291
14.8774 119.92
15.0574 207.509
15.2374 68.5121
15.4175 65.1882
15.5976 64.7828
15.7778 107.83
15.958 174.345
16.1382 62.1511
16.3185 56.5968
16.4988 54.1753
16.6792 53.0517
16.8596 53.294
17.04 54.4609
17.2205 63.0478
17.401 81.0532
17.5815 58.0999
17.7622 60.5688
17.9428 85.2079
18.1237 99.6897
18.3044 87.2433
18.4852 99.1858
18.666 60.2244
18.8469 57.1984
19.0278 55.8612
19.2088 61.5152
19.3898 64.8761
19.5709 57.0577
19.752 52.4569
19.9332 57.7105
20.1144 63.2319
20.2957 59.4009
20.477 60.6115
20.6586 48.9697
20.84 48.3869
21.0215 48.3043
21.203 48.425
21.3846 50.0742
21.5662 48.1026
21.7479 53.2127
21.9297 58.4136
22.1115 55.9807
22.2933 52.7745
22.4753 48.1197
22.6572 48.3055
22.8393 50.8953
23.0214 54.4728
23.2037 49.6844
23.3859 51.3601
23.5682 51.1544
23.7505 54.6349
23.9329 44.9339
24.1154 43.6522
24.2979 42.9371
24.4805 42.2722
24.6631 42.4389
24.8458 41.821
25.0286 42.1825
25.2114 43.2662
25.3943 43.6889
25.5773 41.3882
25.7605 40.0956
25.9436 40.2041
26.1268 40.6103
26.31 40.5201
26.4933 40.1937
26.6767 40.8686
26.8601 40.7173
27.0437 39.0594
27.2272 38.4148
27.4109 37.9298
27.5946 37.9603
27.7784 37.9158
27.9623 37.8007
28.1462 38.3828
28.3304 37.4195
28.5145 35.7307
28.6987 35.3042
28.8829 34.9057
29.0673 34.6678
29.2517 34.0229
29.4361 33.6039
29.6207 33.1075
29.8053 32.4533
29.99 32.1842
30.1748 31.933
30.3597 32.0262
30.5447 31.8034
30.7297 31.6439
30.915 31.5657
31.1002 30.9559
31.2855 30.5759
31.4708 30.4216
31.6563 30.3589
31.8418 29.8524
32.0275 29.55
32.2132 29.297
32.399 28.6655
32.5848 28.1639
32.7708 27.921
32.9569 27.7931
33.143 27.4463
33.3293 27.1663
33.5158 26.8278
33.7022 26.2872
33.8887 25.9444
34.0753 25.8407
34.262 25.3366
34.4488 25.0515
34.6357 24.699
34.8227 24.4056
35.0098 24.231
35.1969 23.9087
35.3842 23.6403
35.5716 23.538
35.759 23.1736
35.9468 22.8719
36.1345 22.648
36.3222 22.4692
36.5101 22.0972
36.6981 21.9061
36.8861 21.6236
37.0743 21.2277
37.2626 21.0139
37.451 20.7315
37.6395 20.5909
37.8281 20.2115
38.0168 19.9825
38.2056 19.7269
38.3945 19.4589
38.5837 19.1953
38.7728 18.9864
38.9621 18.7764
39.1514 18.5271
39.3409 18.2674
39.5304 18.0448
39.7201 17.8626
39.9099 17.6699
40.0999 17.4172
40.2899 17.2226
40.48 16.9755
40.6703 16.7299
40.8607 16.5325
41.0512 16.36
41.242 16.1048
41.4327 15.871
41.6236 15.6855
41.8146 15.4806
42.0057 15.2881
42.1969 15.0606
42.3882 14.8401
42.5797 14.6434
42.7713 14.4598
42.963 14.2596
43.1549 14.1064
43.3468 13.8563
43.5389 13.6232
43.7312 13.4773
43.9237 13.2739
44.1162 13.1323
44.3088 12.951
44.5016 12.7526
44.6945 12.573
44.8875 12.4335
45.0806 12.2185
45.2739 12.0479
45.4673 11.9308
45.6609 11.7315
45.8546 11.5811
46.0484 11.3827
46.2424 11.2473
46.4365 11.1181
46.631 10.8768
46.8254 10.6968
47.0199 10.5911
47.2146 10.433
47.4095 10.285
47.6044 10.1322
47.7996 9.94971
47.9948 9.8477
48.1902 9.72094
48.3858 9.53217
48.5815 9.46113
48.7774 9.28238
48.9734 9.16494
49.1696 8.99729
49.3661 8.89335
49.5626 8.69931
49.7592 8.59432
49.956 8.50591
50.153 8.32281
50.3501 8.21446
50.5474 8.09533
50.7448 8.01264
50.9424 7.86607
51.1402 7.77211
51.3381 7.59489
51.5362 7.48706
51.7344 7.35256
51.9328 7.24585
52.1316 7.08186
52.3304 7.02456
52.5293 6.86794
52.7284 6.79433
52.9276 6.64556
53.1271 6.56843
53.3267 6.41286
53.5265 6.31588
53.7264 6.18175
53.9266 6.13209
54.1269 5.97511
54.3274 5.87127
54.528 5.69159
54.7289 5.47901
54.9301 5.33165
55.1314 5.1853
55.3328 4.97186
55.5344 4.79847
55.7361 4.66941