Folder: NiFe_MOF_catalyst_paper/XRD (part 31)

File: Ni3Fe_FD0157.xy
TT I
1.27165 8.24686
1.45013 6.75605
1.62863 5.32949
1.80712 4.69802
1.98562 4.57288
2.16411 4.81126
2.34263 4.40385
2.52115 4.45296
2.69965 5.5183
2.87818 8.1197
3.05672 11.1822
3.23527 15.2115
3.4138 18.9277
3.59237 21.5924
3.77094 24.9062
3.9495 28.9332
4.12809 32.8172
4.30669 37.8889
4.4853 45.1961
4.6639 53.6297
4.84253 66.3276
5.02118 90.9213
5.19981 544.97
5.37848 437.085
5.55716 107.453
5.73586 95.1618
5.91455 105.491
6.09328 2767.39
6.27201 88.7002
6.45075 66.4857
6.62952 60.0624
6.8083 55.8232
6.98711 53.3731
7.16591 52.3435
7.34475 52.2953
7.5236 56.2161
7.70247 54.1245
7.88135 56.5714
8.06026 60.9338
8.23919 68.0539
8.41812 83.5472
8.59709 894.958
8.77609 115.542
8.9551 85.2782
9.13412 81.2738
9.31318 86.2994
9.49226 83.633
9.67134 88.363
9.85047 98.9887
10.0296 543.846
10.2088 976.754
10.388 104.515
10.5672 334.427
10.7465 90.5339
10.9257 75.6069
11.105 70.1492
11.2844 66.0372
11.4637 63.4612
11.6431 62.1805
11.8225 61.1813
12.002 65.1618
12.1814 118.378
12.3609 74.7347
12.5405 63.2118
12.72 65.0484
12.8996 69.6972
13.0792 79.2707
13.2589 205.504
13.4386 207.089
13.6183 193.624
13.7981 151.362
13.9779 75.9022
14.1577 74.0773
14.3376 69.0762
14.5175 68.5532
14.6974 70.0744
14.8774 121.064
15.0574 203.736
15.2374 69.218
15.4175 66.1567
15.5976 65.5737
15.7778 107.36
15.958 186.246
16.1382 61.6709
16.3185 57.2994
16.4988 55.1764
16.6792 54.0225
16.8596 54.3913
17.04 55.2292
17.2205 65.1735
17.401 80.8463
17.5815 59.1479
17.7622 61.4114
17.9428 83.5491
18.1237 115.515
18.3044 88.2878
18.4852 94.614
18.666 60.87
18.8469 58.0326
19.0278 56.8108
19.2088 61.7394
19.3898 69.2459
19.5709 56.2814
19.752 53.204
19.9332 58.4266
20.1144 67.351
20.2957 61.216
20.477 59.0452
20.6586 49.8194
20.84 48.9564
21.0215 48.9752
21.203 49.7187
21.3846 50.3618
21.5662 49.0566
21.7479 54.1416
21.9297 62.3349
22.1115 56.2937
22.2933 52.3856
22.4753 48.9972
22.6572 49.0579
22.8393 52.1891
23.0214 57.1926
23.2037 49.7278
23.3859 51.8042
23.5682 53.5078
23.7505 53.294
23.9329 45.4847
24.1154 44.4813
24.2979 43.4967
24.4805 43.0207
24.6631 43.1364
24.8458 42.644
25.0286 43.0615
25.2114 44.5844
25.3943 44.8761
25.5773 41.7985
25.7605 40.8161
25.9436 41.0737
26.1268 41.7867
26.31 40.8471
26.4933 41.1196
26.6767 42.0915
26.8601 41.3581
27.0437 39.5002
27.2272 38.8449
27.4109 38.7645
27.5946 38.8362
27.7784 38.5514
27.9623 38.5364
28.1462 39.3977
28.3304 38.1132
28.5145 36.3024
28.6987 35.8369
28.8829 35.5966
29.0673 35.2169
29.2517 34.516
29.4361 34.3956
29.6207 33.6958
29.8053 33.1628
29.99 32.7798
30.1748 32.4058
30.3597 32.6232
30.5447 32.4168
30.7297 32.4007
30.915 32.066
31.1002 31.4755
31.2855 31.1423
31.4708 31.0039
31.6563 30.8931
31.8418 30.3642
32.0275 30.2424
32.2132 29.7232
32.399 29.199
32.5848 28.7192
32.7708 28.4151
32.9569 28.2487
33.143 28.0254
33.3293 27.6946
33.5158 27.4
33.7022 26.8134
33.8887 26.6343
34.0753 26.2665
34.262 25.8099
34.4488 25.5514
34.6357 25.2069
34.8227 24.902
35.0098 24.6455
35.1969 24.3572
35.3842 24.1882
35.5716 23.941
35.759 23.7784
35.9468 23.3752
36.1345 23.0861
36.3222 22.8335
36.5101 22.5828
36.6981 22.3554
36.8861 22.0543
37.0743 21.6632
37.2626 21.4744
37.451 21.2012
37.6395 21.0188
37.8281 20.767
38.0168 20.387
38.2056 20.0928
38.3945 19.8623
38.5837 19.6138
38.7728 19.3785
38.9621 19.0849
39.1514 18.8479
39.3409 18.5969
39.5304 18.405
39.7201 18.2006
39.9099 17.9531
40.0999 17.7013
40.2899 17.5305
40.48 17.2714
40.6703 17.0775
40.8607 16.9443
41.0512 16.6617
41.242 16.3874
41.4327 16.1981
41.6236 15.967
41.8146 15.7845
42.0057 15.6121
42.1969 15.3529
42.3882 15.1526
42.5797 14.9329
42.7713 14.7376
42.963 14.5457
43.1549 14.3386
43.3468 14.1084
43.5389 13.9421
43.7312 13.7615
43.9237 13.5611
44.1162 13.3744
44.3088 13.1673
44.5016 12.9819
44.6945 12.8407
44.8875 12.6226
45.0806 12.4588
45.2739 12.3162
45.4673 12.1345
45.6609 11.9475
45.8546 11.795
46.0484 11.6448
46.2424 11.4303
46.4365 11.2438
46.631 11.1062
46.8254 10.9624
47.0199 10.803
47.2146 10.6142
47.4095 10.4828
47.6044 10.3367
47.7996 10.1335
47.9948 10.0081
48.1902 9.84616
48.3858 9.73822
48.5815 9.61717
48.7774 9.46454
48.9734 9.33074
49.1696 9.1664
49.3661 9.05152
49.5626 8.82995
49.7592 8.7492
49.956 8.63478
50.153 8.50807
50.3501 8.38012
50.5474 8.21954
50.7448 8.13919
50.9424 8.01992
51.1402 7.90231
51.3381 7.72277
51.5362 7.60837
51.7344 7.4769
51.9328 7.35085
52.1316 7.24829
52.3304 7.15101
52.5293 7.03725
52.7284 6.88531
52.9276 6.76811
53.1271 6.70447
53.3267 6.51566
53.5265 6.4509
53.7264 6.35158
53.9266 6.22963
54.1269 6.10303
54.3274 5.99635
54.528 5.78329
54.7289 5.59706
54.9301 5.49161
55.1314 5.32757
55.3328 5.0965
55.5344 4.898
55.7361 4.77855

File: Ni3Fe_FD0158.xy
TT I
1.27165 8.02456
1.45013 6.41609
1.62863 6.02337
1.80712 5.40315
1.98562 5.04411
2.16411 3.97261
2.34263 3.53401
2.52115 4.28853
2.69965 5.84045
2.87818 8.32857
3.05672 11.5576
3.23527 15.3452
3.4138 19.0484
3.59237 21.6256
3.77094 24.9175
3.9495 28.4209
4.12809 32.5967
4.30669 37.7106
4.4853 44.6327
4.6639 53.5147
4.84253 65.6635
5.02118 90.4857
5.19981 544.876
5.37848 434.487
5.55716 107.361
5.73586 95.8204
5.91455 104.809
6.09328 2777.08
6.27201 88.7927
6.45075 66.5082
6.62952 60.0195
6.8083 55.6744
6.98711 53.7789
7.16591 52.3206
7.34475 52.2519
7.5236 56.1023
7.70247 53.8874
7.88135 56.4036
8.06026 60.7023
8.23919 68.032
8.41812 83.5482
8.59709 897.037
8.77609 115.122
8.9551 85.203
9.13412 81.5136
9.31318 86.3235
9.49226 83.8906
9.67134 88.5587
9.85047 98.9233
10.0296 543.681
10.2088 978.402
10.388 104.804
10.5672 336.174
10.7465 90.6455
10.9257 75.5407
11.105 70.0822
11.2844 66.1806
11.4637 63.465
11.6431 62.2505
11.8225 60.9107
12.002 65.2468
12.1814 118.457
12.3609 74.4931
12.5405 63.185
12.72 65.1652
12.8996 69.7828
13.0792 79.3225
13.2589 205.927
13.4386 206.545
13.6183 193.592
13.7981 150.627
13.9779 75.7744
14.1577 74.1962
14.3376 68.8708
14.5175 68.4733
14.6974 69.815
14.8774 121.023
15.0574 204.743
15.2374 69.2724
15.4175 66.2225
15.5976 65.7113
15.7778 107.313
15.958 186.628
16.1382 62.0204
16.3185 57.3554
16.4988 55.0781
16.6792 54.0447
16.8596 54.3074
17.04 55.4624
17.2205 65.3568
17.401 80.7106
17.5815 59.1732
17.7622 61.332
17.9428 83.6879
18.1237 115.827
18.3044 88.6603
18.4852 94.4455
18.666 61.0394
18.8469 58.1627
19.0278 56.7124
19.2088 61.6838
19.3898 69.3615
19.5709 56.2
19.752 53.3502
19.9332 58.2588
20.1144 67.3394
20.2957 61.2868
20.477 58.9375
20.6586 49.7827
20.84 49.1445
21.0215 49.021
21.203 49.61
21.3846 50.3731
21.5662 48.869
21.7479 54.0628
21.9297 62.2474
22.1115 56.3116
22.2933 52.4905
22.4753 48.9474
22.6572 49.1669
22.8393 52.0936
23.0214 57.2695
23.2037 49.77
23.3859 51.6807
23.5682 53.9707
23.7505 53.1097
23.9329 45.5947
24.1154 44.3758
24.2979 43.5911
24.4805 43.1476
24.6631 43.1429
24.8458 42.3868
25.0286 43.1593
25.2114 44.692
25.3943 44.9748
25.5773 41.6972
25.7605 40.8456
25.9436 41.0
26.1268 41.6295
26.31 40.8794
26.4933 41.1307
26.6767 42.1428
26.8601 41.3685
27.0437 39.5827
27.2272 38.9876
27.4109 38.6093
27.5946 38.7481
27.7784 38.4246
27.9623 38.5727
28.1462 39.4381
28.3304 38.0827
28.5145 36.3451
28.6987 35.9807
28.8829 35.6449
29.0673 35.2928
29.2517 34.493
29.4361 34.3716
29.6207 33.6014
29.8053 33.1139
29.99 32.8701
30.1748 32.6756
30.3597 32.6721
30.5447 32.5161
30.7297 32.4115
30.915 32.1917
31.1002 31.4948
31.2855 31.2068
31.4708 30.9931
31.6563 30.8899
31.8418 30.3911
32.0275 30.1589
32.2132 29.6987
32.399 29.0959
32.5848 28.7585
32.7708 28.3956
32.9569 28.317
33.143 27.9602
33.3293 27.7678
33.5158 27.3696
33.7022 26.788
33.8887 26.6238
34.0753 26.3317
34.262 25.8216
34.4488 25.6076
34.6357 25.2415
34.8227 24.9029
35.0098 24.7345
35.1969 24.5061
35.3842 24.2317
35.5716 24.0355
35.759 23.7082
35.9468 23.3092
36.1345 23.0878
36.3222 22.856
36.5101 22.5952
36.6981 22.2887
36.8861 21.953
37.0743 21.6925
37.2626 21.4471
37.451 21.1874
37.6395 21.0474
37.8281 20.7088
38.0168 20.3969
38.2056 20.1636
38.3945 19.93
38.5837 19.6129
38.7728 19.338
38.9621 19.1961
39.1514 18.8567
39.3409 18.6172
39.5304 18.4158
39.7201 18.1976
39.9099 17.9985
40.0999 17.7276
40.2899 17.5241
40.48 17.3332
40.6703 17.1189
40.8607 16.9205
41.0512 16.6533
41.242 16.3419
41.4327 16.185
41.6236 15.9639
41.8146 15.8101
42.0057 15.5837
42.1969 15.341
42.3882 15.1639
42.5797 14.9833
42.7713 14.7363
42.963 14.5627
43.1549 14.3727
43.3468 14.163
43.5389 13.9349
43.7312 13.7785
43.9237 13.6091
44.1162 13.4014
44.3088 13.1698
44.5016 12.9774
44.6945 12.8439
44.8875 12.6536
45.0806 12.4408
45.2739 12.2807
45.4673 12.156
45.6609 11.984
45.8546 11.806
46.0484 11.6425
46.2424 11.4463
46.4365 11.3002
46.631 11.096
46.8254 10.906
47.0199 10.7642
47.2146 10.6309
47.4095 10.4902
47.6044 10.272
47.7996 10.1714
47.9948 10.0208
48.1902 9.88365
48.3858 9.72964
48.5815 9.60771
48.7774 9.42702
48.9734 9.31972
49.1696 9.18635
49.3661 9.02139
49.5626 8.88987
49.7592 8.78208
49.956 8.66402
50.153 8.51643
50.3501 8.40081
50.5474 8.22404
50.7448 8.1314
50.9424 7.97966
51.1402 7.90156
51.3381 7.75745
51.5362 7.54324
51.7344 7.46404
51.9328 7.36729
52.1316 7.23221
52.3304 7.14344
52.5293 7.0088
52.7284 6.88062
52.9276 6.79933
53.1271 6.72033
53.3267 6.56345
53.5265 6.47292
53.7264 6.34399
53.9266 6.20901
54.1269 6.105
54.3274 6.00586
54.528 5.78292
54.7289 5.65693
54.9301 5.48775
55.1314 5.32705
55.3328 5.09641
55.5344 4.9061
55.7361 4.74654

File: Ni3Fe_FD0159.xy
TT I
1.27165 7.86272
1.45013 6.17587
1.62863 5.57223
1.80712 5.14662
1.98562 5.1943
2.16411 4.95223
2.34263 4.73596
2.52115 4.10712
2.69965 6.21748
2.87818 8.44531
3.05672 11.6336
3.23527 15.1696
3.4138 18.7215
3.59237 21.7106
3.77094 24.8941
3.9495 28.6289
4.12809 32.8665
4.30669 38.0059
4.4853 44.8073
4.6639 54.1413
4.84253 66.1665
5.02118 91.1116
5.19981 538.407
5.37848 438.423
5.55716 107.554
5.73586 95.522
5.91455 105.035
6.09328 2778.26
6.27201 88.6884
6.45075 66.793
6.62952 59.7153
6.8083 55.5833
6.98711 53.4094
7.16591 52.352
7.34475 52.4448
7.5236 56.2821
7.70247 54.1976
7.88135 56.1023
8.06026 60.4868
8.23919 67.9502
8.41812 83.8983
8.59709 896.766
8.77609 116.024
8.9551 85.5347
9.13412 81.6223
9.31318 86.3082
9.49226 83.3643
9.67134 88.51
9.85047 98.5758
10.0296 541.864
10.2088 970.919
10.388 104.568
10.5672 336.357
10.7465 90.6867
10.9257 75.7787
11.105 70.2664
11.2844 66.4055
11.4637 63.6846
11.6431 62.0837
11.8225 60.9343
12.002 65.065
12.1814 118.737
12.3609 74.401
12.5405 63.2067
12.72 65.3135
12.8996 69.6581
13.0792 78.9581
13.2589 206.648
13.4386 207.861
13.6183 193.608
13.7981 152.236
13.9779 76.0034
14.1577 74.1986
14.3376 68.9963
14.5175 68.4678
14.6974 69.7162
14.8774 121.002
15.0574 205.304
15.2374 68.9741
15.4175 66.358
15.5976 65.7313
15.7778 107.614
15.958 186.144
16.1382 61.7768
16.3185 57.4371
16.4988 55.0
16.6792 53.8762
16.8596 54.1843
17.04 55.37
17.2205 65.3877
17.401 80.8344
17.5815 59.0774
17.7622 61.3027
17.9428 83.8346
18.1237 115.897
18.3044 88.7714
18.4852 94.705
18.666 60.8931
18.8469 58.3805
19.0278 56.7573
19.2088 61.8671
19.3898 69.2838
19.5709 56.3885
19.752 53.3546
19.9332 58.338
20.1144 67.1014
20.2957 61.3362
20.477 59.1983
20.6586 49.7597
20.84 49.3144
21.0215 48.9273
21.203 49.9103
21.3846 50.5171
21.5662 49.1449
21.7479 54.2331
21.9297 62.2065
22.1115 56.3769
22.2933 52.456
22.4753 48.8872
22.6572 49.1376
22.8393 52.4046
23.0214 57.4294
23.2037 49.8884
23.3859 51.8078
23.5682 53.8248
23.7505 53.2892
23.9329 45.7534
24.1154 44.4072
24.2979 43.567
24.4805 43.0027
24.6631 43.1776
24.8458 42.4732
25.0286 42.9063
25.2114 44.7852
25.3943 45.0657
25.5773 41.8181
25.7605 40.8481
25.9436 41.1458
26.1268 41.7344
26.31 41.0022
26.4933 41.1121
26.6767 42.1879
26.8601 41.3723
27.0437 39.4873
27.2272 39.0334
27.4109 38.7128
27.5946 38.9598
27.7784 38.649
27.9623 38.7067
28.1462 39.5168
28.3304 38.0065
28.5145 36.2878
28.6987 35.9686
28.8829 35.5639
29.0673 35.2592
29.2517 34.5929
29.4361 34.4136
29.6207 33.7832
29.8053 33.1942
29.99 32.8042
30.1748 32.7481
30.3597 32.7559
30.5447 32.5247
30.7297 32.4555
30.915 32.1852
31.1002 31.6156
31.2855 31.2781
31.4708 31.0062
31.6563 30.8764
31.8418 30.4844
32.0275 30.3376
32.2132 29.8177
32.399 29.324
32.5848 28.6853
32.7708 28.4603
32.9569 28.3175
33.143 28.0914
33.3293 27.7237
33.5158 27.3798
33.7022 26.8843
33.8887 26.5277
34.0753 26.3431
34.262 25.9046
34.4488 25.5558
34.6357 25.1961
34.8227 24.9346
35.0098 24.6933
35.1969 24.4474
35.3842 24.1807
35.5716 24.0568
35.759 23.7016
35.9468 23.3643
36.1345 23.0838
36.3222 22.8844
36.5101 22.6607
36.6981 22.3414
36.8861 22.0967
37.0743 21.7401
37.2626 21.4949
37.451 21.2106
37.6395 21.0018
37.8281 20.7044
38.0168 20.4049
38.2056 20.1617
38.3945 19.8418
38.5837 19.7048
38.7728 19.3789
38.9621 19.1259
39.1514 18.8513
39.3409 18.6398
39.5304 18.3743
39.7201 18.2265
39.9099 18.0499
40.0999 17.7744
40.2899 17.5526
40.48 17.2948
40.6703 17.0443
40.8607 16.9079
41.0512 16.7083
41.242 16.4277
41.4327 16.2362
41.6236 16.014
41.8146 15.8233
42.0057 15.5777
42.1969 15.3668
42.3882 15.184
42.5797 14.9712
42.7713 14.8095
42.963 14.5657
43.1549 14.3295
43.3468 14.1103
43.5389 13.9263
43.7312 13.778
43.9237 13.596
44.1162 13.346
44.3088 13.2157
44.5016 13.058
44.6945 12.8811
44.8875 12.6775
45.0806 12.5128
45.2739 12.2833
45.4673 12.1628
45.6609 11.9579
45.8546 11.8093
46.0484 11.585
46.2424 11.4548
46.4365 11.3057
46.631 11.142
46.8254 10.94
47.0199 10.7878
47.2146 10.673
47.4095 10.4409
47.6044 10.288
47.7996 10.1939
47.9948 10.0534
48.1902 9.92195
48.3858 9.75448
48.5815 9.62124
48.7774 9.44423
48.9734 9.33932
49.1696 9.21028
49.3661 9.06052
49.5626 8.89921
49.7592 8.75312
49.956 8.669
50.153 8.54765
50.3501 8.38513
50.5474 8.23393
50.7448 8.1358
50.9424 8.01605
51.1402 7.87377
51.3381 7.74396
51.5362 7.60908
51.7344 7.47741
51.9328 7.36013
52.1316 7.22732
52.3304 7.11503
52.5293 7.0034
52.7284 6.92921
52.9276 6.79988
53.1271 6.69309
53.3267 6.59926
53.5265 6.41434
53.7264 6.31304
53.9266 6.21375
54.1269 6.05707
54.3274 5.99456
54.528 5.83678
54.7289 5.61283
54.9301 5.43745
55.1314 5.33895
55.3328 5.1176
55.5344 4.94626
55.7361 4.78144

File: Ni3Fe_FD0160.xy
TT I
1.27165 8.28085
1.45013 6.36607
1.62863 5.44913
1.80712 5.30866
1.98562 5.26048
2.16411 4.8694
2.34263 4.4299
2.52115 4.13532
2.69965 5.82156
2.87818 8.18377
3.05672 11.2656
3.23527 15.1691
3.4138 18.6206
3.59237 21.8786
3.77094 24.9915
3.9495 28.416
4.12809 32.6373
4.30669 38.2542
4.4853 44.6275
4.6639 53.732
4.84253 65.6707
5.02118 90.7832
5.19981 537.879
5.37848 437.347
5.55716 107.095
5.73586 95.5842
5.91455 104.994
6.09328 2788.07
6.27201 88.9193
6.45075 66.9307
6.62952 60.1028
6.8083 55.7669
6.98711 53.547
7.16591 52.7002
7.34475 52.1657
7.5236 56.0056
7.70247 53.9689
7.88135 55.9294
8.06026 60.8051
8.23919 67.789
8.41812 83.7676
8.59709 897.528
8.77609 115.496
8.9551 85.4342
9.13412 81.2039
9.31318 85.8832
9.49226 83.6819
9.67134 88.7572
9.85047 98.7462
10.0296 542.743
10.2088 971.486
10.388 104.721
10.5672 336.58
10.7465 90.18
10.9257 75.9332
11.105 70.4367
11.2844 66.213
11.4637 63.4848
11.6431 62.52
11.8225 61.3943
12.002 64.9125
12.1814 119.438
12.3609 74.8373
12.5405 63.2757
12.72 65.178
12.8996 69.9342
13.0792 79.1236
13.2589 206.658
13.4386 206.919
13.6183 194.647
13.7981 153.182
13.9779 76.1617
14.1577 74.2461
14.3376 69.1657
14.5175 68.5677
14.6974 69.6865
14.8774 121.437
15.0574 205.335
15.2374 69.0922
15.4175 66.3252
15.5976 65.6675
15.7778 107.519
15.958 186.032
16.1382 61.6952
16.3185 57.4971
16.4988 55.0889
16.6792 54.1676
16.8596 54.4474
17.04 55.2521
17.2205 65.3129
17.401 80.8652
17.5815 59.1669
17.7622 61.1177
17.9428 83.6065
18.1237 115.935
18.3044 88.6027
18.4852 94.7703
18.666 61.0134
18.8469 58.3408
19.0278 56.8631
19.2088 61.7584
19.3898 69.4537
19.5709 56.2955
19.752 53.2502
19.9332 58.2744
20.1144 67.2857
20.2957 61.1999
20.477 59.0677
20.6586 50.0425
20.84 49.0568
21.0215 49.2087
21.203 49.9924
21.3846 50.6224
21.5662 49.0944
21.7479 54.2438
21.9297 62.4152
22.1115 56.4252
22.2933 52.4241
22.4753 48.976
22.6572 49.3004
22.8393 52.1826
23.0214 57.3645
23.2037 50.0909
23.3859 51.8871
23.5682 53.8518
23.7505 53.1428
23.9329 45.7493
24.1154 44.4638
24.2979 43.5981
24.4805 43.1499
24.6631 43.2554
24.8458 42.6743
25.0286 43.154
25.2114 44.6654
25.3943 44.9782
25.5773 41.91
25.7605 40.6905
25.9436 41.0784
26.1268 41.8389
26.31 40.99
26.4933 40.9896
26.6767 42.2275
26.8601 41.5063
27.0437 39.718
27.2272 39.0679
27.4109 38.747
27.5946 38.7351
27.7784 38.4924
27.9623 38.5943
28.1462 39.5649
28.3304 38.161
28.5145 36.3891
28.6987 36.0456
28.8829 35.6904
29.0673 35.2809
29.2517 34.6646
29.4361 34.3801
29.6207 33.613
29.8053 33.127
29.99 32.8579
30.1748 32.7005
30.3597 32.6376
30.5447 32.5443
30.7297 32.5376
30.915 32.2097
31.1002 31.465
31.2855 31.2218
31.4708 31.2014
31.6563 30.9677
31.8418 30.4773
32.0275 30.2332
32.2132 29.7896
32.399 29.2013
32.5848 28.7671
32.7708 28.3976
32.9569 28.3543
33.143 28.0911
33.3293 27.6524
33.5158 27.3418
33.7022 26.8735
33.8887 26.5438
34.0753 26.2798
34.262 25.8984
34.4488 25.6116
34.6357 25.1434
34.8227 24.8959
35.0098 24.8239
35.1969 24.4068
35.3842 24.2182
35.5716 24.0361
35.759 23.7176
35.9468 23.415
36.1345 23.1616
36.3222 22.9234
36.5101 22.5724
36.6981 22.3857
36.8861 21.9989
37.0743 21.7471
37.2626 21.4797
37.451 21.2265
37.6395 21.0792
37.8281 20.7082
38.0168 20.403
38.2056 20.1317
38.3945 19.8914
38.5837 19.626
38.7728 19.4314
38.9621 19.1361
39.1514 18.8342
39.3409 18.6671
39.5304 18.4596
39.7201 18.2233
39.9099 17.9755
40.0999 17.774
40.2899 17.5419
40.48 17.2356
40.6703 17.0647
40.8607 16.9127
41.0512 16.669
41.242 16.4283
41.4327 16.1877
41.6236 16.0272
41.8146 15.7694
42.0057 15.5377
42.1969 15.3682
42.3882 15.1679
42.5797 15.0273
42.7713 14.7358
42.963 14.5819
43.1549 14.3441
43.3468 14.1275
43.5389 13.9645
43.7312 13.7666
43.9237 13.6064
44.1162 13.4202
44.3088 13.1815
44.5016 12.9919
44.6945 12.8738
44.8875 12.6751
45.0806 12.4846
45.2739 12.3157
45.4673 12.1896
45.6609 11.9709
45.8546 11.7944
46.0484 11.6357
46.2424 11.4506
46.4365 11.2679
46.631 11.1377
46.8254 10.9833
47.0199 10.8239
47.2146 10.6475
47.4095 10.4972
47.6044 10.3137
47.7996 10.1747
47.9948 10.056
48.1902 9.86761
48.3858 9.76064
48.5815 9.59066
48.7774 9.49525
48.9734 9.33827
49.1696 9.24485
49.3661 9.05605
49.5626 8.8672
49.7592 8.77939
49.956 8.67085
50.153 8.49973
50.3501 8.39071
50.5474 8.29051
50.7448 8.15994
50.9424 8.01682
51.1402 7.88634
51.3381 7.74701
51.5362 7.63875
51.7344 7.51441
51.9328 7.40167
52.1316 7.21147
52.3304 7.1278
52.5293 7.01024
52.7284 6.90931
52.9276 6.77956
53.1271 6.71696
53.3267 6.6017
53.5265 6.45205
53.7264 6.29457
53.9266 6.25321
54.1269 6.07756
54.3274 5.95421
54.528 5.82261
54.7289 5.67081
54.9301 5.4815
55.1314 5.32954
55.3328 5.08739
55.5344 4.89372
55.7361 4.83712

File: Ni3Fe_FD0161.xy
TT I
1.27165 7.92982
1.45013 5.97873
1.62863 5.68107
1.80712 5.27394
1.98562 5.10959
2.16411 4.22992
2.34263 4.28449
2.52115 4.62526
2.69965 5.00475
2.87818 7.63703
3.05672 11.1761
3.23527 14.7917
3.4138 18.9581
3.59237 21.7735
3.77094 24.5179
3.9495 28.813
4.12809 32.7537
4.30669 37.9293
4.4853 45.3604
4.6639 53.8963
4.84253 66.7907
5.02118 91.0862
5.19981 543.836
5.37848 433.535
5.55716 107.555
5.73586 95.9238
5.91455 105.404
6.09328 2795.06
6.27201 88.723
6.45075 66.2237
6.62952 60.0701
6.8083 56.1768
6.98711 53.7903
7.16591 52.6819
7.34475 52.1664
7.5236 55.8494
7.70247 54.1891
7.88135 56.231
8.06026 60.755
8.23919 68.4321
8.41812 83.9293
8.59709 899.743
8.77609 115.42
8.9551 85.4015
9.13412 81.6847
9.31318 86.3091
9.49226 83.6147
9.67134 89.021
9.85047 98.9372
10.0296 542.97
10.2088 968.969
10.388 104.565
10.5672 338.187
10.7465 90.8114
10.9257 75.8604
11.105 70.3162
11.2844 66.5699
11.4637 63.7056
11.6431 62.3393
11.8225 61.049
12.002 65.3182
12.1814 119.513
12.3609 75.0543
12.5405 63.314
12.72 65.4398
12.8996 69.9507
13.0792 79.3807
13.2589 206.834
13.4386 204.887
13.6183 194.714
13.7981 151.876
13.9779 76.2145
14.1577 74.0621
14.3376 69.2503
14.5175 68.4258
14.6974 69.9569
14.8774 120.933
15.0574 204.909
15.2374 69.2043
15.4175 66.5572
15.5976 65.8027
15.7778 107.55
15.958 186.069
16.1382 61.94
16.3185 57.5821
16.4988 55.2114
16.6792 54.2954
16.8596 54.4261
17.04 55.3402
17.2205 65.6309
17.401 80.8357
17.5815 59.0608
17.7622 61.6093
17.9428 83.5522
18.1237 116.302
18.3044 88.3838
18.4852 94.4311
18.666 61.1825
18.8469 58.2717
19.0278 56.9387
19.2088 61.8641
19.3898 69.5036
19.5709 56.2342
19.752 53.5641
19.9332 58.4208
20.1144 67.4028
20.2957 61.3235
20.477 58.8764
20.6586 49.9282
20.84 49.3304
21.0215 49.1919
21.203 49.9262
21.3846 50.6078
21.5662 48.8503
21.7479 54.2101
21.9297 62.4609
22.1115 56.4768
22.2933 52.6021
22.4753 49.0567
22.6572 49.3786
22.8393 52.3388
23.0214 57.3055
23.2037 50.0246
23.3859 51.8346
23.5682 53.8131
23.7505 53.1476
23.9329 45.8361
24.1154 44.4269
24.2979 43.883
24.4805 43.265
24.6631 43.2393
24.8458 42.521
25.0286 43.2566
25.2114 44.8296
25.3943 45.0595
25.5773 41.7725
25.7605 40.9501
25.9436 41.0214
26.1268 41.7876
26.31 41.1175
26.4933 41.0355
26.6767 42.2768
26.8601 41.4031
27.0437 39.6869
27.2272 39.0373
27.4109 38.8423
27.5946 38.8508
27.7784 38.614
27.9623 38.6239
28.1462 39.6257
28.3304 38.2349
28.5145 36.4962
28.6987 36.1051
28.8829 35.5695
29.0673 35.2478
29.2517 34.8115
29.4361 34.3901
29.6207 33.5764
29.8053 33.198
29.99 32.8662
30.1748 32.6726
30.3597 32.7306
30.5447 32.4365
30.7297 32.4612
30.915 32.1525
31.1002 31.4682
31.2855 31.2165
31.4708 31.1278
31.6563 31.0176
31.8418 30.4155
32.0275 30.3604
32.2132 29.786
32.399 29.1902
32.5848 28.7966
32.7708 28.5043
32.9569 28.2775
33.143 28.0725
33.3293 27.7946
33.5158 27.3718
33.7022 26.9266
33.8887 26.5929
34.0753 26.3254
34.262 25.8895
34.4488 25.5852
34.6357 25.2245
34.8227 24.9018
35.0098 24.7656
35.1969 24.4119
35.3842 24.2393
35.5716 24.0323
35.759 23.7661
35.9468 23.3846
36.1345 23.1659
36.3222 22.8942
36.5101 22.6624
36.6981 22.4447
36.8861 22.0922
37.0743 21.6784
37.2626 21.4212
37.451 21.2904
37.6395 21.0466
37.8281 20.7171
38.0168 20.4472
38.2056 20.1234
38.3945 19.9137
38.5837 19.6139
38.7728 19.4438
38.9621 19.155
39.1514 18.8825
39.3409 18.5644
39.5304 18.4256
39.7201 18.314
39.9099 18.0652
40.0999 17.7901
40.2899 17.5557
40.48 17.3031
40.6703 17.0625
40.8607 16.9175
41.0512 16.661
41.242 16.4363
41.4327 16.2511
41.6236 15.9677
41.8146 15.8234
42.0057 15.5565
42.1969 15.3614
42.3882 15.1256
42.5797 14.943
42.7713 14.7436
42.963 14.5357
43.1549 14.3292
43.3468 14.1548
43.5389 13.9436
43.7312 13.8042
43.9237 13.5678
44.1162 13.4156
44.3088 13.2273
44.5016 13.0013
44.6945 12.8404
44.8875 12.6572
45.0806 12.5422
45.2739 12.3273
45.4673 12.1313
45.6609 11.9868
45.8546 11.8164
46.0484 11.6557
46.2424 11.4672
46.4365 11.3206
46.631 11.1393
46.8254 10.935
47.0199 10.7739
47.2146 10.681
47.4095 10.5084
47.6044 10.3333
47.7996 10.1629
47.9948 10.0306
48.1902 9.88128
48.3858 9.751
48.5815 9.64039
48.7774 9.49558
48.9734 9.35775
49.1696 9.24251
49.3661 9.04849
49.5626 8.91837
49.7592 8.80416
49.956 8.65603
50.153 8.54744
50.3501 8.38932
50.5474 8.25095
50.7448 8.1625
50.9424 8.01494
51.1402 7.90909
51.3381 7.72295
51.5362 7.58276
51.7344 7.47616
51.9328 7.36928
52.1316 7.27961
52.3304 7.17791
52.5293 7.00216
52.7284 6.92351
52.9276 6.79633
53.1271 6.65194
53.3267 6.56229
53.5265 6.47498
53.7264 6.32222
53.9266 6.17557
54.1269 6.11606
54.3274 5.95541
54.528 5.79715
54.7289 5.64383
54.9301 5.44384
55.1314 5.3347
55.3328 5.1613
55.5344 4.90131
55.7361 4.80762