Folder: NiFe_MOF_catalyst_paper/XRD (part 13)

File: Ni3Fe_FD0064.xy
TT I
1.27165 32.588
1.45013 25.0702
1.62863 21.4025
1.80712 19.8842
1.98562 19.6686
2.16411 19.3335
2.34263 18.7662
2.52115 21.061
2.69965 25.2712
2.87818 34.6592
3.05672 61.9979
3.23527 61.3254
3.4138 32.4218
3.59237 25.815
3.77094 25.2507
3.9495 26.9528
4.12809 29.5922
4.30669 37.4091
4.4853 37.9749
4.6639 44.3089
4.84253 56.9791
5.02118 106.002
5.19981 351.964
5.37848 2647.85
5.55716 146.468
5.73586 103.975
5.91455 123.525
6.09328 642.202
6.27201 190.985
6.45075 63.7745
6.62952 48.4412
6.8083 43.0406
6.98711 42.0943
7.16591 43.2083
7.34475 40.257
7.5236 68.3524
7.70247 43.7082
7.88135 40.2088
8.06026 42.2357
8.23919 48.3618
8.41812 62.3984
8.59709 207.469
8.77609 280.986
8.9551 74.1147
9.13412 67.1841
9.31318 278.666
9.49226 60.6625
9.67134 60.2484
9.85047 67.0269
10.0296 140.276
10.2088 709.387
10.388 93.7676
10.5672 104.583
10.7465 162.449
10.9257 52.6663
11.105 46.9666
11.2844 44.2017
11.4637 41.6958
11.6431 41.0963
11.8225 41.6558
12.002 114.342
12.1814 52.4224
12.3609 76.4847
12.5405 42.8633
12.72 41.4878
12.8996 43.3629
13.0792 51.3308
13.2589 71.8795
13.4386 186.239
13.6183 79.3463
13.7981 168.598
13.9779 53.8678
14.1577 73.9889
14.3376 47.0409
14.5175 43.365
14.6974 43.3927
14.8774 51.7347
15.0574 86.4311
15.2374 54.3967
15.4175 42.9056
15.5976 42.0442
15.7778 48.0274
15.958 70.8838
16.1382 67.4428
16.3185 38.5665
16.4988 35.9168
16.6792 34.8539
16.8596 35.1679
17.04 40.1829
17.2205 36.6706
17.401 43.3098
17.5815 38.4919
17.7622 39.9542
17.9428 42.3046
18.1237 47.604
18.3044 70.2531
18.4852 57.6767
18.666 45.1007
18.8469 37.5245
19.0278 36.2667
19.2088 36.7797
19.3898 47.4127
19.5709 42.0396
19.752 34.3609
19.9332 34.1736
20.1144 35.0898
20.2957 40.6347
20.477 39.2849
20.6586 32.9638
20.84 34.9915
21.0215 30.8255
21.203 30.6078
21.3846 32.0468
21.5662 31.5028
21.7479 31.455
21.9297 32.9364
22.1115 38.9932
22.2933 35.8364
22.4753 31.5132
22.6572 30.9476
22.8393 32.3938
23.0214 32.1408
23.2037 34.9321
23.3859 31.7439
23.5682 32.3254
23.7505 35.7343
23.9329 30.5852
24.1154 29.4361
24.2979 28.17
24.4805 27.6885
24.6631 28.0536
24.8458 27.433
25.0286 27.1157
25.2114 27.3266
25.3943 28.1978
25.5773 28.2976
25.7605 26.399
25.9436 26.4471
26.1268 25.9486
26.31 26.7354
26.4933 25.9079
26.6767 25.8474
26.8601 27.0114
27.0437 26.5758
27.2272 25.2576
27.4109 24.7636
27.5946 24.7495
27.7784 24.9171
27.9623 24.3802
28.1462 24.782
28.3304 24.9633
28.5145 24.1838
28.6987 23.3654
28.8829 22.8315
29.0673 22.7499
29.2517 22.4412
29.4361 22.077
29.6207 21.8927
29.8053 21.557
29.99 21.2654
30.1748 21.0829
30.3597 21.0995
30.5447 20.9374
30.7297 20.7008
30.915 20.8921
31.1002 20.7149
31.2855 20.2987
31.4708 20.1035
31.6563 20.0866
31.8418 19.8431
32.0275 19.5995
32.2132 19.6756
32.399 19.2621
32.5848 18.8581
32.7708 18.6402
32.9569 18.5748
33.143 18.249
33.3293 18.0871
33.5158 18.0145
33.7022 17.6968
33.8887 17.4902
34.0753 17.2864
34.262 17.0095
34.4488 16.8542
34.6357 16.6671
34.8227 16.4435
35.0098 16.218
35.1969 16.0703
35.3842 15.8454
35.5716 15.7776
35.759 15.6858
35.9468 15.4836
36.1345 15.2943
36.3222 15.1351
36.5101 15.0658
36.6981 14.7558
36.8861 14.6079
37.0743 14.382
37.2626 14.2574
37.451 14.0223
37.6395 13.905
37.8281 13.7145
38.0168 13.605
38.2056 13.4402
38.3945 13.1903
38.5837 13.0595
38.7728 12.9038
38.9621 12.7624
39.1514 12.5759
39.3409 12.4931
39.5304 12.3107
39.7201 12.1978
39.9099 12.018
40.0999 11.8836
40.2899 11.7535
40.48 11.604
40.6703 11.4902
40.8607 11.3202
41.0512 11.2109
41.242 11.0504
41.4327 10.866
41.6236 10.7748
41.8146 10.639
42.0057 10.4907
42.1969 10.3068
42.3882 10.2203
42.5797 10.0995
42.7713 9.98134
42.963 9.84648
43.1549 9.69023
43.3468 9.52451
43.5389 9.41937
43.7312 9.30751
43.9237 9.23396
44.1162 9.06553
44.3088 8.93807
44.5016 8.86633
44.6945 8.72213
44.8875 8.57473
45.0806 8.49598
45.2739 8.3418
45.4673 8.22577
45.6609 8.14881
45.8546 8.04513
46.0484 7.93626
46.2424 7.82676
46.4365 7.76233
46.631 7.57559
46.8254 7.47863
47.0199 7.36272
47.2146 7.31066
47.4095 7.15465
47.6044 7.08404
47.7996 6.95263
47.9948 6.8476
48.1902 6.81832
48.3858 6.64769
48.5815 6.61615
48.7774 6.52146
48.9734 6.39841
49.1696 6.3151
49.3661 6.20874
49.5626 6.11762
49.7592 6.04276
49.956 5.96129
50.153 5.89564
50.3501 5.78904
50.5474 5.73218
50.7448 5.62675
50.9424 5.55066
51.1402 5.44922
51.3381 5.37221
51.5362 5.30422
51.7344 5.19275
51.9328 5.14957
52.1316 5.05415
52.3304 4.98328
52.5293 4.88474
52.7284 4.78753
52.9276 4.75724
53.1271 4.6946
53.3267 4.6017
53.5265 4.47872
53.7264 4.40472
53.9266 4.34569
54.1269 4.23501
54.3274 4.14248
54.528 4.05468
54.7289 3.9065
54.9301 3.80973
55.1314 3.7044
55.3328 3.56513
55.5344 3.38405
55.7361 3.27144

File: Ni3Fe_FD0065.xy
TT I
1.27165 31.407
1.45013 25.1286
1.62863 21.1545
1.80712 19.8174
1.98562 19.5117
2.16411 19.2102
2.34263 19.4147
2.52115 20.0771
2.69965 24.7758
2.87818 35.319
3.05672 62.0043
3.23527 59.9481
3.4138 32.2861
3.59237 26.2511
3.77094 25.4261
3.9495 26.6434
4.12809 29.5809
4.30669 37.3725
4.4853 38.1965
4.6639 44.5067
4.84253 57.0506
5.02118 105.912
5.19981 359.817
5.37848 2601.63
5.55716 146.741
5.73586 104.315
5.91455 124.165
6.09328 655.363
6.27201 188.99
6.45075 63.9503
6.62952 48.8502
6.8083 43.1948
6.98711 42.2718
7.16591 42.9926
7.34475 40.4261
7.5236 69.7006
7.70247 44.0487
7.88135 40.1146
8.06026 42.7458
8.23919 48.6926
8.41812 63.0957
8.59709 212.38
8.77609 274.911
8.9551 74.4052
9.13412 67.9013
9.31318 272.842
9.49226 61.4381
9.67134 60.9427
9.85047 67.8909
10.0296 144.463
10.2088 713.248
10.388 93.3878
10.5672 106.164
10.7465 159.934
10.9257 53.136
11.105 47.0599
11.2844 44.5581
11.4637 42.2292
11.6431 41.3424
11.8225 41.8163
12.002 113.76
12.1814 53.0106
12.3609 75.9594
12.5405 43.1433
12.72 41.9046
12.8996 43.9199
13.0792 51.7997
13.2589 72.7877
13.4386 186.179
13.6183 79.6211
13.7981 167.029
13.9779 53.8501
14.1577 75.1067
14.3376 47.1556
14.5175 43.6296
14.6974 43.6128
14.8774 52.4383
15.0574 87.537
15.2374 54.0274
15.4175 43.0832
15.5976 42.3562
15.7778 48.7287
15.958 71.9315
16.1382 66.4429
16.3185 38.7999
16.4988 36.068
16.6792 35.072
16.8596 35.1534
17.04 39.9981
17.2205 36.9879
17.401 43.5489
17.5815 38.6236
17.7622 40.2825
17.9428 42.5808
18.1237 47.8718
18.3044 69.3548
18.4852 58.1851
18.666 44.9067
18.8469 37.6544
19.0278 36.4439
19.2088 36.9062
19.3898 47.2718
19.5709 41.9916
19.752 34.7125
19.9332 34.4337
20.1144 35.3358
20.2957 40.5803
20.477 39.6209
20.6586 32.9358
20.84 35.151
21.0215 31.0183
21.203 30.8644
21.3846 32.1143
21.5662 31.6641
21.7479 31.6676
21.9297 33.0936
22.1115 38.9136
22.2933 35.8436
22.4753 31.5927
22.6572 31.0544
22.8393 32.4531
23.0214 32.34
23.2037 35.0394
23.3859 32.01
23.5682 32.2512
23.7505 35.7914
23.9329 30.7409
24.1154 29.3391
24.2979 28.2539
24.4805 27.7557
24.6631 28.2507
24.8458 27.5093
25.0286 27.0855
25.2114 27.4177
25.3943 28.1915
25.5773 28.3096
25.7605 26.4473
25.9436 26.5179
26.1268 26.0389
26.31 26.6933
26.4933 25.8436
26.6767 25.9761
26.8601 27.1543
27.0437 26.7031
27.2272 25.2138
27.4109 24.9221
27.5946 25.0135
27.7784 25.0181
27.9623 24.5217
28.1462 24.8078
28.3304 24.8932
28.5145 24.0113
28.6987 23.4322
28.8829 23.0465
29.0673 22.7998
29.2517 22.3942
29.4361 22.1052
29.6207 21.9419
29.8053 21.567
29.99 21.3533
30.1748 21.3655
30.3597 21.0767
30.5447 21.004
30.7297 20.7902
30.915 20.9677
31.1002 20.8089
31.2855 20.3083
31.4708 20.1347
31.6563 20.1163
31.8418 19.9328
32.0275 19.7048
32.2132 19.6216
32.399 19.3172
32.5848 19.0063
32.7708 18.658
32.9569 18.6737
33.143 18.2788
33.3293 18.0694
33.5158 18.0748
33.7022 17.6769
33.8887 17.5169
34.0753 17.3331
34.262 17.0807
34.4488 16.8648
34.6357 16.6073
34.8227 16.4817
35.0098 16.3186
35.1969 16.0864
35.3842 15.9606
35.5716 15.7967
35.759 15.7728
35.9468 15.4171
36.1345 15.3529
36.3222 15.1745
36.5101 15.0239
36.6981 14.7283
36.8861 14.6259
37.0743 14.4642
37.2626 14.2137
37.451 14.0307
37.6395 13.9687
37.8281 13.7541
38.0168 13.6052
38.2056 13.4298
38.3945 13.2447
38.5837 13.0757
38.7728 12.9178
38.9621 12.8723
39.1514 12.6719
39.3409 12.4899
39.5304 12.3583
39.7201 12.2246
39.9099 12.0643
40.0999 11.945
40.2899 11.8009
40.48 11.6088
40.6703 11.4662
40.8607 11.3157
41.0512 11.2024
41.242 11.0347
41.4327 10.9533
41.6236 10.7773
41.8146 10.6646
42.0057 10.5156
42.1969 10.4043
42.3882 10.2671
42.5797 10.117
42.7713 9.96767
42.963 9.78233
43.1549 9.70492
43.3468 9.58044
43.5389 9.47996
43.7312 9.33754
43.9237 9.25775
44.1162 9.10697
44.3088 8.93349
44.5016 8.84022
44.6945 8.73449
44.8875 8.59182
45.0806 8.46785
45.2739 8.38481
45.4673 8.28257
45.6609 8.16314
45.8546 8.04613
46.0484 7.94797
46.2424 7.8617
46.4365 7.73831
46.631 7.59396
46.8254 7.49639
47.0199 7.38427
47.2146 7.34002
47.4095 7.2138
47.6044 7.0888
47.7996 6.96795
47.9948 6.86221
48.1902 6.78569
48.3858 6.71337
48.5815 6.5978
48.7774 6.50217
48.9734 6.4434
49.1696 6.35575
49.3661 6.21923
49.5626 6.12985
49.7592 6.05254
49.956 5.95026
50.153 5.88363
50.3501 5.80059
50.5474 5.73216
50.7448 5.64959
50.9424 5.56338
51.1402 5.46362
51.3381 5.37256
51.5362 5.3192
51.7344 5.24073
51.9328 5.12867
52.1316 5.05083
52.3304 4.98183
52.5293 4.91661
52.7284 4.8621
52.9276 4.72089
53.1271 4.67387
53.3267 4.59578
53.5265 4.51422
53.7264 4.47185
53.9266 4.3385
54.1269 4.29513
54.3274 4.16733
54.528 4.05614
54.7289 3.92064
54.9301 3.81894
55.1314 3.71007
55.3328 3.52667
55.5344 3.41903
55.7361 3.33054

File: Ni3Fe_FD0066.xy
TT I
1.27165 30.5913
1.45013 25.0371
1.62863 21.5726
1.80712 19.362
1.98562 19.1727
2.16411 19.3203
2.34263 19.4481
2.52115 19.6958
2.69965 24.4732
2.87818 34.5392
3.05672 60.3207
3.23527 58.9637
3.4138 31.3662
3.59237 25.6862
3.77094 25.4695
3.9495 26.5619
4.12809 29.3243
4.30669 37.3621
4.4853 38.3285
4.6639 44.6215
4.84253 57.3752
5.02118 105.687
5.19981 366.682
5.37848 2549.87
5.55716 145.117
5.73586 104.005
5.91455 124.018
6.09328 667.666
6.27201 186.288
6.45075 63.9584
6.62952 48.5537
6.8083 43.0897
6.98711 42.3232
7.16591 43.1783
7.34475 40.4616
7.5236 70.1659
7.70247 43.9119
7.88135 40.5047
8.06026 43.1004
8.23919 48.6481
8.41812 63.2261
8.59709 216.496
8.77609 268.122
8.9551 74.0176
9.13412 67.6323
9.31318 264.892
9.49226 61.5743
9.67134 61.3287
9.85047 68.0829
10.0296 149.008
10.2088 717.463
10.388 93.0815
10.5672 106.362
10.7465 155.99
10.9257 53.3084
11.105 47.0677
11.2844 44.4383
11.4637 42.123
11.6431 41.3633
11.8225 42.1974
12.002 112.584
12.1814 53.0544
12.3609 75.3302
12.5405 43.0081
12.72 41.6716
12.8996 43.8674
13.0792 52.2769
13.2589 73.6455
13.4386 185.969
13.6183 79.7943
13.7981 165.751
13.9779 53.9946
14.1577 75.5995
14.3376 47.2564
14.5175 43.6992
14.6974 43.8178
14.8774 52.948
15.0574 88.5948
15.2374 53.5077
15.4175 43.1623
15.5976 42.3023
15.7778 49.0283
15.958 72.6975
16.1382 65.3775
16.3185 38.9329
16.4988 36.1822
16.6792 35.1393
16.8596 35.4063
17.04 39.6854
17.2205 37.1792
17.401 43.8374
17.5815 38.4945
17.7622 40.3576
17.9428 42.6997
18.1237 48.2266
18.3044 68.4094
18.4852 58.3361
18.666 44.4247
18.8469 37.8057
19.0278 36.4318
19.2088 36.9147
19.3898 47.0928
19.5709 41.6471
19.752 34.6994
19.9332 34.3144
20.1144 35.2727
20.2957 40.0987
20.477 39.5202
20.6586 33.0029
20.84 34.9359
21.0215 31.1047
21.203 30.7657
21.3846 32.1595
21.5662 31.5416
21.7479 31.7269
21.9297 33.0445
22.1115 38.5539
22.2933 35.6601
22.4753 31.5963
22.6572 31.0004
22.8393 32.4736
23.0214 32.3567
23.2037 34.7172
23.3859 31.9584
23.5682 32.2407
23.7505 35.6108
23.9329 30.5278
24.1154 29.411
24.2979 28.2031
24.4805 27.8394
24.6631 28.2114
24.8458 27.4752
25.0286 27.1724
25.2114 27.4426
25.3943 28.1379
25.5773 28.2025
25.7605 26.4565
25.9436 26.3939
26.1268 26.052
26.31 26.7707
26.4933 25.9072
26.6767 25.9588
26.8601 27.0387
27.0437 26.5246
27.2272 25.273
27.4109 24.8366
27.5946 24.765
27.7784 24.9378
27.9623 24.4282
28.1462 24.927
28.3304 24.9077
28.5145 24.0822
28.6987 23.4582
28.8829 22.9678
29.0673 22.892
29.2517 22.4712
29.4361 22.0701
29.6207 21.9886
29.8053 21.5322
29.99 21.3112
30.1748 21.2908
30.3597 21.1714
30.5447 20.924
30.7297 20.8336
30.915 20.9241
31.1002 20.7061
31.2855 20.3373
31.4708 20.0949
31.6563 20.1183
31.8418 19.8829
32.0275 19.6865
32.2132 19.6066
32.399 19.2892
32.5848 18.8903
32.7708 18.7147
32.9569 18.6414
33.143 18.3321
33.3293 18.1392
33.5158 18.0871
33.7022 17.6024
33.8887 17.4894
34.0753 17.3184
34.262 17.0603
34.4488 16.8491
34.6357 16.6617
34.8227 16.4627
35.0098 16.2853
35.1969 16.1031
35.3842 15.8848
35.5716 15.7156
35.759 15.7249
35.9468 15.4268
36.1345 15.2921
36.3222 15.1413
36.5101 14.9692
36.6981 14.8081
36.8861 14.6818
37.0743 14.3941
37.2626 14.2991
37.451 14.1076
37.6395 13.9852
37.8281 13.7365
38.0168 13.5602
38.2056 13.3816
38.3945 13.2424
38.5837 13.0853
38.7728 12.9197
38.9621 12.777
39.1514 12.6508
39.3409 12.5217
39.5304 12.3303
39.7201 12.1736
39.9099 12.0239
40.0999 11.9228
40.2899 11.7673
40.48 11.5551
40.6703 11.4626
40.8607 11.3509
41.0512 11.167
41.242 11.0224
41.4327 10.8691
41.6236 10.7559
41.8146 10.6497
42.0057 10.4826
42.1969 10.3468
42.3882 10.2176
42.5797 10.0422
42.7713 9.95811
42.963 9.77169
43.1549 9.73886
43.3468 9.56261
43.5389 9.48728
43.7312 9.28192
43.9237 9.20839
44.1162 9.05432
44.3088 8.97576
44.5016 8.82398
44.6945 8.70324
44.8875 8.61819
45.0806 8.43697
45.2739 8.36214
45.4673 8.22377
45.6609 8.15139
45.8546 8.04598
46.0484 7.9205
46.2424 7.79571
46.4365 7.73267
46.631 7.61365
46.8254 7.49091
47.0199 7.39606
47.2146 7.28664
47.4095 7.20167
47.6044 7.07187
47.7996 6.99431
47.9948 6.87367
48.1902 6.79258
48.3858 6.6799
48.5815 6.62669
48.7774 6.51855
48.9734 6.42634
49.1696 6.30858
49.3661 6.23148
49.5626 6.13555
49.7592 6.02439
49.956 5.9629
50.153 5.89984
50.3501 5.79216
50.5474 5.71203
50.7448 5.61875
50.9424 5.54377
51.1402 5.44056
51.3381 5.37518
51.5362 5.28249
51.7344 5.20689
51.9328 5.10339
52.1316 5.03608
52.3304 4.94733
52.5293 4.90296
52.7284 4.81568
52.9276 4.73811
53.1271 4.68554
53.3267 4.56984
53.5265 4.50492
53.7264 4.44452
53.9266 4.34427
54.1269 4.25768
54.3274 4.14144
54.528 4.03727
54.7289 3.87946
54.9301 3.77691
55.1314 3.72555
55.3328 3.54531
55.5344 3.41148
55.7361 3.33932

File: Ni3Fe_FD0067.xy
TT I
1.27165 30.3944
1.45013 24.7463
1.62863 20.5822
1.80712 19.4243
1.98562 18.9412
2.16411 18.2617
2.34263 19.1421
2.52115 19.7168
2.69965 23.3413
2.87818 33.6123
3.05672 58.5496
3.23527 56.1106
3.4138 30.6288
3.59237 25.766
3.77094 25.0515
3.9495 26.9271
4.12809 29.549
4.30669 36.9805
4.4853 38.0812
4.6639 44.5911
4.84253 57.38
5.02118 105.708
5.19981 376.202
5.37848 2475.91
5.55716 144.226
5.73586 104.237
5.91455 124.587
6.09328 683.075
6.27201 182.585
6.45075 63.4447
6.62952 48.7976
6.8083 43.0696
6.98711 42.3957
7.16591 42.7653
7.34475 40.3573
7.5236 71.3955
7.70247 43.5254
7.88135 40.2429
8.06026 42.8895
8.23919 49.2616
8.41812 63.5826
8.59709 222.407
8.77609 259.508
8.9551 73.7231
9.13412 67.6037
9.31318 255.118
9.49226 61.5854
9.67134 61.3418
9.85047 68.4295
10.0296 155.091
10.2088 720.03
10.388 92.252
10.5672 107.615
10.7465 151.179
10.9257 53.322
11.105 47.5258
11.2844 44.8607
11.4637 42.1866
11.6431 41.593
11.8225 42.2988
12.002 110.864
12.1814 53.5423
12.3609 74.7354
12.5405 43.2414
12.72 42.0213
12.8996 43.9382
13.0792 52.6214
13.2589 74.4291
13.4386 185.607
13.6183 79.9244
13.7981 163.626
13.9779 53.905
14.1577 76.6219
14.3376 47.1766
14.5175 43.9549
14.6974 43.8606
14.8774 53.5041
15.0574 90.1355
15.2374 53.1454
15.4175 43.3196
15.5976 42.4995
15.7778 49.6697
15.958 73.4213
16.1382 63.6973
16.3185 38.6768
16.4988 36.215
16.6792 35.3068
16.8596 35.428
17.04 39.5745
17.2205 37.2154
17.401 44.1668
17.5815 38.5975
17.7622 40.591
17.9428 43.0293
18.1237 48.3126
18.3044 67.2185
18.4852 58.2668
18.666 44.1423
18.8469 37.7537
19.0278 36.5344
19.2088 37.2071
19.3898 47.1919
19.5709 41.5391
19.752 34.541
19.9332 34.6612
20.1144 35.532
20.2957 39.9647
20.477 39.521
20.6586 32.8911
20.84 34.869
21.0215 31.188
21.203 30.9469
21.3846 32.1724
21.5662 31.6182
21.7479 31.89
21.9297 33.163
22.1115 38.4499
22.2933 35.408
22.4753 31.516
22.6572 31.1417
22.8393 32.406
23.0214 32.4499
23.2037 34.5671
23.3859 32.0917
23.5682 32.1775
23.7505 35.6749
23.9329 30.4448
24.1154 29.363
24.2979 28.2628
24.4805 27.7864
24.6631 28.1937
24.8458 27.5183
25.0286 27.225
25.2114 27.3888
25.3943 28.0082
25.5773 28.1884
25.7605 26.4543
25.9436 26.325
26.1268 26.0756
26.31 26.7875
26.4933 25.9074
26.6767 25.9149
26.8601 27.003
27.0437 26.4949
27.2272 25.1506
27.4109 24.8489
27.5946 24.8653
27.7784 24.851
27.9623 24.5605
28.1462 24.8751
28.3304 24.8697
28.5145 23.9549
28.6987 23.3211
28.8829 22.9207
29.0673 22.7591
29.2517 22.3432
29.4361 22.127
29.6207 21.938
29.8053 21.5527
29.99 21.2676
30.1748 21.3387
30.3597 21.1011
30.5447 20.9159
30.7297 20.7702
30.915 20.8428
31.1002 20.7997
31.2855 20.246
31.4708 20.0249
31.6563 20.0833
31.8418 19.8335
32.0275 19.6259
32.2132 19.534
32.399 19.2601
32.5848 18.8444
32.7708 18.6185
32.9569 18.5043
33.143 18.304
33.3293 18.1019
33.5158 17.9721
33.7022 17.66
33.8887 17.4433
34.0753 17.256
34.262 16.9603
34.4488 16.8319
34.6357 16.6399
34.8227 16.4061
35.0098 16.277
35.1969 16.062
35.3842 15.8557
35.5716 15.7671
35.759 15.6611
35.9468 15.4484
36.1345 15.2621
36.3222 15.1594
36.5101 15.0005
36.6981 14.7858
36.8861 14.5434
37.0743 14.3123
37.2626 14.146
37.451 14.0324
37.6395 13.9817
37.8281 13.6982
38.0168 13.5798
38.2056 13.3264
38.3945 13.204
38.5837 13.06
38.7728 12.9037
38.9621 12.7849
39.1514 12.616
39.3409 12.4096
39.5304 12.2942
39.7201 12.1915
39.9099 12.0285
40.0999 11.8299
40.2899 11.754
40.48 11.5665
40.6703 11.4226
40.8607 11.3342
41.0512 11.204
41.242 10.9679
41.4327 10.8433
41.6236 10.7381
41.8146 10.5913
42.0057 10.4777
42.1969 10.3223
42.3882 10.1999
42.5797 10.058
42.7713 9.91663
42.963 9.80504
43.1549 9.70697
43.3468 9.56252
43.5389 9.45323
43.7312 9.27792
43.9237 9.14802
44.1162 9.03485
44.3088 8.90972
44.5016 8.74385
44.6945 8.73053
44.8875 8.5618
45.0806 8.44469
45.2739 8.3673
45.4673 8.22007
45.6609 8.14619
45.8546 8.01583
46.0484 7.92104
46.2424 7.77822
46.4365 7.67464
46.631 7.57684
46.8254 7.43015
47.0199 7.35581
47.2146 7.26684
47.4095 7.11261
47.6044 7.02881
47.7996 6.93843
47.9948 6.89273
48.1902 6.76135
48.3858 6.6386
48.5815 6.58621
48.7774 6.47479
48.9734 6.38791
49.1696 6.29279
49.3661 6.19046
49.5626 6.11534
49.7592 6.0282
49.956 5.95606
50.153 5.83028
50.3501 5.77189
50.5474 5.66513
50.7448 5.5851
50.9424 5.52992
51.1402 5.47117
51.3381 5.37774
51.5362 5.28448
51.7344 5.19252
51.9328 5.09648
52.1316 5.0009
52.3304 4.95525
52.5293 4.88766
52.7284 4.76278
52.9276 4.70216
53.1271 4.65528
53.3267 4.61017
53.5265 4.49891
53.7264 4.41222
53.9266 4.35891
54.1269 4.2671
54.3274 4.15317
54.528 4.01059
54.7289 3.89545
54.9301 3.77678
55.1314 3.66061
55.3328 3.5268
55.5344 3.35066
55.7361 3.25468

File: Ni3Fe_FD0068.xy
TT I
1.27165 29.6586
1.45013 24.0764
1.62863 20.6605
1.80712 18.7687
1.98562 17.1436
2.16411 18.0581
2.34263 17.8616
2.52115 19.5041
2.69965 22.2666
2.87818 32.0623
3.05672 56.135
3.23527 54.4429
3.4138 29.4219
3.59237 25.0442
3.77094 24.8194
3.9495 26.1489
4.12809 28.99
4.30669 36.9106
4.4853 37.8482
4.6639 44.3464
4.84253 57.6356
5.02118 105.128
5.19981 385.218
5.37848 2415.99
5.55716 142.739
5.73586 102.966
5.91455 124.599
6.09328 697.698
6.27201 179.191
6.45075 63.118
6.62952 48.4648
6.8083 43.2705
6.98711 42.1026
7.16591 42.6513
7.34475 40.5705
7.5236 71.3573
7.70247 43.3248
7.88135 40.7436
8.06026 42.919
8.23919 48.9784
8.41812 63.6464
8.59709 228.33
8.77609 253.441
8.9551 73.66
9.13412 67.6741
9.31318 245.425
9.49226 61.2496
9.67134 61.4692
9.85047 68.6045
10.0296 162.157
10.2088 727.445
10.388 91.932
10.5672 108.322
10.7465 147.002
10.9257 53.3197
11.105 47.5953
11.2844 44.6549
11.4637 42.2963
11.6431 41.6834
11.8225 42.3197
12.002 108.571
12.1814 53.7944
12.3609 74.0481
12.5405 43.2021
12.72 42.231
12.8996 44.0564
13.0792 53.088
13.2589 75.4432
13.4386 186.195
13.6183 80.2418
13.7981 163.111
13.9779 53.7949
14.1577 76.7318
14.3376 47.0177
14.5175 44.3021
14.6974 44.2253
14.8774 54.2428
15.0574 91.0987
15.2374 52.6534
15.4175 43.372
15.5976 42.6598
15.7778 50.2862
15.958 74.157
16.1382 62.5349
16.3185 38.7827
16.4988 36.067
16.6792 35.1516
16.8596 35.3127
17.04 39.103
17.2205 37.3296
17.401 44.335
17.5815 38.6744
17.7622 40.6777
17.9428 43.4895
18.1237 48.5089
18.3044 66.6534
18.4852 58.6439
18.666 43.8498
18.8469 37.8354
19.0278 36.4938
19.2088 37.233
19.3898 46.7963
19.5709 41.2109
19.752 34.577
19.9332 34.6423
20.1144 35.6584
20.2957 39.9412
20.477 39.5819
20.6586 32.8404
20.84 34.8522
21.0215 31.1318
21.203 30.883
21.3846 32.1377
21.5662 31.6788
21.7479 32.015
21.9297 33.165
22.1115 38.506
22.2933 35.4987
22.4753 31.581
22.6572 31.0141
22.8393 32.4299
23.0214 32.3919
23.2037 34.4548
23.3859 31.9821
23.5682 32.1635
23.7505 35.7615
23.9329 30.4109
24.1154 29.2185
24.2979 28.2349
24.4805 27.792
24.6631 28.1999
24.8458 27.5067
25.0286 27.3014
25.2114 27.435
25.3943 27.9982
25.5773 28.0119
25.7605 26.4773
25.9436 26.3634
26.1268 26.0019
26.31 26.644
26.4933 25.8879
26.6767 25.7714
26.8601 26.9338
27.0437 26.343
27.2272 25.2396
27.4109 24.8291
27.5946 24.7947
27.7784 24.8273
27.9623 24.5125
28.1462 24.7428
28.3304 24.784
28.5145 23.9462
28.6987 23.3261
28.8829 22.8936
29.0673 22.7377
29.2517 22.3765
29.4361 22.0788
29.6207 21.9665
29.8053 21.5645
29.99 21.3235
30.1748 21.1613
30.3597 20.9963
30.5447 20.86
30.7297 20.7171
30.915 20.8481
31.1002 20.6571
31.2855 20.1992
31.4708 20.0183
31.6563 19.9873
31.8418 19.809
32.0275 19.4973
32.2132 19.5331
32.399 19.189
32.5848 18.7825
32.7708 18.5707
32.9569 18.4501
33.143 18.2387
33.3293 18.0622
33.5158 17.9303
33.7022 17.5765
33.8887 17.4365
34.0753 17.2502
34.262 16.9722
34.4488 16.8095
34.6357 16.5957
34.8227 16.3211
35.0098 16.257
35.1969 16.0825
35.3842 15.8572
35.5716 15.7628
35.759 15.6168
35.9468 15.3696
36.1345 15.181
36.3222 15.0815
36.5101 14.9433
36.6981 14.7549
36.8861 14.5175
37.0743 14.3492
37.2626 14.1931
37.451 14.0635
37.6395 13.8974
37.8281 13.6781
38.0168 13.4731
38.2056 13.3617
38.3945 13.1581
38.5837 12.9961
38.7728 12.8947
38.9621 12.7075
39.1514 12.5321
39.3409 12.329
39.5304 12.2439
39.7201 12.1209
39.9099 11.9791
40.0999 11.834
40.2899 11.7058
40.48 11.5253
40.6703 11.3626
40.8607 11.2769
41.0512 11.1117
41.242 10.9726
41.4327 10.8465
41.6236 10.6929
41.8146 10.5392
42.0057 10.4493
42.1969 10.277
42.3882 10.1776
42.5797 10.0234
42.7713 9.94244
42.963 9.73598
43.1549 9.6233
43.3468 9.47837
43.5389 9.32644
43.7312 9.2597
43.9237 9.13154
44.1162 9.01156
44.3088 8.89981
44.5016 8.79996
44.6945 8.67277
44.8875 8.54302
45.0806 8.4347
45.2739 8.32573
45.4673 8.2079
45.6609 8.0813
45.8546 7.99768
46.0484 7.88544
46.2424 7.72279
46.4365 7.64911
46.631 7.54464
46.8254 7.40896
47.0199 7.31002
47.2146 7.19741
47.4095 7.13225
47.6044 7.00488
47.7996 6.88424
47.9948 6.81474
48.1902 6.70762
48.3858 6.64967
48.5815 6.55735
48.7774 6.43967
48.9734 6.3853
49.1696 6.28148
49.3661 6.18054
49.5626 6.07738
49.7592 5.99143
49.956 5.90797
50.153 5.82144
50.3501 5.72435
50.5474 5.63865
50.7448 5.57923
50.9424 5.52482
51.1402 5.42263
51.3381 5.34237
51.5362 5.24589
51.7344 5.17449
51.9328 5.10016
52.1316 4.97856
52.3304 4.94265
52.5293 4.83129
52.7284 4.76022
52.9276 4.67348
53.1271 4.64593
53.3267 4.56031
53.5265 4.47183
53.7264 4.40434
53.9266 4.29523
54.1269 4.23404
54.3274 4.16143
54.528 4.02517
54.7289 3.87531
54.9301 3.75493
55.1314 3.66538
55.3328 3.46068
55.5344 3.34712
55.7361 3.27208