Folder: NiFe_MOF_catalyst_paper/XRD (part 148)

File: Ni3Fe_FD0803.xy
TT I
1.27165 6.8186
1.45013 6.30883
1.62863 5.63033
1.80712 4.94632
1.98562 4.53341
2.16411 4.92698
2.34263 5.94465
2.52115 7.01877
2.69965 8.04157
2.87818 9.20214
3.05672 10.9728
3.23527 15.1571
3.4138 18.5623
3.59237 23.4095
3.77094 26.1246
3.9495 29.4901
4.12809 33.9589
4.30669 121.549
4.4853 55.662
4.6639 55.4546
4.84253 68.2164
5.02118 86.4453
5.19981 389.061
5.37848 184.153
5.55716 101.555
5.73586 92.084
5.91455 94.6166
6.09328 4595.11
6.27201 79.9016
6.45075 68.5326
6.62952 62.2541
6.8083 58.4822
6.98711 55.6207
7.16591 55.4363
7.34475 71.2223
7.5236 54.3027
7.70247 55.9939
7.88135 57.1934
8.06026 62.0642
8.23919 68.9254
8.41812 83.5656
8.59709 1215.41
8.77609 96.9465
8.9551 88.9824
9.13412 82.3367
9.31318 83.5193
9.49226 84.009
9.67134 94.9876
9.85047 99.8887
10.0296 344.937
10.2088 339.247
10.388 104.09
10.5672 539.637
10.7465 85.3338
10.9257 77.398
11.105 70.8653
11.2844 68.4625
11.4637 64.2428
11.6431 62.8103
11.8225 61.8526
12.002 63.5788
12.1814 158.193
12.3609 66.5447
12.5405 64.256
12.72 67.5697
12.8996 70.9073
13.0792 79.3734
13.2589 249.282
13.4386 116.623
13.6183 258.275
13.7981 92.3032
13.9779 75.2772
14.1577 71.1715
14.3376 69.7616
14.5175 68.5405
14.6974 70.1853
14.8774 111.745
15.0574 139.438
15.2374 69.0757
15.4175 65.7191
15.5976 65.272
15.7778 95.1885
15.958 144.267
16.1382 60.8441
16.3185 57.4924
16.4988 54.7641
16.6792 53.8088
16.8596 54.5391
17.04 55.6931
17.2205 66.757
17.401 68.5667
17.5815 58.5573
17.7622 60.6903
17.9428 73.2017
18.1237 141.201
18.3044 91.4753
18.4852 73.7078
18.666 59.638
18.8469 57.4118
19.0278 56.1804
19.2088 58.6804
19.3898 75.3316
19.5709 53.5661
19.752 52.7507
19.9332 55.8557
20.1144 69.5577
20.2957 64.05
20.477 52.5087
20.6586 49.1226
20.84 48.2432
21.0215 48.1695
21.203 50.4536
21.3846 48.2498
21.5662 48.6498
21.7479 52.2937
21.9297 64.3581
22.1115 55.6675
22.2933 49.1034
22.4753 48.2287
22.6572 48.4599
22.8393 51.7051
23.0214 56.2948
23.2037 48.3266
23.3859 49.2311
23.5682 56.9989
23.7505 47.3278
23.9329 44.6529
24.1154 43.4881
24.2979 43.036
24.4805 42.5985
24.6631 42.2621
24.8458 41.8009
25.0286 42.4659
25.2114 44.1263
25.3943 44.0653
25.5773 40.3311
25.7605 39.995
25.9436 40.4238
26.1268 41.2665
26.31 39.5971
26.4933 40.4177
26.6767 41.7164
26.8601 40.0193
27.0437 38.4635
27.2272 38.1625
27.4109 37.9493
27.5946 37.9621
27.7784 37.4556
27.9623 38.0398
28.1462 38.3793
28.3304 36.6727
28.5145 35.5199
28.6987 35.283
28.8829 35.108
29.0673 34.3979
29.2517 34.0389
29.4361 33.8227
29.6207 32.7473
29.8053 32.6029
29.99 32.2386
30.1748 32.1071
30.3597 31.9346
30.5447 31.9322
30.7297 31.9319
30.915 31.2551
31.1002 30.8326
31.2855 30.5767
31.4708 30.5555
31.6563 29.9762
31.8418 29.7467
32.0275 29.5766
32.2132 28.9747
32.399 28.6014
32.5848 28.1532
32.7708 27.8295
32.9569 27.7668
33.143 27.5013
33.3293 27.1632
33.5158 26.7424
33.7022 26.2251
33.8887 26.002
34.0753 25.6709
34.262 25.4052
34.4488 24.988
34.6357 24.7226
34.8227 24.4852
35.0098 24.1775
35.1969 23.9861
35.3842 23.6795
35.5716 23.4725
35.759 23.2229
35.9468 22.8928
36.1345 22.6275
36.3222 22.4705
36.5101 22.2246
36.6981 21.8438
36.8861 21.5351
37.0743 21.2783
37.2626 21.0319
37.451 20.7636
37.6395 20.6027
37.8281 20.3087
38.0168 20.0203
38.2056 19.8096
38.3945 19.4624
38.5837 19.2039
38.7728 18.988
38.9621 18.7149
39.1514 18.5058
39.3409 18.2926
39.5304 18.043
39.7201 17.8114
39.9099 17.5963
40.0999 17.4768
40.2899 17.1693
40.48 16.8856
40.6703 16.7474
40.8607 16.5677
41.0512 16.3205
41.242 16.0761
41.4327 15.8643
41.6236 15.6401
41.8146 15.4666
42.0057 15.2271
42.1969 14.9916
42.3882 14.8843
42.5797 14.6832
42.7713 14.4756
42.963 14.2737
43.1549 14.1102
43.3468 13.8701
43.5389 13.6946
43.7312 13.5036
43.9237 13.3362
44.1162 13.1022
44.3088 12.9787
44.5016 12.765
44.6945 12.5693
44.8875 12.4345
45.0806 12.269
45.2739 12.0609
45.4673 11.8988
45.6609 11.7161
45.8546 11.5911
46.0484 11.3726
46.2424 11.2192
46.4365 11.1071
46.631 10.875
46.8254 10.7341
47.0199 10.5992
47.2146 10.4198
47.4095 10.2781
47.6044 10.1494
47.7996 9.93355
47.9948 9.82756
48.1902 9.67523
48.3858 9.55275
48.5815 9.4144
48.7774 9.3166
48.9734 9.13801
49.1696 9.01531
49.3661 8.8625
49.5626 8.71282
49.7592 8.60217
49.956 8.47176
50.153 8.34258
50.3501 8.20572
50.5474 8.07426
50.7448 7.9748
50.9424 7.86266
51.1402 7.72127
51.3381 7.56835
51.5362 7.48538
51.7344 7.35647
51.9328 7.21899
52.1316 7.07455
52.3304 7.00229
52.5293 6.86115
52.7284 6.75667
52.9276 6.62198
53.1271 6.58433
53.3267 6.45026
53.5265 6.30459
53.7264 6.20464
53.9266 6.09436
54.1269 6.02382
54.3274 5.88201
54.528 5.80335
54.7289 5.57899
54.9301 5.4195
55.1314 5.27482
55.3328 5.12395
55.5344 4.93559
55.7361 4.78359

File: Ni3Fe_FD0804.xy
TT I
1.27165 6.97695
1.45013 6.13859
1.62863 4.90691
1.80712 4.63384
1.98562 4.81557
2.16411 4.63977
2.34263 5.76961
2.52115 6.61297
2.69965 8.25932
2.87818 8.4734
3.05672 10.7567
3.23527 15.1144
3.4138 18.9239
3.59237 23.4364
3.77094 25.8493
3.9495 29.4572
4.12809 34.2259
4.30669 120.746
4.4853 55.6344
4.6639 55.1409
4.84253 67.9137
5.02118 86.2145
5.19981 388.63
5.37848 185.316
5.55716 100.993
5.73586 92.4191
5.91455 94.1249
6.09328 4533.84
6.27201 79.6574
6.45075 68.3889
6.62952 62.1288
6.8083 58.7091
6.98711 54.9446
7.16591 55.1672
7.34475 71.3829
7.5236 54.0101
7.70247 56.1995
7.88135 57.0149
8.06026 61.9591
8.23919 68.9064
8.41812 83.659
8.59709 1217.64
8.77609 96.8488
8.9551 88.8708
9.13412 82.1031
9.31318 83.6542
9.49226 83.8579
9.67134 95.1889
9.85047 100.279
10.0296 343.129
10.2088 343.232
10.388 104.345
10.5672 533.499
10.7465 85.7264
10.9257 77.4327
11.105 70.6899
11.2844 68.0346
11.4637 63.8863
11.6431 62.6076
11.8225 61.8711
12.002 63.4975
12.1814 158.099
12.3609 66.5359
12.5405 63.9107
12.72 67.7082
12.8996 70.6538
13.0792 79.8468
13.2589 248.961
13.4386 116.98
13.6183 257.06
13.7981 92.4359
13.9779 74.9973
14.1577 71.3239
14.3376 69.7682
14.5175 68.2655
14.6974 70.0936
14.8774 111.496
15.0574 140.415
15.2374 69.0619
15.4175 65.9226
15.5976 65.2053
15.7778 95.0848
15.958 145.263
16.1382 60.8417
16.3185 57.4719
16.4988 54.7102
16.6792 53.8873
16.8596 54.2234
17.04 55.4718
17.2205 66.7413
17.401 68.582
17.5815 58.6877
17.7622 60.8288
17.9428 73.2407
18.1237 141.245
18.3044 91.2121
18.4852 73.8843
18.666 59.5801
18.8469 57.4105
19.0278 56.1794
19.2088 58.6881
19.3898 75.6061
19.5709 53.6097
19.752 52.8252
19.9332 55.7429
20.1144 69.8275
20.2957 63.9912
20.477 52.4149
20.6586 49.2101
20.84 48.225
21.0215 48.0649
21.203 50.5451
21.3846 48.2701
21.5662 48.5521
21.7479 52.2626
21.9297 64.3953
22.1115 55.8531
22.2933 49.1771
22.4753 48.1972
22.6572 48.4406
22.8393 51.6611
23.0214 56.5114
23.2037 48.3138
23.3859 49.2481
23.5682 57.1649
23.7505 47.3688
23.9329 44.6838
24.1154 43.6016
24.2979 42.9103
24.4805 42.4421
24.6631 42.357
24.8458 41.8032
25.0286 42.498
25.2114 44.2218
25.3943 44.065
25.5773 40.4623
25.7605 40.0809
25.9436 40.4144
26.1268 41.3134
26.31 39.6148
26.4933 40.2734
26.6767 41.8086
26.8601 40.029
27.0437 38.509
27.2272 38.1145
27.4109 38.0557
27.5946 37.9999
27.7784 37.5715
27.9623 38.1716
28.1462 38.3648
28.3304 36.669
28.5145 35.5165
28.6987 35.2682
28.8829 35.0598
29.0673 34.219
29.2517 33.9311
29.4361 33.8662
29.6207 32.7135
29.8053 32.5662
29.99 32.1634
30.1748 32.0793
30.3597 31.874
30.5447 31.7877
30.7297 31.9496
30.915 31.2248
31.1002 30.6869
31.2855 30.5615
31.4708 30.5224
31.6563 30.003
31.8418 29.8328
32.0275 29.5837
32.2132 29.0358
32.399 28.6453
32.5848 28.1977
32.7708 27.7615
32.9569 27.7265
33.143 27.5011
33.3293 27.0916
33.5158 26.7057
33.7022 26.3233
33.8887 26.0416
34.0753 25.7457
34.262 25.4652
34.4488 25.0446
34.6357 24.6644
34.8227 24.4283
35.0098 24.1723
35.1969 23.9531
35.3842 23.6868
35.5716 23.5536
35.759 23.19
35.9468 22.8721
36.1345 22.6251
36.3222 22.3883
36.5101 22.1908
36.6981 21.9613
36.8861 21.5509
37.0743 21.333
37.2626 21.0356
37.451 20.7957
37.6395 20.5785
37.8281 20.2976
38.0168 19.9082
38.2056 19.7567
38.3945 19.4525
38.5837 19.2168
38.7728 18.9938
38.9621 18.7712
39.1514 18.52
39.3409 18.2986
39.5304 18.0127
39.7201 17.8308
39.9099 17.6651
40.0999 17.4246
40.2899 17.1929
40.48 16.901
40.6703 16.7526
40.8607 16.5581
41.0512 16.2953
41.242 16.082
41.4327 15.8702
41.6236 15.6241
41.8146 15.5158
42.0057 15.2919
42.1969 15.0874
42.3882 14.8844
42.5797 14.6574
42.7713 14.4921
42.963 14.2443
43.1549 14.1266
43.3468 13.9009
43.5389 13.7259
43.7312 13.5239
43.9237 13.3024
44.1162 13.1082
44.3088 12.9583
44.5016 12.7487
44.6945 12.5829
44.8875 12.4002
45.0806 12.2836
45.2739 12.0623
45.4673 11.8805
45.6609 11.7109
45.8546 11.6045
46.0484 11.4386
46.2424 11.2312
46.4365 11.0995
46.631 10.9022
46.8254 10.7065
47.0199 10.5652
47.2146 10.4657
47.4095 10.2679
47.6044 10.1196
47.7996 9.95562
47.9948 9.80637
48.1902 9.70372
48.3858 9.53507
48.5815 9.42481
48.7774 9.31332
48.9734 9.16772
49.1696 9.0262
49.3661 8.87003
49.5626 8.70201
49.7592 8.5882
49.956 8.47294
50.153 8.32394
50.3501 8.20841
50.5474 8.06152
50.7448 7.97809
50.9424 7.8396
51.1402 7.74502
51.3381 7.58927
51.5362 7.48709
51.7344 7.39489
51.9328 7.24362
52.1316 7.08388
52.3304 6.97174
52.5293 6.93091
52.7284 6.72143
52.9276 6.64603
53.1271 6.53559
53.3267 6.45181
53.5265 6.29564
53.7264 6.19072
53.9266 6.06164
54.1269 5.96492
54.3274 5.8582
54.528 5.74732
54.7289 5.58138
54.9301 5.41667
55.1314 5.30061
55.3328 5.07007
55.5344 4.9071
55.7361 4.79917

File: Ni3Fe_FD0805.xy
TT I
1.27165 7.33957
1.45013 5.8671
1.62863 5.17482
1.80712 4.30387
1.98562 4.9342
2.16411 4.60269
2.34263 5.24902
2.52115 7.31178
2.69965 8.32834
2.87818 8.73522
3.05672 11.199
3.23527 15.5604
3.4138 19.0698
3.59237 23.1568
3.77094 25.3181
3.9495 29.3957
4.12809 34.3068
4.30669 117.689
4.4853 55.3595
4.6639 55.1817
4.84253 67.973
5.02118 87.0791
5.19981 392.972
5.37848 185.945
5.55716 101.491
5.73586 92.2842
5.91455 94.3319
6.09328 4557.46
6.27201 80.1903
6.45075 68.6532
6.62952 62.4036
6.8083 58.6884
6.98711 55.2398
7.16591 55.6262
7.34475 70.6294
7.5236 54.039
7.70247 56.1494
7.88135 57.0487
8.06026 62.2957
8.23919 68.8154
8.41812 83.7427
8.59709 1214.57
8.77609 97.0802
8.9551 89.0746
9.13412 82.1999
9.31318 83.8578
9.49226 84.3624
9.67134 95.171
9.85047 100.591
10.0296 347.026
10.2088 344.88
10.388 104.225
10.5672 536.432
10.7465 85.7307
10.9257 77.2784
11.105 71.1006
11.2844 68.026
11.4637 64.2187
11.6431 62.9565
11.8225 62.1831
12.002 63.8107
12.1814 158.402
12.3609 66.4292
12.5405 64.2935
12.72 67.727
12.8996 70.621
13.0792 79.739
13.2589 248.69
13.4386 117.423
13.6183 259.096
13.7981 92.5533
13.9779 75.1101
14.1577 71.5307
14.3376 70.0613
14.5175 68.2113
14.6974 69.9955
14.8774 111.899
15.0574 139.041
15.2374 69.1755
15.4175 65.7073
15.5976 65.6066
15.7778 95.3938
15.958 145.404
16.1382 60.9209
16.3185 57.4187
16.4988 55.0201
16.6792 53.9039
16.8596 54.4359
17.04 55.4456
17.2205 66.9817
17.401 68.323
17.5815 58.6424
17.7622 60.7583
17.9428 73.068
18.1237 141.178
18.3044 91.2733
18.4852 73.8954
18.666 59.5944
18.8469 57.6274
19.0278 56.1876
19.2088 58.7643
19.3898 75.5166
19.5709 53.5818
19.752 52.8102
19.9332 55.8049
20.1144 69.6424
20.2957 63.9583
20.477 52.4779
20.6586 49.0864
20.84 48.3275
21.0215 48.0607
21.203 50.537
21.3846 48.4028
21.5662 48.5264
21.7479 52.3279
21.9297 64.2485
22.1115 55.8047
22.2933 48.9969
22.4753 48.2298
22.6572 48.4161
22.8393 51.7712
23.0214 56.405
23.2037 48.2182
23.3859 49.2988
23.5682 57.2097
23.7505 47.4594
23.9329 44.5108
24.1154 43.6588
24.2979 42.9234
24.4805 42.587
24.6631 42.3225
24.8458 41.9145
25.0286 42.5756
25.2114 44.259
25.3943 43.9839
25.5773 40.4444
25.7605 39.9694
25.9436 40.3664
26.1268 41.2319
26.31 39.6973
26.4933 40.457
26.6767 41.7294
26.8601 39.9872
27.0437 38.4934
27.2272 38.1137
27.4109 38.1103
27.5946 37.88
27.7784 37.5339
27.9623 38.0923
28.1462 38.4456
28.3304 36.6354
28.5145 35.6074
28.6987 35.2447
28.8829 34.9916
29.0673 34.3461
29.2517 34.0167
29.4361 33.7732
29.6207 32.7955
29.8053 32.5088
29.99 32.2874
30.1748 32.2188
30.3597 31.9041
30.5447 31.8645
30.7297 31.9292
30.915 31.2432
31.1002 30.838
31.2855 30.5135
31.4708 30.5934
31.6563 30.1049
31.8418 29.7879
32.0275 29.5219
32.2132 29.0856
32.399 28.621
32.5848 28.2017
32.7708 27.7814
32.9569 27.7574
33.143 27.5262
33.3293 27.1359
33.5158 26.7433
33.7022 26.379
33.8887 26.0977
34.0753 25.6355
34.262 25.3879
34.4488 25.0703
34.6357 24.7712
34.8227 24.3706
35.0098 24.2577
35.1969 23.9018
35.3842 23.8422
35.5716 23.5418
35.759 23.2038
35.9468 22.8948
36.1345 22.6508
36.3222 22.4761
36.5101 22.1736
36.6981 21.982
36.8861 21.5749
37.0743 21.2528
37.2626 21.0293
37.451 20.7487
37.6395 20.5834
37.8281 20.2861
38.0168 19.9722
38.2056 19.7562
38.3945 19.5114
38.5837 19.266
38.7728 18.9907
38.9621 18.7743
39.1514 18.5208
39.3409 18.2557
39.5304 18.05
39.7201 17.8689
39.9099 17.6846
40.0999 17.3631
40.2899 17.1954
40.48 16.9443
40.6703 16.7346
40.8607 16.5298
41.0512 16.3279
41.242 16.1321
41.4327 15.8405
41.6236 15.6367
41.8146 15.4842
42.0057 15.2671
42.1969 15.0377
42.3882 14.8369
42.5797 14.7249
42.7713 14.5153
42.963 14.3228
43.1549 14.051
43.3468 13.9023
43.5389 13.6735
43.7312 13.5039
43.9237 13.3202
44.1162 13.1371
44.3088 12.9573
44.5016 12.7565
44.6945 12.6167
44.8875 12.4318
45.0806 12.2736
45.2739 12.0826
45.4673 11.8992
45.6609 11.7585
45.8546 11.5951
46.0484 11.384
46.2424 11.211
46.4365 11.0946
46.631 10.9259
46.8254 10.7481
47.0199 10.5919
47.2146 10.4514
47.4095 10.2826
47.6044 10.1236
47.7996 9.95948
47.9948 9.79583
48.1902 9.68957
48.3858 9.53028
48.5815 9.42114
48.7774 9.27231
48.9734 9.16815
49.1696 9.01401
49.3661 8.85747
49.5626 8.69113
49.7592 8.58656
49.956 8.47023
50.153 8.33561
50.3501 8.17285
50.5474 8.07267
50.7448 7.96127
50.9424 7.85335
51.1402 7.74718
51.3381 7.61732
51.5362 7.48884
51.7344 7.36335
51.9328 7.24081
52.1316 7.09137
52.3304 6.98431
52.5293 6.86604
52.7284 6.78672
52.9276 6.67617
53.1271 6.57983
53.3267 6.41967
53.5265 6.31068
53.7264 6.23986
53.9266 6.1077
54.1269 5.97097
54.3274 5.9308
54.528 5.75352
54.7289 5.55842
54.9301 5.4168
55.1314 5.31282
55.3328 5.07556
55.5344 4.9092
55.7361 4.77293

File: Ni3Fe_FD0806.xy
TT I
1.27165 7.63796
1.45013 6.52024
1.62863 5.47984
1.80712 5.13022
1.98562 4.57155
2.16411 4.57349
2.34263 5.48036
2.52115 6.83544
2.69965 9.15554
2.87818 8.62078
3.05672 11.2855
3.23527 14.7881
3.4138 18.6947
3.59237 22.9994
3.77094 25.6678
3.9495 29.3254
4.12809 34.2755
4.30669 117.551
4.4853 55.5208
4.6639 55.1625
4.84253 67.9818
5.02118 86.888
5.19981 392.712
5.37848 186.971
5.55716 101.451
5.73586 92.549
5.91455 94.6856
6.09328 4539.56
6.27201 79.7739
6.45075 68.5949
6.62952 62.3973
6.8083 58.6079
6.98711 55.3472
7.16591 55.4507
7.34475 70.557
7.5236 53.9474
7.70247 56.3009
7.88135 57.2579
8.06026 62.0062
8.23919 68.9149
8.41812 83.682
8.59709 1212.38
8.77609 96.6703
8.9551 89.1733
9.13412 82.1804
9.31318 83.7051
9.49226 84.2571
9.67134 94.6658
9.85047 100.457
10.0296 346.338
10.2088 346.329
10.388 104.184
10.5672 536.104
10.7465 85.6703
10.9257 77.3053
11.105 70.5648
11.2844 68.1371
11.4637 64.3686
11.6431 62.7629
11.8225 62.136
12.002 63.83
12.1814 158.271
12.3609 66.5706
12.5405 64.4365
12.72 68.1361
12.8996 70.6346
13.0792 79.525
13.2589 248.499
13.4386 117.978
13.6183 259.082
13.7981 92.8758
13.9779 75.0791
14.1577 71.2897
14.3376 69.735
14.5175 68.1803
14.6974 69.9292
14.8774 111.993
15.0574 139.035
15.2374 69.3284
15.4175 65.9715
15.5976 65.3681
15.7778 95.4382
15.958 145.978
16.1382 60.9961
16.3185 57.4063
16.4988 54.9214
16.6792 53.8764
16.8596 54.4971
17.04 55.4327
17.2205 66.8728
17.401 68.3561
17.5815 58.645
17.7622 60.864
17.9428 73.288
18.1237 141.09
18.3044 91.7077
18.4852 74.1642
18.666 59.7553
18.8469 57.4454
19.0278 56.2574
19.2088 58.7719
19.3898 75.5728
19.5709 53.5851
19.752 53.002
19.9332 55.7386
20.1144 69.5189
20.2957 63.9975
20.477 52.6583
20.6586 49.1484
20.84 48.4127
21.0215 47.9357
21.203 50.5729
21.3846 48.3732
21.5662 48.4652
21.7479 52.4407
21.9297 64.3241
22.1115 55.9114
22.2933 49.2427
22.4753 48.1918
22.6572 48.6474
22.8393 51.6925
23.0214 56.6146
23.2037 48.3928
23.3859 49.3624
23.5682 57.114
23.7505 47.431
23.9329 44.7662
24.1154 43.6424
24.2979 42.9229
24.4805 42.5468
24.6631 42.4782
24.8458 41.8132
25.0286 42.5275
25.2114 44.2011
25.3943 43.9587
25.5773 40.5093
25.7605 39.9871
25.9436 40.4501
26.1268 41.2939
26.31 39.7041
26.4933 40.4417
26.6767 41.7284
26.8601 40.0844
27.0437 38.4598
27.2272 38.3203
27.4109 37.97
27.5946 37.9897
27.7784 37.4647
27.9623 38.068
28.1462 38.3445
28.3304 36.7162
28.5145 35.5155
28.6987 35.281
28.8829 35.1514
29.0673 34.3546
29.2517 34.0136
29.4361 33.7699
29.6207 32.8385
29.8053 32.5675
29.99 32.1938
30.1748 32.1676
30.3597 31.7937
30.5447 31.942
30.7297 31.8473
30.915 31.2495
31.1002 30.8804
31.2855 30.5528
31.4708 30.5739
31.6563 30.0058
31.8418 29.9102
32.0275 29.5662
32.2132 29.0625
32.399 28.6132
32.5848 28.3008
32.7708 27.8
32.9569 27.7078
33.143 27.5247
33.3293 27.131
33.5158 26.8405
33.7022 26.3688
33.8887 26.0443
34.0753 25.6558
34.262 25.4188
34.4488 25.0692
34.6357 24.6467
34.8227 24.4124
35.0098 24.2687
35.1969 23.909
35.3842 23.8631
35.5716 23.5724
35.759 23.3066
35.9468 22.8635
36.1345 22.7122
36.3222 22.4356
36.5101 22.2189
36.6981 21.9519
36.8861 21.648
37.0743 21.3113
37.2626 21.036
37.451 20.6685
37.6395 20.6148
37.8281 20.3103
38.0168 19.9489
38.2056 19.735
38.3945 19.4278
38.5837 19.2199
38.7728 19.0169
38.9621 18.7131
39.1514 18.5614
39.3409 18.3124
39.5304 18.0524
39.7201 17.8999
39.9099 17.6547
40.0999 17.444
40.2899 17.1981
40.48 16.9501
40.6703 16.7279
40.8607 16.5845
41.0512 16.3478
41.242 16.0923
41.4327 15.8817
41.6236 15.6944
41.8146 15.5656
42.0057 15.2897
42.1969 15.1001
42.3882 14.8803
42.5797 14.6748
42.7713 14.4965
42.963 14.241
43.1549 14.0544
43.3468 13.8796
43.5389 13.6837
43.7312 13.5184
43.9237 13.293
44.1162 13.1074
44.3088 12.9229
44.5016 12.762
44.6945 12.5985
44.8875 12.4223
45.0806 12.2549
45.2739 12.0539
45.4673 11.93
45.6609 11.7206
45.8546 11.5682
46.0484 11.4323
46.2424 11.2585
46.4365 11.1346
46.631 10.8971
46.8254 10.7372
47.0199 10.6133
47.2146 10.457
47.4095 10.2698
47.6044 10.1523
47.7996 9.985
47.9948 9.84633
48.1902 9.68776
48.3858 9.51485
48.5815 9.43199
48.7774 9.31085
48.9734 9.13971
49.1696 9.00953
49.3661 8.85961
49.5626 8.69552
49.7592 8.63461
49.956 8.4644
50.153 8.32466
50.3501 8.2397
50.5474 8.0707
50.7448 7.96621
50.9424 7.86691
51.1402 7.71563
51.3381 7.60106
51.5362 7.50403
51.7344 7.34247
51.9328 7.23284
52.1316 7.10329
52.3304 6.98513
52.5293 6.87725
52.7284 6.75876
52.9276 6.65987
53.1271 6.5449
53.3267 6.39984
53.5265 6.33697
53.7264 6.22623
53.9266 6.0993
54.1269 5.99631
54.3274 5.88071
54.528 5.74265
54.7289 5.58215
54.9301 5.42319
55.1314 5.22683
55.3328 5.09965
55.5344 4.88457
55.7361 4.72457

File: Ni3Fe_FD0807.xy
TT I
1.27165 6.90712
1.45013 6.13973
1.62863 5.12423
1.80712 4.83855
1.98562 4.60103
2.16411 4.69519
2.34263 4.95944
2.52115 7.40064
2.69965 7.73912
2.87818 9.24244
3.05672 10.7247
3.23527 14.9523
3.4138 18.3048
3.59237 23.4037
3.77094 25.291
3.9495 29.4303
4.12809 34.3669
4.30669 115.336
4.4853 54.8132
4.6639 55.3197
4.84253 68.1498
5.02118 86.5616
5.19981 393.204
5.37848 187.507
5.55716 101.361
5.73586 92.2749
5.91455 94.5603
6.09328 4530.45
6.27201 79.448
6.45075 68.5298
6.62952 62.5525
6.8083 58.7615
6.98711 55.3223
7.16591 55.6384
7.34475 70.3177
7.5236 54.0293
7.70247 56.4341
7.88135 57.1801
8.06026 61.9138
8.23919 68.8407
8.41812 83.2976
8.59709 1209.58
8.77609 96.8642
8.9551 89.084
9.13412 82.2847
9.31318 83.7189
9.49226 83.9666
9.67134 95.1112
9.85047 100.642
10.0296 345.876
10.2088 346.888
10.388 104.094
10.5672 536.758
10.7465 85.2362
10.9257 77.4094
11.105 70.715
11.2844 68.1607
11.4637 64.2844
11.6431 62.6513
11.8225 62.3924
12.002 64.0463
12.1814 158.054
12.3609 66.5672
12.5405 64.2535
12.72 67.6265
12.8996 70.7059
13.0792 79.7054
13.2589 248.646
13.4386 118.189
13.6183 258.317
13.7981 92.769
13.9779 75.046
14.1577 71.2315
14.3376 69.9904
14.5175 68.2292
14.6974 70.2012
14.8774 111.709
15.0574 139.045
15.2374 69.2082
15.4175 65.7393
15.5976 65.2714
15.7778 95.4364
15.958 145.769
16.1382 60.9744
16.3185 57.3921
16.4988 54.8548
16.6792 53.8622
16.8596 54.5482
17.04 55.6005
17.2205 66.7092
17.401 68.3075
17.5815 58.6906
17.7622 60.6831
17.9428 73.2205
18.1237 141.663
18.3044 91.4489
18.4852 74.2212
18.666 59.5659
18.8469 57.4341
19.0278 56.2644
19.2088 58.8438
19.3898 75.7542
19.5709 53.3598
19.752 52.6882
19.9332 55.6613
20.1144 69.7506
20.2957 64.0439
20.477 52.3427
20.6586 49.0919
20.84 48.3383
21.0215 48.1228
21.203 50.4209
21.3846 48.4914
21.5662 48.4017
21.7479 52.48
21.9297 64.2465
22.1115 56.1023
22.2933 49.0663
22.4753 48.2118
22.6572 48.3307
22.8393 51.6337
23.0214 56.5301
23.2037 48.3434
23.3859 49.3293
23.5682 57.1663
23.7505 47.3871
23.9329 44.6248
24.1154 43.4262
24.2979 43.0929
24.4805 42.606
24.6631 42.2591
24.8458 41.872
25.0286 42.5351
25.2114 44.2133
25.3943 43.9833
25.5773 40.4783
25.7605 39.9114
25.9436 40.4645
26.1268 41.3979
26.31 39.7194
26.4933 40.4353
26.6767 41.7857
26.8601 40.0153
27.0437 38.4338
27.2272 38.1921
27.4109 38.0104
27.5946 37.963
27.7784 37.5432
27.9623 38.0859
28.1462 38.3736
28.3304 36.7028
28.5145 35.4836
28.6987 35.2374
28.8829 35.0286
29.0673 34.28
29.2517 33.9625
29.4361 33.7728
29.6207 32.8088
29.8053 32.4765
29.99 32.2866
30.1748 32.0182
30.3597 31.8939
30.5447 31.7493
30.7297 31.8964
30.915 31.2909
31.1002 30.7936
31.2855 30.5148
31.4708 30.4346
31.6563 30.0037
31.8418 29.8441
32.0275 29.6311
32.2132 29.1337
32.399 28.6378
32.5848 28.193
32.7708 27.7832
32.9569 27.7122
33.143 27.605
33.3293 27.0982
33.5158 26.7404
33.7022 26.2796
33.8887 26.1084
34.0753 25.6152
34.262 25.3606
34.4488 25.0699
34.6357 24.6576
34.8227 24.3731
35.0098 24.2004
35.1969 23.9294
35.3842 23.7629
35.5716 23.528
35.759 23.2916
35.9468 22.8621
36.1345 22.6534
36.3222 22.4388
36.5101 22.1849
36.6981 21.8283
36.8861 21.5612
37.0743 21.2247
37.2626 21.0429
37.451 20.7691
37.6395 20.6007
37.8281 20.2795
38.0168 19.971
38.2056 19.8004
38.3945 19.542
38.5837 19.2761
38.7728 19.0057
38.9621 18.7753
39.1514 18.5318
39.3409 18.2928
39.5304 18.0708
39.7201 17.9158
39.9099 17.6138
40.0999 17.4085
40.2899 17.1905
40.48 16.9779
40.6703 16.8126
40.8607 16.5943
41.0512 16.3479
41.242 16.1129
41.4327 15.8986
41.6236 15.6693
41.8146 15.4514
42.0057 15.2305
42.1969 15.0154
42.3882 14.9032
42.5797 14.6195
42.7713 14.5016
42.963 14.2707
43.1549 14.0399
43.3468 13.8726
43.5389 13.6725
43.7312 13.5382
43.9237 13.3031
44.1162 13.1629
44.3088 12.9512
44.5016 12.7211
44.6945 12.6053
44.8875 12.4443
45.0806 12.2572
45.2739 12.0685
45.4673 11.9063
45.6609 11.7478
45.8546 11.5784
46.0484 11.3982
46.2424 11.226
46.4365 11.0902
46.631 10.9005
46.8254 10.7495
47.0199 10.5681
47.2146 10.4659
47.4095 10.2989
47.6044 10.1355
47.7996 9.95728
47.9948 9.83152
48.1902 9.71284
48.3858 9.52952
48.5815 9.41935
48.7774 9.32899
48.9734 9.17278
49.1696 9.01229
49.3661 8.87622
49.5626 8.73247
49.7592 8.58864
49.956 8.4913
50.153 8.32756
50.3501 8.21932
50.5474 8.0968
50.7448 7.97042
50.9424 7.84142
51.1402 7.70656
51.3381 7.59187
51.5362 7.4787
51.7344 7.34361
51.9328 7.20025
52.1316 7.08365
52.3304 6.9952
52.5293 6.89125
52.7284 6.79067
52.9276 6.60986
53.1271 6.58015
53.3267 6.43318
53.5265 6.29556
53.7264 6.24627
53.9266 6.11756
54.1269 6.03069
54.3274 5.88826
54.528 5.75262
54.7289 5.56427
54.9301 5.42407
55.1314 5.32476
55.3328 5.09118
55.5344 4.91422
55.7361 4.73703