Folder: NiFe_MOF_catalyst_paper/XRD (part 183)

File: Ni3Fe_FD0990.xy
TT I
1.27165 7.45298
1.45013 6.31837
1.62863 4.7287
1.80712 4.63841
1.98562 4.35774
2.16411 4.63908
2.34263 5.46501
2.52115 7.51168
2.69965 8.24348
2.87818 9.34156
3.05672 10.9493
3.23527 15.3977
3.4138 18.9396
3.59237 24.3376
3.77094 26.2866
3.9495 29.7147
4.12809 35.1534
4.30669 242.367
4.4853 67.7906
4.6639 54.6822
4.84253 65.4681
5.02118 84.0232
5.19981 271.359
5.37848 172.961
5.55716 99.366
5.73586 90.1954
5.91455 90.205
6.09328 4576.83
6.27201 81.2408
6.45075 66.3926
6.62952 62.0603
6.8083 58.2334
6.98711 54.8725
7.16591 54.9176
7.34475 96.0379
7.5236 54.1485
7.70247 55.4647
7.88135 56.8515
8.06026 61.4047
8.23919 68.4129
8.41812 83.1446
8.59709 1118.5
8.77609 96.5541
8.9551 90.757
9.13412 80.2121
9.31318 80.8999
9.49226 82.612
9.67134 97.9515
9.85047 97.8091
10.0296 288.308
10.2088 363.719
10.388 102.079
10.5672 535.509
10.7465 84.5677
10.9257 77.3247
11.105 70.4024
11.2844 69.6563
11.4637 63.8916
11.6431 62.4681
11.8225 61.4628
12.002 61.9395
12.1814 150.829
12.3609 69.7293
12.5405 63.4268
12.72 69.3677
12.8996 69.5569
13.0792 76.7156
13.2589 226.438
13.4386 119.197
13.6183 240.917
13.7981 94.4537
13.9779 74.2143
14.1577 71.0029
14.3376 70.4316
14.5175 67.3705
14.6974 68.8377
14.8774 103.515
15.0574 146.214
15.2374 69.7609
15.4175 65.0418
15.5976 64.229
15.7778 89.23
15.958 150.708
16.1382 61.4581
16.3185 57.7262
16.4988 54.4813
16.6792 53.3318
16.8596 54.2173
17.04 54.5654
17.2205 64.6989
17.401 68.6279
17.5815 57.9993
17.7622 59.9718
17.9428 70.1113
18.1237 138.399
18.3044 88.2283
18.4852 75.0155
18.666 59.0516
18.8469 56.7735
19.0278 55.6521
19.2088 58.0249
19.3898 75.1797
19.5709 53.1341
19.752 52.1427
19.9332 54.5727
20.1144 68.5907
20.2957 63.0116
20.477 52.4585
20.6586 48.5618
20.84 47.7717
21.0215 47.5894
21.203 50.0164
21.3846 47.8302
21.5662 47.5609
21.7479 51.1463
21.9297 63.3473
22.1115 55.1658
22.2933 48.849
22.4753 47.9506
22.6572 47.7945
22.8393 50.5131
23.0214 56.4041
23.2037 47.5785
23.3859 48.4638
23.5682 56.3748
23.7505 47.2675
23.9329 44.261
24.1154 43.3394
24.2979 42.4948
24.4805 42.1201
24.6631 41.9188
24.8458 41.374
25.0286 41.8334
25.2114 43.6415
25.3943 43.8647
25.5773 40.1944
25.7605 39.6284
25.9436 39.9479
26.1268 40.9416
26.31 39.2364
26.4933 39.7919
26.6767 41.2155
26.8601 39.672
27.0437 38.0581
27.2272 37.7125
27.4109 37.545
27.5946 37.5789
27.7784 37.0842
27.9623 37.6357
28.1462 38.0132
28.3304 36.4171
28.5145 35.2937
28.6987 34.972
28.8829 34.8015
29.0673 33.9947
29.2517 33.7195
29.4361 33.5589
29.6207 32.461
29.8053 32.3014
29.99 31.7465
30.1748 31.8186
30.3597 31.5314
30.5447 31.4904
30.7297 31.615
30.915 31.0182
31.1002 30.3856
31.2855 30.1697
31.4708 30.2384
31.6563 29.6401
31.8418 29.5373
32.0275 29.3746
32.2132 28.7621
32.399 28.3991
32.5848 27.8928
32.7708 27.6032
32.9569 27.4983
33.143 27.1782
33.3293 26.771
33.5158 26.5245
33.7022 26.0768
33.8887 25.8081
34.0753 25.5036
34.262 25.2159
34.4488 24.8114
34.6357 24.394
34.8227 24.2746
35.0098 23.9595
35.1969 23.6893
35.3842 23.5772
35.5716 23.3364
35.759 23.0557
35.9468 22.6101
36.1345 22.4354
36.3222 22.1983
36.5101 22.0505
36.6981 21.6504
36.8861 21.3117
37.0743 21.0849
37.2626 20.8493
37.451 20.5812
37.6395 20.4521
37.8281 20.0539
38.0168 19.8057
38.2056 19.5435
38.3945 19.2865
38.5837 19.0713
38.7728 18.8202
38.9621 18.5803
39.1514 18.3497
39.3409 18.1314
39.5304 17.8814
39.7201 17.7019
39.9099 17.5067
40.0999 17.2539
40.2899 16.9738
40.48 16.7987
40.6703 16.6223
40.8607 16.4583
41.0512 16.2034
41.242 15.9417
41.4327 15.7767
41.6236 15.5002
41.8146 15.3929
42.0057 15.1674
42.1969 14.9137
42.3882 14.7492
42.5797 14.5489
42.7713 14.3919
42.963 14.1849
43.1549 13.9784
43.3468 13.7534
43.5389 13.6213
43.7312 13.3728
43.9237 13.2195
44.1162 13.0658
44.3088 12.8689
44.5016 12.6155
44.6945 12.5034
44.8875 12.2767
45.0806 12.0682
45.2739 11.9691
45.4673 11.8554
45.6609 11.6714
45.8546 11.4552
46.0484 11.2794
46.2424 11.1754
46.4365 11.0276
46.631 10.788
46.8254 10.6773
47.0199 10.5316
47.2146 10.355
47.4095 10.1932
47.6044 10.047
47.7996 9.8738
47.9948 9.74566
48.1902 9.59544
48.3858 9.49611
48.5815 9.37
48.7774 9.23205
48.9734 9.05246
49.1696 8.9472
49.3661 8.79718
49.5626 8.62985
49.7592 8.53486
49.956 8.41035
50.153 8.25779
50.3501 8.13947
50.5474 8.01018
50.7448 7.92486
50.9424 7.78541
51.1402 7.66864
51.3381 7.57947
51.5362 7.43472
51.7344 7.31588
51.9328 7.17593
52.1316 7.01208
52.3304 6.96552
52.5293 6.79437
52.7284 6.74596
52.9276 6.62623
53.1271 6.50817
53.3267 6.41236
53.5265 6.24488
53.7264 6.22295
53.9266 6.06223
54.1269 5.92789
54.3274 5.8245
54.528 5.73493
54.7289 5.54062
54.9301 5.36766
55.1314 5.29869
55.3328 5.08327
55.5344 4.87789
55.7361 4.69756

File: Ni3Fe_FD0991.xy
TT I
1.27165 7.44787
1.45013 6.10679
1.62863 5.27065
1.80712 5.18309
1.98562 5.13103
2.16411 5.21771
2.34263 5.24996
2.52115 6.95816
2.69965 8.58342
2.87818 9.1654
3.05672 11.8024
3.23527 14.9358
3.4138 19.3345
3.59237 24.3741
3.77094 25.788
3.9495 29.4612
4.12809 34.5972
4.30669 247.545
4.4853 68.1509
4.6639 54.1583
4.84253 65.5624
5.02118 84.0251
5.19981 268.002
5.37848 172.354
5.55716 99.7534
5.73586 89.7631
5.91455 90.0638
6.09328 4534.55
6.27201 80.7679
6.45075 66.2082
6.62952 62.1251
6.8083 57.8112
6.98711 54.9263
7.16591 54.4869
7.34475 98.221
7.5236 53.9593
7.70247 55.4917
7.88135 56.7104
8.06026 60.8046
8.23919 68.293
8.41812 82.9214
8.59709 1110.49
8.77609 96.6597
8.9551 90.7687
9.13412 79.7741
9.31318 80.2932
9.49226 82.3865
9.67134 97.9928
9.85047 97.0927
10.0296 284.943
10.2088 373.372
10.388 101.848
10.5672 529.603
10.7465 84.2715
10.9257 76.9963
11.105 70.6808
11.2844 69.6478
11.4637 63.6558
11.6431 62.5119
11.8225 61.2611
12.002 62.0843
12.1814 149.888
12.3609 69.7135
12.5405 62.9972
12.72 69.3637
12.8996 69.2786
13.0792 76.5881
13.2589 223.975
13.4386 121.095
13.6183 238.787
13.7981 94.5484
13.9779 74.2278
14.1577 71.1477
14.3376 70.4591
14.5175 67.1482
14.6974 68.586
14.8774 102.639
15.0574 150.513
15.2374 69.947
15.4175 64.9499
15.5976 64.2601
15.7778 88.5193
15.958 153.83
16.1382 61.6771
16.3185 57.5294
16.4988 54.3916
16.6792 53.4451
16.8596 54.0852
17.04 54.4094
17.2205 64.556
17.401 68.7819
17.5815 57.7911
17.7622 59.8114
17.9428 69.9026
18.1237 138.663
18.3044 87.9719
18.4852 75.789
18.666 59.0826
18.8469 56.6103
19.0278 55.8223
19.2088 57.854
19.3898 75.3487
19.5709 53.0737
19.752 52.1559
19.9332 54.6871
20.1144 68.8095
20.2957 63.0844
20.477 52.6544
20.6586 48.6641
20.84 47.8117
21.0215 47.5957
21.203 49.9606
21.3846 47.9828
21.5662 47.5625
21.7479 51.0314
21.9297 63.6799
22.1115 55.2169
22.2933 48.9608
22.4753 47.9391
22.6572 47.6183
22.8393 50.5958
23.0214 56.4531
23.2037 47.8778
23.3859 48.2578
23.5682 56.5072
23.7505 47.1968
23.9329 44.2587
24.1154 43.3751
24.2979 42.5183
24.4805 42.0192
24.6631 41.9903
24.8458 41.2336
25.0286 41.7595
25.2114 43.7949
25.3943 43.8729
25.5773 40.099
25.7605 39.5518
25.9436 40.0132
26.1268 41.0751
26.31 39.2502
26.4933 39.8056
26.6767 41.3998
26.8601 39.6307
27.0437 38.0178
27.2272 37.6175
27.4109 37.6302
27.5946 37.5874
27.7784 37.212
27.9623 37.7054
28.1462 38.0163
28.3304 36.2957
28.5145 35.2603
28.6987 34.9734
28.8829 34.7785
29.0673 33.9458
29.2517 33.6946
29.4361 33.4756
29.6207 32.4652
29.8053 32.2043
29.99 31.8861
30.1748 31.8193
30.3597 31.6183
30.5447 31.3915
30.7297 31.5545
30.915 30.8762
31.1002 30.5136
31.2855 30.3145
31.4708 30.2291
31.6563 29.7969
31.8418 29.6411
32.0275 29.3871
32.2132 28.7822
32.399 28.3275
32.5848 27.9787
32.7708 27.6436
32.9569 27.4811
33.143 27.2366
33.3293 26.8929
33.5158 26.5538
33.7022 25.9891
33.8887 25.774
34.0753 25.4862
34.262 25.2523
34.4488 24.757
34.6357 24.5096
34.8227 24.2761
35.0098 23.9736
35.1969 23.7368
35.3842 23.5111
35.5716 23.3629
35.759 23.0208
35.9468 22.6446
36.1345 22.4748
36.3222 22.1833
36.5101 21.9561
36.6981 21.6752
36.8861 21.4406
37.0743 21.1005
37.2626 20.8453
37.451 20.582
37.6395 20.4196
37.8281 20.0824
38.0168 19.7943
38.2056 19.5376
38.3945 19.3271
38.5837 19.0786
38.7728 18.8477
38.9621 18.5421
39.1514 18.3392
39.3409 18.0503
39.5304 17.9676
39.7201 17.7028
39.9099 17.5645
40.0999 17.2212
40.2899 16.958
40.48 16.8289
40.6703 16.6185
40.8607 16.4582
41.0512 16.1968
41.242 15.9579
41.4327 15.7254
41.6236 15.5579
41.8146 15.341
42.0057 15.1495
42.1969 14.9474
42.3882 14.7912
42.5797 14.5175
42.7713 14.3113
42.963 14.178
43.1549 13.9578
43.3468 13.7749
43.5389 13.6164
43.7312 13.3591
43.9237 13.1759
44.1162 13.0681
44.3088 12.8324
44.5016 12.6169
44.6945 12.5042
44.8875 12.2935
45.0806 12.1355
45.2739 11.9761
45.4673 11.8061
45.6609 11.6124
45.8546 11.5211
46.0484 11.2931
46.2424 11.1253
46.4365 11.0439
46.631 10.8466
46.8254 10.6582
47.0199 10.5505
47.2146 10.3692
47.4095 10.2007
47.6044 10.1013
47.7996 9.88756
47.9948 9.7518
48.1902 9.65568
48.3858 9.48358
48.5815 9.3299
48.7774 9.21876
48.9734 9.10656
49.1696 8.94889
49.3661 8.79505
49.5626 8.65494
49.7592 8.55191
49.956 8.4076
50.153 8.32808
50.3501 8.15029
50.5474 8.04667
50.7448 7.92798
50.9424 7.78299
51.1402 7.67853
51.3381 7.54988
51.5362 7.41414
51.7344 7.28657
51.9328 7.16348
52.1316 7.01529
52.3304 6.96014
52.5293 6.85319
52.7284 6.72166
52.9276 6.60073
53.1271 6.53292
53.3267 6.40335
53.5265 6.30448
53.7264 6.17671
53.9266 6.08352
54.1269 5.98516
54.3274 5.87988
54.528 5.71613
54.7289 5.55082
54.9301 5.37548
55.1314 5.24951
55.3328 5.0368
55.5344 4.82377
55.7361 4.73525

File: Ni3Fe_FD0992.xy
TT I
1.27165 7.12498
1.45013 6.56086
1.62863 5.04778
1.80712 4.31377
1.98562 4.65251
2.16411 5.33619
2.34263 5.72599
2.52115 7.70425
2.69965 8.9697
2.87818 8.78437
3.05672 11.4202
3.23527 15.4256
3.4138 19.1603
3.59237 24.0872
3.77094 26.0299
3.9495 29.5525
4.12809 34.4675
4.30669 249.119
4.4853 68.3571
4.6639 54.6283
4.84253 65.9516
5.02118 83.8963
5.19981 267.976
5.37848 173.092
5.55716 99.4689
5.73586 89.6424
5.91455 89.7258
6.09328 4558.54
6.27201 81.3684
6.45075 66.1784
6.62952 62.1169
6.8083 57.742
6.98711 55.0167
7.16591 54.6307
7.34475 98.0779
7.5236 54.3118
7.70247 55.3444
7.88135 56.883
8.06026 61.1011
8.23919 68.1628
8.41812 83.1421
8.59709 1109.7
8.77609 96.6531
8.9551 91.0858
9.13412 80.3948
9.31318 80.7814
9.49226 82.5577
9.67134 97.6448
9.85047 97.3063
10.0296 283.788
10.2088 373.44
10.388 102.249
10.5672 530.04
10.7465 84.9036
10.9257 77.212
11.105 70.5317
11.2844 69.5494
11.4637 63.7761
11.6431 62.5044
11.8225 61.2503
12.002 62.0868
12.1814 149.523
12.3609 69.8841
12.5405 63.2832
12.72 69.5258
12.8996 69.4171
13.0792 76.7171
13.2589 223.684
13.4386 121.171
13.6183 238.481
13.7981 94.4727
13.9779 74.2988
14.1577 71.028
14.3376 70.6201
14.5175 67.0734
14.6974 68.705
14.8774 102.681
15.0574 150.082
15.2374 69.9467
15.4175 64.8677
15.5976 64.1606
15.7778 88.6351
15.958 153.793
16.1382 61.774
16.3185 57.7415
16.4988 54.395
16.6792 53.504
16.8596 54.2111
17.04 54.5265
17.2205 64.5215
17.401 68.9877
17.5815 58.1018
17.7622 59.8515
17.9428 69.9043
18.1237 137.968
18.3044 87.9133
18.4852 75.8148
18.666 59.1592
18.8469 56.7515
19.0278 55.6875
19.2088 57.8385
19.3898 75.3194
19.5709 53.0451
19.752 52.1767
19.9332 54.648
20.1144 69.0172
20.2957 62.8538
20.477 52.7037
20.6586 48.6132
20.84 47.8833
21.0215 47.4647
21.203 50.0215
21.3846 47.8103
21.5662 47.6922
21.7479 50.9269
21.9297 63.5607
22.1115 55.2876
22.2933 48.8786
22.4753 47.7884
22.6572 47.6108
22.8393 50.5861
23.0214 56.5745
23.2037 47.7609
23.3859 48.4632
23.5682 56.1631
23.7505 47.3522
23.9329 44.1561
24.1154 43.3977
24.2979 42.5886
24.4805 42.0425
24.6631 41.8856
24.8458 41.2247
25.0286 41.881
25.2114 43.7174
25.3943 43.8464
25.5773 40.04
25.7605 39.5407
25.9436 39.9345
26.1268 40.9709
26.31 39.2105
26.4933 39.9125
26.6767 41.2697
26.8601 39.6766
27.0437 38.0303
27.2272 37.7605
27.4109 37.5792
27.5946 37.6243
27.7784 37.0539
27.9623 37.7165
28.1462 38.0823
28.3304 36.3359
28.5145 35.2522
28.6987 34.9046
28.8829 34.7499
29.0673 33.8191
29.2517 33.6652
29.4361 33.5658
29.6207 32.4774
29.8053 32.0934
29.99 32.0006
30.1748 31.8578
30.3597 31.6091
30.5447 31.5049
30.7297 31.5625
30.915 30.9821
31.1002 30.4426
31.2855 30.2388
31.4708 30.291
31.6563 29.6976
31.8418 29.6001
32.0275 29.354
32.2132 28.8004
32.399 28.4002
32.5848 27.8535
32.7708 27.5589
32.9569 27.5063
33.143 27.1725
33.3293 26.8499
33.5158 26.463
33.7022 26.1159
33.8887 25.8422
34.0753 25.507
34.262 25.152
34.4488 24.7746
34.6357 24.5437
34.8227 24.2301
35.0098 23.958
35.1969 23.7581
35.3842 23.5295
35.5716 23.3583
35.759 23.0457
35.9468 22.5982
36.1345 22.4515
36.3222 22.2114
36.5101 21.9837
36.6981 21.6797
36.8861 21.3851
37.0743 21.1016
37.2626 20.8419
37.451 20.6087
37.6395 20.4369
37.8281 20.0696
38.0168 19.7481
38.2056 19.5264
38.3945 19.2805
38.5837 19.0598
38.7728 18.8634
38.9621 18.6532
39.1514 18.3337
39.3409 18.1349
39.5304 17.8473
39.7201 17.6962
39.9099 17.4894
40.0999 17.2248
40.2899 17.0727
40.48 16.778
40.6703 16.5615
40.8607 16.4629
41.0512 16.252
41.242 15.9299
41.4327 15.7676
41.6236 15.5192
41.8146 15.388
42.0057 15.1515
42.1969 14.9473
42.3882 14.7263
42.5797 14.5532
42.7713 14.3424
42.963 14.1696
43.1549 13.9542
43.3468 13.75
43.5389 13.6207
43.7312 13.3772
43.9237 13.1731
44.1162 13.0074
44.3088 12.8618
44.5016 12.6622
44.6945 12.4906
44.8875 12.3571
45.0806 12.1647
45.2739 11.9683
45.4673 11.8633
45.6609 11.6544
45.8546 11.469
46.0484 11.2892
46.2424 11.1663
46.4365 10.9881
46.631 10.8299
46.8254 10.6407
47.0199 10.5573
47.2146 10.3723
47.4095 10.1732
47.6044 10.0451
47.7996 9.88814
47.9948 9.71237
48.1902 9.62492
48.3858 9.53503
48.5815 9.35595
48.7774 9.25715
48.9734 9.06923
49.1696 8.95959
49.3661 8.77797
49.5626 8.64588
49.7592 8.54222
49.956 8.41688
50.153 8.27991
50.3501 8.17886
50.5474 8.00461
50.7448 7.93637
50.9424 7.7867
51.1402 7.65917
51.3381 7.53192
51.5362 7.39699
51.7344 7.29409
51.9328 7.18196
52.1316 7.0254
52.3304 6.91736
52.5293 6.84214
52.7284 6.75039
52.9276 6.59367
53.1271 6.54653
53.3267 6.40502
53.5265 6.2732
53.7264 6.17596
53.9266 6.07709
54.1269 5.99136
54.3274 5.84
54.528 5.69651
54.7289 5.53617
54.9301 5.38768
55.1314 5.23903
55.3328 5.04349
55.5344 4.8505
55.7361 4.75875

File: Ni3Fe_FD0993.xy
TT I
1.27165 7.58493
1.45013 6.06837
1.62863 5.35112
1.80712 4.56378
1.98562 3.7911
2.16411 5.30985
2.34263 5.90786
2.52115 7.00066
2.69965 8.44944
2.87818 8.74511
3.05672 11.3351
3.23527 15.1977
3.4138 18.8788
3.59237 24.2683
3.77094 26.1309
3.9495 29.8369
4.12809 34.3737
4.30669 251.027
4.4853 68.232
4.6639 54.4607
4.84253 65.1981
5.02118 83.7242
5.19981 267.546
5.37848 173.58
5.55716 99.138
5.73586 89.2309
5.91455 90.0694
6.09328 4523.05
6.27201 80.9271
6.45075 66.0063
6.62952 61.9223
6.8083 58.1101
6.98711 55.077
7.16591 54.5975
7.34475 98.5388
7.5236 53.8612
7.70247 55.5657
7.88135 56.7068
8.06026 61.5041
8.23919 68.0362
8.41812 83.064
8.59709 1107.4
8.77609 96.5352
8.9551 91.2224
9.13412 80.3288
9.31318 80.4804
9.49226 82.4057
9.67134 98.1859
9.85047 97.2255
10.0296 283.066
10.2088 374.905
10.388 102.211
10.5672 528.667
10.7465 84.5724
10.9257 76.9405
11.105 70.599
11.2844 69.5598
11.4637 63.7954
11.6431 62.2809
11.8225 61.2249
12.002 61.9247
12.1814 148.898
12.3609 70.295
12.5405 63.0954
12.72 69.5664
12.8996 69.2051
13.0792 76.3932
13.2589 222.618
13.4386 121.652
13.6183 237.417
13.7981 94.6631
13.9779 74.1315
14.1577 70.8464
14.3376 70.5179
14.5175 67.3598
14.6974 68.5831
14.8774 102.603
15.0574 150.786
15.2374 70.0232
15.4175 64.815
15.5976 64.2273
15.7778 88.3145
15.958 154.286
16.1382 61.9858
16.3185 57.5335
16.4988 54.3157
16.6792 53.318
16.8596 54.0972
17.04 54.6251
17.2205 64.5527
17.401 68.9761
17.5815 57.9716
17.7622 59.8472
17.9428 69.9195
18.1237 138.485
18.3044 87.8841
18.4852 75.9224
18.666 59.0298
18.8469 56.6121
19.0278 55.6569
19.2088 57.75
19.3898 75.283
19.5709 53.0291
19.752 51.9295
19.9332 54.4936
20.1144 69.0467
20.2957 62.9347
20.477 52.6012
20.6586 48.6092
20.84 47.7679
21.0215 47.4084
21.203 49.9748
21.3846 47.8628
21.5662 47.5533
21.7479 50.8703
21.9297 63.6654
22.1115 55.3906
22.2933 48.7833
22.4753 47.9156
22.6572 47.6855
22.8393 50.6133
23.0214 56.3767
23.2037 47.761
23.3859 48.3368
23.5682 56.3796
23.7505 47.2213
23.9329 44.2193
24.1154 43.1357
24.2979 42.5473
24.4805 41.9797
24.6631 41.8137
24.8458 41.1834
25.0286 41.8175
25.2114 43.651
25.3943 43.9207
25.5773 40.1614
25.7605 39.6574
25.9436 40.0174
26.1268 41.0158
26.31 39.3092
26.4933 39.9577
26.6767 41.3222
26.8601 39.616
27.0437 38.1474
27.2272 37.6123
27.4109 37.6197
27.5946 37.6789
27.7784 37.0054
27.9623 37.6319
28.1462 38.026
28.3304 36.4766
28.5145 35.3319
28.6987 34.8168
28.8829 34.7598
29.0673 33.9752
29.2517 33.6282
29.4361 33.5231
29.6207 32.5037
29.8053 32.2249
29.99 31.8784
30.1748 31.8567
30.3597 31.6186
30.5447 31.5493
30.7297 31.5309
30.915 30.9648
31.1002 30.4939
31.2855 30.1756
31.4708 30.2744
31.6563 29.7956
31.8418 29.569
32.0275 29.3725
32.2132 28.7997
32.399 28.3726
32.5848 27.8992
32.7708 27.6219
32.9569 27.5096
33.143 27.2379
33.3293 26.8438
33.5158 26.5146
33.7022 26.0091
33.8887 25.7983
34.0753 25.4984
34.262 25.129
34.4488 24.8233
34.6357 24.5425
34.8227 24.2063
35.0098 24.0363
35.1969 23.7985
35.3842 23.5265
35.5716 23.3221
35.759 22.987
35.9468 22.5612
36.1345 22.5339
36.3222 22.2216
36.5101 21.9958
36.6981 21.7123
36.8861 21.3827
37.0743 21.0728
37.2626 20.8995
37.451 20.5904
37.6395 20.4541
37.8281 20.1156
38.0168 19.8378
38.2056 19.5668
38.3945 19.2962
38.5837 19.014
38.7728 18.8299
38.9621 18.6326
39.1514 18.3998
39.3409 18.107
39.5304 17.908
39.7201 17.6719
39.9099 17.5239
40.0999 17.2028
40.2899 17.0045
40.48 16.83
40.6703 16.5889
40.8607 16.4776
41.0512 16.2115
41.242 15.9454
41.4327 15.7421
41.6236 15.5347
41.8146 15.3683
42.0057 15.1282
42.1969 14.9557
42.3882 14.7494
42.5797 14.5536
42.7713 14.3823
42.963 14.2093
43.1549 13.9694
43.3468 13.7349
43.5389 13.6537
43.7312 13.3846
43.9237 13.2892
44.1162 13.0366
44.3088 12.8545
44.5016 12.6685
44.6945 12.4866
44.8875 12.3251
45.0806 12.1563
45.2739 11.9786
45.4673 11.833
45.6609 11.6325
45.8546 11.4739
46.0484 11.3232
46.2424 11.1577
46.4365 11.0412
46.631 10.8263
46.8254 10.6526
47.0199 10.475
47.2146 10.3783
47.4095 10.2434
47.6044 10.0756
47.7996 9.89041
47.9948 9.76276
48.1902 9.62376
48.3858 9.5117
48.5815 9.34943
48.7774 9.26352
48.9734 9.07633
49.1696 8.94316
49.3661 8.79411
49.5626 8.66059
49.7592 8.54842
49.956 8.43925
50.153 8.28013
50.3501 8.14774
50.5474 8.0478
50.7448 7.91865
50.9424 7.80478
51.1402 7.65581
51.3381 7.54756
51.5362 7.44823
51.7344 7.30776
51.9328 7.16065
52.1316 7.04044
52.3304 6.9473
52.5293 6.855
52.7284 6.72176
52.9276 6.58763
53.1271 6.52858
53.3267 6.40437
53.5265 6.29298
53.7264 6.19918
53.9266 6.03533
54.1269 5.97719
54.3274 5.83476
54.528 5.7057
54.7289 5.56193
54.9301 5.36505
55.1314 5.23454
55.3328 5.01482
55.5344 4.94608
55.7361 4.72419

File: Ni3Fe_FD0994.xy
TT I
1.27165 7.21705
1.45013 6.39086
1.62863 4.90837
1.80712 4.95053
1.98562 4.46299
2.16411 5.18997
2.34263 5.99289
2.52115 7.59374
2.69965 8.99772
2.87818 8.66788
3.05672 11.1476
3.23527 15.235
3.4138 19.3384
3.59237 23.9357
3.77094 25.9341
3.9495 29.8795
4.12809 33.9984
4.30669 253.329
4.4853 68.3717
4.6639 54.4367
4.84253 65.9226
5.02118 83.7975
5.19981 267.821
5.37848 173.009
5.55716 99.0374
5.73586 89.7765
5.91455 89.9062
6.09328 4516.71
6.27201 80.9224
6.45075 65.9943
6.62952 61.8249
6.8083 57.9277
6.98711 55.1816
7.16591 54.9423
7.34475 99.371
7.5236 53.9429
7.70247 55.2083
7.88135 56.7606
8.06026 60.7498
8.23919 68.0789
8.41812 82.9293
8.59709 1108.12
8.77609 96.6186
8.9551 91.0298
9.13412 80.2113
9.31318 80.9058
9.49226 82.7154
9.67134 97.7748
9.85047 97.3927
10.0296 282.55
10.2088 372.711
10.388 101.815
10.5672 530.939
10.7465 84.7315
10.9257 77.2882
11.105 70.4107
11.2844 69.6267
11.4637 63.8443
11.6431 62.8149
11.8225 61.1364
12.002 62.1626
12.1814 148.662
12.3609 70.0932
12.5405 63.0988
12.72 69.3096
12.8996 69.4481
13.0792 76.4224
13.2589 222.784
13.4386 121.086
13.6183 237.023
13.7981 94.7397
13.9779 74.3281
14.1577 71.0056
14.3376 70.5343
14.5175 67.4665
14.6974 68.8568
14.8774 102.475
15.0574 150.668
15.2374 69.8168
15.4175 64.8837
15.5976 64.2988
15.7778 88.3966
15.958 154.131
16.1382 61.6814
16.3185 57.5467
16.4988 54.2475
16.6792 53.3437
16.8596 54.2585
17.04 54.3481
17.2205 64.5616
17.401 69.0303
17.5815 57.7672
17.7622 59.7552
17.9428 70.0489
18.1237 138.424
18.3044 87.8356
18.4852 75.7245
18.666 59.1546
18.8469 56.7878
19.0278 55.6685
19.2088 57.9615
19.3898 75.4598
19.5709 53.036
19.752 52.1338
19.9332 54.6229
20.1144 69.0539
20.2957 62.9726
20.477 52.3778
20.6586 48.6979
20.84 47.9389
21.0215 47.6037
21.203 49.8263
21.3846 47.7422
21.5662 47.611
21.7479 51.0177
21.9297 63.562
22.1115 55.304
22.2933 48.9195
22.4753 47.9529
22.6572 47.7194
22.8393 50.6761
23.0214 56.5426
23.2037 47.7432
23.3859 48.4012
23.5682 56.3933
23.7505 47.2581
23.9329 44.4871
24.1154 43.3184
24.2979 42.4846
24.4805 42.0871
24.6631 41.8117
24.8458 41.3834
25.0286 41.8058
25.2114 43.694
25.3943 43.8482
25.5773 40.0213
25.7605 39.7309
25.9436 39.9143
26.1268 40.9607
26.31 39.2741
26.4933 39.8743
26.6767 41.4418
26.8601 39.6893
27.0437 38.0769
27.2272 37.8022
27.4109 37.6431
27.5946 37.7164
27.7784 37.1037
27.9623 37.711
28.1462 38.1058
28.3304 36.3407
28.5145 35.2625
28.6987 34.9587
28.8829 34.727
29.0673 34.0894
29.2517 33.4778
29.4361 33.5228
29.6207 32.4723
29.8053 32.2559
29.99 31.9389
30.1748 31.8284
30.3597 31.55
30.5447 31.4633
30.7297 31.7165
30.915 31.019
31.1002 30.4699
31.2855 30.3323
31.4708 30.2216
31.6563 29.7215
31.8418 29.6048
32.0275 29.3542
32.2132 28.7337
32.399 28.3332
32.5848 27.8975
32.7708 27.5875
32.9569 27.484
33.143 27.2927
33.3293 26.8563
33.5158 26.5856
33.7022 26.0287
33.8887 25.8648
34.0753 25.5029
34.262 25.1925
34.4488 24.7516
34.6357 24.3926
34.8227 24.2547
35.0098 24.0032
35.1969 23.7186
35.3842 23.5244
35.5716 23.3235
35.759 23.0204
35.9468 22.6195
36.1345 22.4464
36.3222 22.2403
36.5101 22.0482
36.6981 21.6722
36.8861 21.4004
37.0743 21.0475
37.2626 20.8263
37.451 20.5865
37.6395 20.3953
37.8281 20.1323
38.0168 19.8704
38.2056 19.5417
38.3945 19.295
38.5837 19.1134
38.7728 18.7633
38.9621 18.5535
39.1514 18.3777
39.3409 18.1325
39.5304 17.9245
39.7201 17.7432
39.9099 17.5161
40.0999 17.2594
40.2899 17.0475
40.48 16.8152
40.6703 16.5964
40.8607 16.4115
41.0512 16.2297
41.242 15.9583
41.4327 15.7612
41.6236 15.514
41.8146 15.3694
42.0057 15.1306
42.1969 14.9093
42.3882 14.7545
42.5797 14.5194
42.7713 14.3266
42.963 14.1639
43.1549 14.0328
43.3468 13.7248
43.5389 13.6052
43.7312 13.3825
43.9237 13.2014
44.1162 13.0501
44.3088 12.8658
44.5016 12.6622
44.6945 12.4812
44.8875 12.3226
45.0806 12.1715
45.2739 11.9986
45.4673 11.8094
45.6609 11.6267
45.8546 11.5074
46.0484 11.3249
46.2424 11.1493
46.4365 11.0431
46.631 10.8311
46.8254 10.6225
47.0199 10.4816
47.2146 10.327
47.4095 10.1976
47.6044 10.0446
47.7996 9.88944
47.9948 9.71969
48.1902 9.62286
48.3858 9.53481
48.5815 9.33214
48.7774 9.23922
48.9734 9.07919
49.1696 8.93271
49.3661 8.79919
49.5626 8.63633
49.7592 8.52668
49.956 8.41432
50.153 8.28129
50.3501 8.12996
50.5474 8.05851
50.7448 7.91563
50.9424 7.77929
51.1402 7.66107
51.3381 7.52226
51.5362 7.4407
51.7344 7.32483
51.9328 7.1727
52.1316 7.0497
52.3304 6.93285
52.5293 6.80513
52.7284 6.70731
52.9276 6.60737
53.1271 6.54017
53.3267 6.38522
53.5265 6.26691
53.7264 6.18604
53.9266 6.06645
54.1269 6.00671
54.3274 5.81295
54.528 5.66551
54.7289 5.52236
54.9301 5.38637
55.1314 5.25645
55.3328 5.0691
55.5344 4.86058
55.7361 4.77653