Folder: NiFe_MOF_catalyst_paper/XRD (part 101)

File: Ni3Fe_FD0548.xy
TT I
1.27165 7.46046
1.45013 6.19566
1.62863 4.83851
1.80712 4.959
1.98562 4.98217
2.16411 5.21301
2.34263 5.21451
2.52115 6.90741
2.69965 7.74379
2.87818 8.24296
3.05672 11.2294
3.23527 14.4835
3.4138 19.1446
3.59237 24.1386
3.77094 26.4589
3.9495 30.2094
4.12809 35.3194
4.30669 198.134
4.4853 64.1297
4.6639 56.2397
4.84253 67.5864
5.02118 88.3473
5.19981 387.508
5.37848 198.798
5.55716 103.024
5.73586 92.7281
5.91455 95.7053
6.09328 4357.7
6.27201 83.9458
6.45075 67.8171
6.62952 63.3516
6.8083 58.9245
6.98711 56.5073
7.16591 56.1522
7.34475 88.015
7.5236 55.4495
7.70247 56.5205
7.88135 58.127
8.06026 62.9995
8.23919 69.8841
8.41812 86.3326
8.59709 1209.81
8.77609 100.166
8.9551 91.9282
9.13412 82.6132
9.31318 83.3903
9.49226 85.2195
9.67134 98.5013
9.85047 101.056
10.0296 360.411
10.2088 387.405
10.388 106.01
10.5672 522.242
10.7465 87.3982
10.9257 78.9701
11.105 72.2822
11.2844 70.7032
11.4637 65.2713
11.6431 64.1898
11.8225 62.8303
12.002 64.2762
12.1814 153.837
12.3609 70.2667
12.5405 64.9425
12.72 70.1585
12.8996 71.7395
13.0792 79.9541
13.2589 243.542
13.4386 122.134
13.6183 250.498
13.7981 96.8867
13.9779 76.5034
14.1577 73.0503
14.3376 72.1216
14.5175 69.1928
14.6974 71.1093
14.8774 113.016
15.0574 147.037
15.2374 71.4782
15.4175 66.9408
15.5976 66.3269
15.7778 97.1859
15.958 154.396
16.1382 62.9072
16.3185 59.119
16.4988 55.9946
16.6792 54.8685
16.8596 55.617
17.04 56.2797
17.2205 67.4736
17.401 71.2008
17.5815 59.7967
17.7622 61.6749
17.9428 74.8854
18.1237 141.461
18.3044 91.3523
18.4852 77.3168
18.666 60.7928
18.8469 58.4032
19.0278 57.3593
19.2088 59.958
19.3898 77.1741
19.5709 54.5543
19.752 53.7572
19.9332 57.0187
20.1144 70.4116
20.2957 64.3519
20.477 53.772
20.6586 50.0346
20.84 49.1779
21.0215 48.9876
21.203 51.2735
21.3846 49.3146
21.5662 49.1925
21.7479 53.2407
21.9297 65.0236
22.1115 56.3798
22.2933 50.1665
22.4753 49.226
22.6572 49.2373
22.8393 52.5126
23.0214 57.7692
23.2037 48.9965
23.3859 50.1923
23.5682 57.343
23.7505 48.4599
23.9329 45.5283
24.1154 44.4607
24.2979 43.6451
24.4805 43.2292
24.6631 43.0867
24.8458 42.5522
25.0286 43.3067
25.2114 45.1026
25.3943 44.9561
25.5773 41.1704
25.7605 40.8042
25.9436 40.9974
26.1268 42.029
26.31 40.3738
26.4933 41.0278
26.6767 42.5966
26.8601 40.6838
27.0437 39.1429
27.2272 38.8811
27.4109 38.7365
27.5946 38.7072
27.7784 38.0943
27.9623 38.7117
28.1462 39.0947
28.3304 37.4348
28.5145 36.1845
28.6987 35.9407
28.8829 35.6372
29.0673 34.9792
29.2517 34.64
29.4361 34.3105
29.6207 33.3383
29.8053 33.0432
29.99 32.8582
30.1748 32.6996
30.3597 32.4953
30.5447 32.3735
30.7297 32.3682
30.915 31.8039
31.1002 31.3361
31.2855 31.1369
31.4708 31.0135
31.6563 30.6005
31.8418 30.338
32.0275 30.2907
32.2132 29.5865
32.399 29.1408
32.5848 28.6584
32.7708 28.396
32.9569 28.239
33.143 27.9071
33.3293 27.4923
33.5158 27.1427
33.7022 26.7914
33.8887 26.5203
34.0753 26.1994
34.262 25.7886
34.4488 25.4374
34.6357 25.1557
34.8227 24.831
35.0098 24.6647
35.1969 24.405
35.3842 24.2014
35.5716 23.9476
35.759 23.6212
35.9468 23.287
36.1345 23.0485
36.3222 22.81
36.5101 22.6359
36.6981 22.3275
36.8861 21.9526
37.0743 21.6539
37.2626 21.4268
37.451 21.1299
37.6395 20.9398
37.8281 20.6038
38.0168 20.2956
38.2056 20.1209
38.3945 19.8242
38.5837 19.5558
38.7728 19.3599
38.9621 19.1181
39.1514 18.8856
39.3409 18.6047
39.5304 18.37
39.7201 18.1966
39.9099 17.9591
40.0999 17.6558
40.2899 17.5401
40.48 17.2392
40.6703 17.0341
40.8607 16.8619
41.0512 16.6207
41.242 16.3586
41.4327 16.1644
41.6236 15.9409
41.8146 15.7583
42.0057 15.5822
42.1969 15.3003
42.3882 15.2002
42.5797 15.0057
42.7713 14.6949
42.963 14.5174
43.1549 14.3271
43.3468 14.202
43.5389 13.9046
43.7312 13.7299
43.9237 13.5017
44.1162 13.3392
44.3088 13.1799
44.5016 13.0139
44.6945 12.7996
44.8875 12.6601
45.0806 12.4857
45.2739 12.2924
45.4673 12.1666
45.6609 11.9486
45.8546 11.763
46.0484 11.6181
46.2424 11.421
46.4365 11.2463
46.631 11.1169
46.8254 10.9607
47.0199 10.771
47.2146 10.6316
47.4095 10.4642
47.6044 10.3164
47.7996 10.123
47.9948 10.0011
48.1902 9.8667
48.3858 9.71944
48.5815 9.60589
48.7774 9.41964
48.9734 9.30989
49.1696 9.16228
49.3661 9.01182
49.5626 8.8568
49.7592 8.74549
49.956 8.64972
50.153 8.50464
50.3501 8.40073
50.5474 8.24658
50.7448 8.11701
50.9424 8.00803
51.1402 7.85527
51.3381 7.7736
51.5362 7.63221
51.7344 7.48755
51.9328 7.32805
52.1316 7.23774
52.3304 7.1074
52.5293 6.99575
52.7284 6.88011
52.9276 6.77627
53.1271 6.64735
53.3267 6.55541
53.5265 6.41834
53.7264 6.3395
53.9266 6.18646
54.1269 6.08892
54.3274 5.99562
54.528 5.80878
54.7289 5.73068
54.9301 5.51349
55.1314 5.42686
55.3328 5.19186
55.5344 4.96118
55.7361 4.88546

File: Ni3Fe_FD0549.xy
TT I
1.27165 7.18945
1.45013 6.54145
1.62863 5.33344
1.80712 4.41114
1.98562 4.6978
2.16411 5.17306
2.34263 5.07784
2.52115 6.90949
2.69965 8.26345
2.87818 8.63033
3.05672 11.0928
3.23527 14.9412
3.4138 19.0627
3.59237 23.9061
3.77094 26.3464
3.9495 30.2774
4.12809 34.9246
4.30669 192.632
4.4853 63.7016
4.6639 55.944
4.84253 67.7961
5.02118 88.1752
5.19981 388.421
5.37848 196.861
5.55716 103.179
5.73586 92.8295
5.91455 96.3249
6.09328 4409.98
6.27201 83.4941
6.45075 67.5525
6.62952 63.0358
6.8083 58.8689
6.98711 56.4582
7.16591 55.4659
7.34475 87.9769
7.5236 55.2237
7.70247 56.4225
7.88135 58.2479
8.06026 62.422
8.23919 69.6668
8.41812 86.0881
8.59709 1213.19
8.77609 100.045
8.9551 91.2912
9.13412 82.7248
9.31318 83.0838
9.49226 84.9974
9.67134 98.5415
9.85047 100.519
10.0296 361.401
10.2088 395.375
10.388 105.368
10.5672 513.381
10.7465 86.8331
10.9257 78.7155
11.105 72.1026
11.2844 70.639
11.4637 65.2945
11.6431 64.0502
11.8225 62.7721
12.002 63.9603
12.1814 153.346
12.3609 70.3025
12.5405 64.8029
12.72 70.2689
12.8996 71.3674
13.0792 79.7541
13.2589 243.333
13.4386 122.714
13.6183 250.948
13.7981 97.2838
13.9779 76.1853
14.1577 72.7691
14.3376 71.9841
14.5175 69.2265
14.6974 70.882
14.8774 112.718
15.0574 148.914
15.2374 71.458
15.4175 66.8686
15.5976 66.2716
15.7778 96.8981
15.958 154.959
16.1382 62.7849
16.3185 58.992
16.4988 55.9841
16.6792 54.9478
16.8596 55.5842
17.04 56.2394
17.2205 67.2949
17.401 71.4891
17.5815 59.5797
17.7622 61.8638
17.9428 74.7566
18.1237 141.437
18.3044 91.0616
18.4852 77.484
18.666 61.0079
18.8469 58.3447
19.0278 57.2751
19.2088 60.0579
19.3898 76.8416
19.5709 54.553
19.752 53.6343
19.9332 56.8177
20.1144 70.4932
20.2957 64.2029
20.477 53.8301
20.6586 50.1195
20.84 49.125
21.0215 49.0772
21.203 51.2027
21.3846 49.3199
21.5662 49.2374
21.7479 53.1102
21.9297 65.1271
22.1115 56.3534
22.2933 50.1306
22.4753 49.2894
22.6572 49.3318
22.8393 52.4545
23.0214 57.7199
23.2037 49.0374
23.3859 50.1526
23.5682 57.44
23.7505 48.3515
23.9329 45.5459
24.1154 44.4748
24.2979 43.6906
24.4805 43.3361
24.6631 43.0275
24.8458 42.5087
25.0286 43.2887
25.2114 44.9669
25.3943 44.8937
25.5773 41.2049
25.7605 40.7936
25.9436 41.1535
26.1268 41.8634
26.31 40.4722
26.4933 41.0133
26.6767 42.4979
26.8601 40.6996
27.0437 39.1376
27.2272 38.9079
27.4109 38.7019
27.5946 38.7234
27.7784 38.1994
27.9623 38.6286
28.1462 39.082
28.3304 37.4739
28.5145 36.2092
28.6987 35.8829
28.8829 35.6754
29.0673 34.9946
29.2517 34.5654
29.4361 34.4191
29.6207 33.4838
29.8053 33.0457
29.99 32.7882
30.1748 32.7546
30.3597 32.5144
30.5447 32.3958
30.7297 32.4089
30.915 31.7877
31.1002 31.3904
31.2855 31.1532
31.4708 30.9568
31.6563 30.6034
31.8418 30.3685
32.0275 30.1834
32.2132 29.5714
32.399 29.0834
32.5848 28.6855
32.7708 28.4356
32.9569 28.1988
33.143 28.0251
33.3293 27.5959
33.5158 27.2691
33.7022 26.9044
33.8887 26.5174
34.0753 26.1695
34.262 25.7077
34.4488 25.4346
34.6357 25.1575
34.8227 24.8231
35.0098 24.638
35.1969 24.3292
35.3842 24.1552
35.5716 23.8997
35.759 23.5994
35.9468 23.2645
36.1345 23.0653
36.3222 22.9004
36.5101 22.4971
36.6981 22.3211
36.8861 21.9433
37.0743 21.7116
37.2626 21.434
37.451 21.0931
37.6395 20.9151
37.8281 20.7015
38.0168 20.4002
38.2056 20.0614
38.3945 19.8285
38.5837 19.5448
38.7728 19.3345
38.9621 19.1395
39.1514 18.809
39.3409 18.6345
39.5304 18.3845
39.7201 18.2194
39.9099 18.013
40.0999 17.6964
40.2899 17.4438
40.48 17.2783
40.6703 17.0445
40.8607 16.8674
41.0512 16.6553
41.242 16.3806
41.4327 16.1208
41.6236 15.9113
41.8146 15.8362
42.0057 15.5241
42.1969 15.3828
42.3882 15.1487
42.5797 14.9228
42.7713 14.7136
42.963 14.5662
43.1549 14.3609
43.3468 14.123
43.5389 13.9403
43.7312 13.7167
43.9237 13.5026
44.1162 13.3374
44.3088 13.2148
44.5016 13.0079
44.6945 12.8211
44.8875 12.6521
45.0806 12.4554
45.2739 12.3469
45.4673 12.1587
45.6609 11.9243
45.8546 11.8187
46.0484 11.6419
46.2424 11.4459
46.4365 11.2845
46.631 11.091
46.8254 10.9421
47.0199 10.7723
47.2146 10.6212
47.4095 10.4483
47.6044 10.297
47.7996 10.146
47.9948 10.0028
48.1902 9.86108
48.3858 9.68671
48.5815 9.6062
48.7774 9.46879
48.9734 9.29833
49.1696 9.1747
49.3661 9.02196
49.5626 8.86001
49.7592 8.76392
49.956 8.61959
50.153 8.4909
50.3501 8.36155
50.5474 8.24338
50.7448 8.13664
50.9424 7.97891
51.1402 7.87972
51.3381 7.75355
51.5362 7.55723
51.7344 7.51638
51.9328 7.32673
52.1316 7.22035
52.3304 7.12722
52.5293 7.02274
52.7284 6.87427
52.9276 6.77294
53.1271 6.67598
53.3267 6.51493
53.5265 6.41222
53.7264 6.33891
53.9266 6.22663
54.1269 6.07368
54.3274 5.98945
54.528 5.82221
54.7289 5.69516
54.9301 5.50589
55.1314 5.44195
55.3328 5.19717
55.5344 4.99519
55.7361 4.87873

File: Ni3Fe_FD0550.xy
TT I
1.27165 7.19315
1.45013 6.11506
1.62863 5.42278
1.80712 5.19566
1.98562 4.93549
2.16411 5.26551
2.34263 5.44966
2.52115 6.37858
2.69965 8.04154
2.87818 8.42185
3.05672 11.333
3.23527 14.6523
3.4138 19.0386
3.59237 23.8975
3.77094 26.1189
3.9495 30.225
4.12809 34.8819
4.30669 187.653
4.4853 62.6342
4.6639 55.7403
4.84253 67.7505
5.02118 87.8482
5.19981 390.014
5.37848 196.014
5.55716 102.491
5.73586 92.6758
5.91455 96.2333
6.09328 4391.94
6.27201 83.701
6.45075 67.3977
6.62952 63.202
6.8083 58.6388
6.98711 55.9509
7.16591 55.5029
7.34475 86.7392
7.5236 55.1602
7.70247 56.4963
7.88135 57.9186
8.06026 62.8296
8.23919 69.8652
8.41812 85.8953
8.59709 1215.88
8.77609 100.301
8.9551 91.1414
9.13412 81.9625
9.31318 83.0198
9.49226 85.0166
9.67134 97.7796
9.85047 100.6
10.0296 363.851
10.2088 395.951
10.388 105.374
10.5672 511.076
10.7465 86.4895
10.9257 78.3892
11.105 72.1975
11.2844 70.5018
11.4637 65.4619
11.6431 63.7103
11.8225 62.7502
12.002 64.1783
12.1814 153.407
12.3609 70.1304
12.5405 64.8662
12.72 70.2628
12.8996 71.3927
13.0792 79.6031
13.2589 244.079
13.4386 122.363
13.6183 251.85
13.7981 97.0961
13.9779 76.2216
14.1577 72.7966
14.3376 71.7217
14.5175 69.394
14.6974 70.8731
14.8774 112.798
15.0574 148.666
15.2374 71.1648
15.4175 66.8728
15.5976 66.2739
15.7778 97.3713
15.958 155.53
16.1382 62.9102
16.3185 58.8921
16.4988 55.8656
16.6792 54.9681
16.8596 55.6558
17.04 56.0889
17.2205 67.548
17.401 71.5135
17.5815 59.5283
17.7622 61.6737
17.9428 74.9606
18.1237 141.534
18.3044 90.9751
18.4852 77.6214
18.666 60.8511
18.8469 58.4111
19.0278 57.0745
19.2088 59.9233
19.3898 77.2501
19.5709 54.5027
19.752 53.6018
19.9332 56.7296
20.1144 70.743
20.2957 64.4799
20.477 53.7338
20.6586 49.9996
20.84 49.1305
21.0215 48.8922
21.203 51.2487
21.3846 49.1519
21.5662 49.0592
21.7479 53.1427
21.9297 65.1985
22.1115 56.3581
22.2933 50.2091
22.4753 49.2706
22.6572 49.1301
22.8393 52.3902
23.0214 57.6065
23.2037 49.0183
23.3859 50.2236
23.5682 57.3955
23.7505 48.4265
23.9329 45.4506
24.1154 44.3961
24.2979 43.8069
24.4805 43.1533
24.6631 43.061
24.8458 42.4583
25.0286 43.1514
25.2114 44.9179
25.3943 44.8705
25.5773 41.1773
25.7605 40.7648
25.9436 41.2062
26.1268 42.1001
26.31 40.4719
26.4933 40.9434
26.6767 42.4948
26.8601 40.7432
27.0437 39.1124
27.2272 38.7244
27.4109 38.6929
27.5946 38.603
27.7784 38.1454
27.9623 38.8165
28.1462 39.1423
28.3304 37.4538
28.5145 36.2317
28.6987 35.8785
28.8829 35.6555
29.0673 34.971
29.2517 34.5745
29.4361 34.3638
29.6207 33.4606
29.8053 33.1079
29.99 32.7861
30.1748 32.5369
30.3597 32.446
30.5447 32.3395
30.7297 32.3698
30.915 31.8873
31.1002 31.2866
31.2855 31.0806
31.4708 31.0935
31.6563 30.551
31.8418 30.3811
32.0275 30.1686
32.2132 29.6826
32.399 29.0564
32.5848 28.6756
32.7708 28.3823
32.9569 28.2742
33.143 28.0302
33.3293 27.5345
33.5158 27.2344
33.7022 26.7702
33.8887 26.4968
34.0753 26.2123
34.262 25.8494
34.4488 25.4735
34.6357 25.1606
34.8227 24.8826
35.0098 24.6946
35.1969 24.3563
35.3842 24.1295
35.5716 23.9549
35.759 23.625
35.9468 23.2472
36.1345 23.0421
36.3222 22.7982
36.5101 22.5577
36.6981 22.2937
36.8861 21.9765
37.0743 21.6928
37.2626 21.4197
37.451 21.1374
37.6395 20.9969
37.8281 20.6577
38.0168 20.3942
38.2056 20.0588
38.3945 19.8616
38.5837 19.5815
38.7728 19.3205
38.9621 19.0807
39.1514 18.8677
39.3409 18.5741
39.5304 18.3972
39.7201 18.1778
39.9099 17.9768
40.0999 17.6379
40.2899 17.4935
40.48 17.2472
40.6703 17.0266
40.8607 16.842
41.0512 16.6376
41.242 16.3816
41.4327 16.1704
41.6236 15.9541
41.8146 15.814
42.0057 15.4938
42.1969 15.3339
42.3882 15.1304
42.5797 14.9679
42.7713 14.7413
42.963 14.512
43.1549 14.2865
43.3468 14.1128
43.5389 13.9262
43.7312 13.7383
43.9237 13.6087
44.1162 13.3657
44.3088 13.1195
44.5016 12.9624
44.6945 12.808
44.8875 12.6354
45.0806 12.5009
45.2739 12.2281
45.4673 12.1344
45.6609 11.9164
45.8546 11.7859
46.0484 11.6083
46.2424 11.3954
46.4365 11.3086
46.631 11.1161
46.8254 10.9245
47.0199 10.7689
47.2146 10.6374
47.4095 10.4434
47.6044 10.2978
47.7996 10.1652
47.9948 9.9654
48.1902 9.85744
48.3858 9.73189
48.5815 9.54501
48.7774 9.46158
48.9734 9.31381
49.1696 9.15268
49.3661 9.05166
49.5626 8.86858
49.7592 8.752
49.956 8.60686
50.153 8.49322
50.3501 8.34901
50.5474 8.22313
50.7448 8.12763
50.9424 7.97171
51.1402 7.84234
51.3381 7.75668
51.5362 7.60335
51.7344 7.4736
51.9328 7.3607
52.1316 7.19619
52.3304 7.12052
52.5293 7.01344
52.7284 6.87033
52.9276 6.75941
53.1271 6.68624
53.3267 6.53907
53.5265 6.3888
53.7264 6.37625
53.9266 6.21333
54.1269 6.05322
54.3274 5.97941
54.528 5.8349
54.7289 5.69221
54.9301 5.51998
55.1314 5.37422
55.3328 5.22006
55.5344 4.98447
55.7361 4.90426

File: Ni3Fe_FD0551.xy
TT I
1.27165 7.39387
1.45013 6.05259
1.62863 5.01447
1.80712 5.21703
1.98562 4.54635
2.16411 4.85957
2.34263 5.93643
2.52115 6.08446
2.69965 8.13919
2.87818 8.42585
3.05672 11.3796
3.23527 15.2329
3.4138 18.9123
3.59237 23.7308
3.77094 26.3339
3.9495 30.02
4.12809 35.1262
4.30669 182.496
4.4853 63.1837
4.6639 55.9925
4.84253 67.7941
5.02118 88.3398
5.19981 397.631
5.37848 197.75
5.55716 103.333
5.73586 93.3184
5.91455 96.2894
6.09328 4377.64
6.27201 83.1484
6.45075 67.3786
6.62952 62.9178
6.8083 58.4689
6.98711 55.9624
7.16591 55.4868
7.34475 85.1162
7.5236 54.7666
7.70247 56.3312
7.88135 58.3476
8.06026 62.905
8.23919 70.117
8.41812 86.0373
8.59709 1220.76
8.77609 100.331
8.9551 91.0381
9.13412 82.7278
9.31318 82.8726
9.49226 85.2745
9.67134 98.069
9.85047 100.71
10.0296 365.999
10.2088 386.026
10.388 105.759
10.5672 514.126
10.7465 87.1409
10.9257 78.6995
11.105 72.1169
11.2844 70.6175
11.4637 65.3247
11.6431 64.0117
11.8225 62.7547
12.002 64.34
12.1814 153.082
12.3609 69.9545
12.5405 64.8972
12.72 70.0309
12.8996 71.6822
13.0792 79.9243
13.2589 245.873
13.4386 122.215
13.6183 254.391
13.7981 96.6803
13.9779 76.2167
14.1577 73.0011
14.3376 71.8461
14.5175 69.3491
14.6974 71.048
14.8774 113.828
15.0574 147.188
15.2374 71.128
15.4175 66.9112
15.5976 66.5382
15.7778 97.437
15.958 154.506
16.1382 62.8474
16.3185 58.8525
16.4988 55.8459
16.6792 54.9222
16.8596 55.5095
17.04 56.2781
17.2205 67.4851
17.401 71.2714
17.5815 59.502
17.7622 61.8819
17.9428 74.9502
18.1237 141.538
18.3044 91.3244
18.4852 77.3568
18.666 60.8192
18.8469 58.5729
19.0278 57.0307
19.2088 60.2694
19.3898 76.7107
19.5709 54.5069
19.752 53.8313
19.9332 56.9305
20.1144 70.4741
20.2957 64.2994
20.477 53.5909
20.6586 50.0972
20.84 49.1804
21.0215 49.0503
21.203 51.3234
21.3846 49.2981
21.5662 49.201
21.7479 53.3518
21.9297 65.1341
22.1115 56.3886
22.2933 50.1172
22.4753 49.1673
22.6572 49.412
22.8393 52.5875
23.0214 57.8451
23.2037 49.1738
23.3859 50.2957
23.5682 57.5124
23.7505 48.4902
23.9329 45.4588
24.1154 44.3128
24.2979 43.7638
24.4805 43.3714
24.6631 43.1308
24.8458 42.511
25.0286 43.2664
25.2114 44.9128
25.3943 44.9616
25.5773 41.2129
25.7605 40.6357
25.9436 41.29
26.1268 41.9764
26.31 40.4697
26.4933 41.14
26.6767 42.4913
26.8601 40.8247
27.0437 39.1032
27.2272 38.9096
27.4109 38.7319
27.5946 38.6858
27.7784 38.1506
27.9623 38.6858
28.1462 39.114
28.3304 37.4205
28.5145 36.1751
28.6987 35.8334
28.8829 35.6901
29.0673 34.8811
29.2517 34.6576
29.4361 34.3496
29.6207 33.331
29.8053 33.125
29.99 32.8399
30.1748 32.6133
30.3597 32.4354
30.5447 32.4015
30.7297 32.4866
30.915 31.8547
31.1002 31.3316
31.2855 31.1273
31.4708 30.9417
31.6563 30.6042
31.8418 30.3747
32.0275 30.0866
32.2132 29.5548
32.399 29.2027
32.5848 28.712
32.7708 28.303
32.9569 28.2245
33.143 27.922
33.3293 27.6013
33.5158 27.2307
33.7022 26.7258
33.8887 26.4537
34.0753 26.0676
34.262 25.8747
34.4488 25.4972
34.6357 25.1158
34.8227 24.8602
35.0098 24.6939
35.1969 24.3451
35.3842 24.1364
35.5716 23.9605
35.759 23.6309
35.9468 23.3053
36.1345 23.0667
36.3222 22.7423
36.5101 22.5589
36.6981 22.3271
36.8861 21.9247
37.0743 21.64
37.2626 21.392
37.451 21.1407
37.6395 20.9549
37.8281 20.6067
38.0168 20.391
38.2056 20.0426
38.3945 19.83
38.5837 19.584
38.7728 19.3528
38.9621 19.0776
39.1514 18.8329
39.3409 18.5661
39.5304 18.3596
39.7201 18.1492
39.9099 17.9916
40.0999 17.6828
40.2899 17.5013
40.48 17.2667
40.6703 17.1057
40.8607 16.9016
41.0512 16.6184
41.242 16.387
41.4327 16.1717
41.6236 15.9406
41.8146 15.7981
42.0057 15.5455
42.1969 15.3077
42.3882 15.1243
42.5797 14.9535
42.7713 14.737
42.963 14.507
43.1549 14.3381
43.3468 14.1025
43.5389 13.965
43.7312 13.7504
43.9237 13.5783
44.1162 13.3514
44.3088 13.1621
44.5016 12.9781
44.6945 12.8116
44.8875 12.6315
45.0806 12.4611
45.2739 12.2581
45.4673 12.1569
45.6609 11.8886
45.8546 11.7965
46.0484 11.6148
46.2424 11.4778
46.4365 11.2853
46.631 11.1283
46.8254 10.9532
47.0199 10.7666
47.2146 10.623
47.4095 10.4837
47.6044 10.3283
47.7996 10.1678
47.9948 10.019
48.1902 9.86736
48.3858 9.73753
48.5815 9.56019
48.7774 9.46893
48.9734 9.31297
49.1696 9.17749
49.3661 9.02537
49.5626 8.86812
49.7592 8.75765
49.956 8.61614
50.153 8.45267
50.3501 8.35229
50.5474 8.22848
50.7448 8.101
50.9424 7.9893
51.1402 7.86202
51.3381 7.72141
51.5362 7.58981
51.7344 7.48945
51.9328 7.33831
52.1316 7.21226
52.3304 7.08464
52.5293 6.99277
52.7284 6.90091
52.9276 6.76651
53.1271 6.67392
53.3267 6.57803
53.5265 6.44305
53.7264 6.35596
53.9266 6.19505
54.1269 6.07056
54.3274 5.98823
54.528 5.82072
54.7289 5.68164
54.9301 5.50047
55.1314 5.34791
55.3328 5.1433
55.5344 4.97594
55.7361 4.87092

File: Ni3Fe_FD0552.xy
TT I
1.27165 7.63403
1.45013 5.99796
1.62863 5.18872
1.80712 4.72743
1.98562 4.88185
2.16411 4.92032
2.34263 5.20231
2.52115 6.48279
2.69965 7.73002
2.87818 8.57502
3.05672 11.5458
3.23527 14.7036
3.4138 18.7196
3.59237 23.9507
3.77094 26.3174
3.9495 29.7536
4.12809 34.9458
4.30669 178.272
4.4853 61.4392
4.6639 55.9989
4.84253 67.8765
5.02118 88.0248
5.19981 399.663
5.37848 196.129
5.55716 103.012
5.73586 93.019
5.91455 96.205
6.09328 4393.07
6.27201 82.9506
6.45075 67.7619
6.62952 62.903
6.8083 58.8319
6.98711 56.0339
7.16591 55.5552
7.34475 84.1729
7.5236 55.0538
7.70247 56.2572
7.88135 58.0944
8.06026 62.6493
8.23919 70.22
8.41812 85.7794
8.59709 1219.34
8.77609 100.267
8.9551 90.9323
9.13412 82.6887
9.31318 83.2271
9.49226 84.949
9.67134 97.5649
9.85047 100.718
10.0296 367.325
10.2088 390.273
10.388 105.451
10.5672 513.849
10.7465 86.8799
10.9257 78.1583
11.105 72.4585
11.2844 69.9422
11.4637 65.4441
11.6431 64.0174
11.8225 62.6713
12.002 64.2639
12.1814 154.326
12.3609 69.6454
12.5405 64.7176
12.72 70.0434
12.8996 71.6301
13.0792 80.1242
13.2589 245.42
13.4386 122.645
13.6183 252.704
13.7981 96.7571
13.9779 76.1296
14.1577 72.586
14.3376 71.8569
14.5175 69.3263
14.6974 71.101
14.8774 113.745
15.0574 147.628
15.2374 71.0685
15.4175 66.8465
15.5976 66.2188
15.7778 97.7205
15.958 154.783
16.1382 62.4846
16.3185 58.7534
16.4988 55.7218
16.6792 54.8608
16.8596 55.4524
17.04 56.2195
17.2205 67.3305
17.401 71.3068
17.5815 59.6103
17.7622 61.9283
17.9428 75.0906
18.1237 141.228
18.3044 91.4434
18.4852 77.5863
18.666 60.7557
18.8469 58.4404
19.0278 57.3593
19.2088 60.0666
19.3898 76.7456
19.5709 54.5147
19.752 53.5821
19.9332 56.7364
20.1144 70.4807
20.2957 64.3419
20.477 53.842
20.6586 50.1312
20.84 49.0831
21.0215 48.8612
21.203 51.1862
21.3846 49.2872
21.5662 49.0524
21.7479 53.2967
21.9297 65.0821
22.1115 56.3754
22.2933 49.984
22.4753 49.1009
22.6572 49.1499
22.8393 52.2968
23.0214 57.6385
23.2037 49.085
23.3859 50.1727
23.5682 57.284
23.7505 48.1994
23.9329 45.5005
24.1154 44.3379
24.2979 43.8111
24.4805 43.1758
24.6631 43.1177
24.8458 42.6386
25.0286 43.2376
25.2114 44.9801
25.3943 44.7793
25.5773 41.2451
25.7605 40.7346
25.9436 41.0943
26.1268 42.0962
26.31 40.4672
26.4933 41.0836
26.6767 42.5127
26.8601 40.7238
27.0437 39.1328
27.2272 38.7216
27.4109 38.626
27.5946 38.5859
27.7784 38.0701
27.9623 38.6361
28.1462 39.0638
28.3304 37.3893
28.5145 36.1233
28.6987 35.8812
28.8829 35.7815
29.0673 34.8099
29.2517 34.5165
29.4361 34.3763
29.6207 33.286
29.8053 33.056
29.99 32.754
30.1748 32.5656
30.3597 32.5608
30.5447 32.4271
30.7297 32.4039
30.915 31.7699
31.1002 31.3834
31.2855 31.147
31.4708 30.9927
31.6563 30.5066
31.8418 30.3457
32.0275 30.0759
32.2132 29.5816
32.399 29.1275
32.5848 28.725
32.7708 28.2916
32.9569 28.1482
33.143 27.9403
33.3293 27.5984
33.5158 27.2425
33.7022 26.791
33.8887 26.5017
34.0753 26.1292
34.262 25.8254
34.4488 25.4323
34.6357 25.0839
34.8227 24.928
35.0098 24.6476
35.1969 24.3452
35.3842 24.1521
35.5716 23.8881
35.759 23.6562
35.9468 23.2489
36.1345 23.0707
36.3222 22.8761
36.5101 22.6118
36.6981 22.2913
36.8861 21.907
37.0743 21.6542
37.2626 21.3359
37.451 21.1237
37.6395 20.9695
37.8281 20.6591
38.0168 20.3773
38.2056 20.1222
38.3945 19.7604
38.5837 19.5712
38.7728 19.3655
38.9621 19.0802
39.1514 18.8165
39.3409 18.5808
39.5304 18.3623
39.7201 18.1814
39.9099 17.9353
40.0999 17.7154
40.2899 17.5142
40.48 17.2173
40.6703 17.0137
40.8607 16.7995
41.0512 16.5909
41.242 16.3536
41.4327 16.1409
41.6236 15.96
41.8146 15.7714
42.0057 15.5218
42.1969 15.3253
42.3882 15.1494
42.5797 14.898
42.7713 14.7225
42.963 14.5148
43.1549 14.3167
43.3468 14.1019
43.5389 13.9688
43.7312 13.7025
43.9237 13.5036
44.1162 13.3325
44.3088 13.1906
44.5016 13.0029
44.6945 12.8488
44.8875 12.6096
45.0806 12.4547
45.2739 12.2729
45.4673 12.1279
45.6609 11.9052
45.8546 11.7769
46.0484 11.5914
46.2424 11.4859
46.4365 11.2853
46.631 11.1175
46.8254 10.9322
47.0199 10.778
47.2146 10.6037
47.4095 10.4533
47.6044 10.2816
47.7996 10.1371
47.9948 9.97594
48.1902 9.86706
48.3858 9.69951
48.5815 9.55804
48.7774 9.45255
48.9734 9.29993
49.1696 9.15613
49.3661 9.02325
49.5626 8.83491
49.7592 8.77011
49.956 8.64744
50.153 8.48239
50.3501 8.34204
50.5474 8.21915
50.7448 8.10449
50.9424 7.99524
51.1402 7.85454
51.3381 7.71321
51.5362 7.57549
51.7344 7.47309
51.9328 7.32648
52.1316 7.24336
52.3304 7.13254
52.5293 6.94478
52.7284 6.85788
52.9276 6.77612
53.1271 6.64024
53.3267 6.5433
53.5265 6.3957
53.7264 6.30293
53.9266 6.19259
54.1269 6.12748
54.3274 5.95224
54.528 5.81361
54.7289 5.73009
54.9301 5.50849
55.1314 5.32979
55.3328 5.18263
55.5344 5.02627
55.7361 4.87852