Folder: NiFe_MOF_catalyst_paper/XRD (part 181)

File: Ni3Fe_FD0980.xy
TT I
1.27165 6.92083
1.45013 6.24129
1.62863 5.33653
1.80712 4.41918
1.98562 4.73089
2.16411 4.95445
2.34263 6.15297
2.52115 7.06435
2.69965 8.81324
2.87818 8.89077
3.05672 11.5523
3.23527 15.3039
3.4138 19.0652
3.59237 24.1804
3.77094 26.242
3.9495 29.5895
4.12809 34.4025
4.30669 224.573
4.4853 65.7958
4.6639 54.4628
4.84253 65.6214
5.02118 84.6261
5.19981 273.388
5.37848 172.72
5.55716 99.4192
5.73586 90.0726
5.91455 90.1134
6.09328 4584.67
6.27201 81.1358
6.45075 65.9536
6.62952 61.8428
6.8083 57.7809
6.98711 54.9302
7.16591 54.6682
7.34475 92.348
7.5236 54.0851
7.70247 55.2913
7.88135 56.8229
8.06026 60.7902
8.23919 68.0697
8.41812 83.3381
8.59709 1126.48
8.77609 96.5632
8.9551 90.4348
9.13412 80.0815
9.31318 81.0186
9.49226 83.131
9.67134 96.9116
9.85047 97.408
10.0296 294.127
10.2088 363.395
10.388 102.146
10.5672 527.674
10.7465 85.0153
10.9257 77.1201
11.105 70.5798
11.2844 69.2052
11.4637 63.7823
11.6431 62.4806
11.8225 61.2188
12.002 62.0422
12.1814 154.363
12.3609 69.1941
12.5405 63.6113
12.72 68.9542
12.8996 69.4221
13.0792 76.8193
13.2589 230.834
13.4386 119.127
13.6183 243.721
13.7981 94.6109
13.9779 74.2806
14.1577 71.0034
14.3376 70.2773
14.5175 67.153
14.6974 68.63
14.8774 104.609
15.0574 146.995
15.2374 69.7641
15.4175 65.0923
15.5976 64.11
15.7778 89.8869
15.958 151.503
16.1382 61.5764
16.3185 57.5862
16.4988 54.3773
16.6792 53.6211
16.8596 54.1988
17.04 54.4848
17.2205 64.7612
17.401 68.691
17.5815 57.8613
17.7622 59.9508
17.9428 70.3426
18.1237 138.809
18.3044 88.8742
18.4852 75.5525
18.666 59.1456
18.8469 56.9829
19.0278 55.7617
19.2088 57.905
19.3898 75.6523
19.5709 53.2645
19.752 52.1058
19.9332 54.7573
20.1144 68.6864
20.2957 63.3458
20.477 52.5163
20.6586 48.7793
20.84 47.9282
21.0215 47.597
21.203 49.9222
21.3846 47.9326
21.5662 47.8157
21.7479 51.0815
21.9297 63.4614
22.1115 55.2501
22.2933 48.7958
22.4753 47.9755
22.6572 47.7333
22.8393 50.8366
23.0214 56.0803
23.2037 47.806
23.3859 48.493
23.5682 56.4712
23.7505 47.3564
23.9329 44.3841
24.1154 43.2785
24.2979 42.5012
24.4805 42.1374
24.6631 41.8927
24.8458 41.3566
25.0286 41.9455
25.2114 43.7159
25.3943 43.6028
25.5773 40.0
25.7605 39.6813
25.9436 40.0445
26.1268 41.0135
26.31 39.2966
26.4933 39.9783
26.6767 41.3173
26.8601 39.6092
27.0437 38.0898
27.2272 37.6272
27.4109 37.6654
27.5946 37.6806
27.7784 37.117
27.9623 37.7807
28.1462 38.1335
28.3304 36.5137
28.5145 35.397
28.6987 34.8897
28.8829 34.7471
29.0673 34.004
29.2517 33.6714
29.4361 33.4792
29.6207 32.4383
29.8053 32.2875
29.99 31.8765
30.1748 31.8595
30.3597 31.5356
30.5447 31.5825
30.7297 31.7234
30.915 31.0581
31.1002 30.4412
31.2855 30.3442
31.4708 30.1549
31.6563 29.8209
31.8418 29.4951
32.0275 29.3938
32.2132 28.8267
32.399 28.4203
32.5848 27.892
32.7708 27.6289
32.9569 27.4854
33.143 27.3016
33.3293 26.8421
33.5158 26.5227
33.7022 26.1394
33.8887 25.7719
34.0753 25.4992
34.262 25.1485
34.4488 24.8757
34.6357 24.5201
34.8227 24.2486
35.0098 23.9853
35.1969 23.79
35.3842 23.5742
35.5716 23.4085
35.759 23.0919
35.9468 22.7124
36.1345 22.4284
36.3222 22.2247
36.5101 21.9694
36.6981 21.7006
36.8861 21.4193
37.0743 21.1254
37.2626 20.8257
37.451 20.6123
37.6395 20.4919
37.8281 20.1305
38.0168 19.8336
38.2056 19.6776
38.3945 19.3164
38.5837 19.1004
38.7728 18.8803
38.9621 18.6116
39.1514 18.3858
39.3409 18.1982
39.5304 17.9044
39.7201 17.7223
39.9099 17.5263
40.0999 17.2378
40.2899 17.0314
40.48 16.8894
40.6703 16.6203
40.8607 16.4339
41.0512 16.2044
41.242 15.9395
41.4327 15.7132
41.6236 15.5335
41.8146 15.3881
42.0057 15.077
42.1969 14.9572
42.3882 14.772
42.5797 14.5418
42.7713 14.3752
42.963 14.1771
43.1549 14.0024
43.3468 13.7882
43.5389 13.5862
43.7312 13.3796
43.9237 13.2138
44.1162 13.0519
44.3088 12.8683
44.5016 12.6848
44.6945 12.4762
44.8875 12.3303
45.0806 12.1549
45.2739 11.9617
45.4673 11.8037
45.6609 11.6665
45.8546 11.5252
46.0484 11.2996
46.2424 11.1618
46.4365 11.0258
46.631 10.8695
46.8254 10.6824
47.0199 10.5366
47.2146 10.3739
47.4095 10.2136
47.6044 10.0488
47.7996 9.92385
47.9948 9.75126
48.1902 9.59697
48.3858 9.46791
48.5815 9.36225
48.7774 9.24028
48.9734 9.08134
49.1696 8.98091
49.3661 8.79257
49.5626 8.63504
49.7592 8.56521
49.956 8.43408
50.153 8.26596
50.3501 8.151
50.5474 8.05596
50.7448 7.91543
50.9424 7.81357
51.1402 7.70268
51.3381 7.51993
51.5362 7.38661
51.7344 7.29717
51.9328 7.17668
52.1316 7.05681
52.3304 6.94496
52.5293 6.81779
52.7284 6.6809
52.9276 6.61108
53.1271 6.53617
53.3267 6.38631
53.5265 6.25863
53.7264 6.19249
53.9266 6.0243
54.1269 5.92456
54.3274 5.85412
54.528 5.72953
54.7289 5.51073
54.9301 5.37161
55.1314 5.27154
55.3328 5.05619
55.5344 4.85957
55.7361 4.73911

File: Ni3Fe_FD0981.xy
TT I
1.27165 7.19809
1.45013 6.25929
1.62863 4.63928
1.80712 4.3148
1.98562 5.01113
2.16411 5.25687
2.34263 5.68497
2.52115 7.62381
2.69965 8.60758
2.87818 9.02159
3.05672 11.2683
3.23527 15.375
3.4138 18.9348
3.59237 23.8205
3.77094 25.5814
3.9495 29.2789
4.12809 34.3667
4.30669 231.369
4.4853 66.0947
4.6639 54.4025
4.84253 66.0868
5.02118 84.0547
5.19981 269.739
5.37848 172.576
5.55716 99.451
5.73586 89.5783
5.91455 90.458
6.09328 4604.15
6.27201 80.5937
6.45075 66.5315
6.62952 61.8852
6.8083 58.089
6.98711 54.7433
7.16591 54.3747
7.34475 93.7065
7.5236 54.2433
7.70247 55.1988
7.88135 56.7564
8.06026 61.1411
8.23919 67.942
8.41812 82.4775
8.59709 1117.36
8.77609 96.2048
8.9551 90.2109
9.13412 80.2023
9.31318 80.6146
9.49226 82.6559
9.67134 96.7438
9.85047 97.3159
10.0296 290.476
10.2088 372.343
10.388 102.22
10.5672 528.831
10.7465 84.7478
10.9257 77.003
11.105 70.4381
11.2844 69.0587
11.4637 63.5514
11.6431 62.3452
11.8225 61.2367
12.002 61.6036
12.1814 151.899
12.3609 69.5326
12.5405 63.3413
12.72 68.9946
12.8996 69.308
13.0792 76.634
13.2589 228.754
13.4386 120.716
13.6183 242.119
13.7981 94.7295
13.9779 73.8827
14.1577 70.8365
14.3376 70.2601
14.5175 67.429
14.6974 68.861
14.8774 104.293
15.0574 149.986
15.2374 69.7862
15.4175 64.7573
15.5976 63.927
15.7778 89.146
15.958 153.791
16.1382 61.5468
16.3185 57.5572
16.4988 54.4773
16.6792 53.4161
16.8596 54.0271
17.04 54.4673
17.2205 64.6624
17.401 68.7965
17.5815 57.8386
17.7622 59.8319
17.9428 70.321
18.1237 138.58
18.3044 89.0674
18.4852 75.5395
18.666 59.0024
18.8469 56.6999
19.0278 55.6264
19.2088 57.8843
19.3898 75.3747
19.5709 52.9883
19.752 52.063
19.9332 54.6799
20.1144 68.7503
20.2957 63.2167
20.477 52.5973
20.6586 48.7254
20.84 47.7399
21.0215 47.5643
21.203 50.0572
21.3846 47.888
21.5662 47.6411
21.7479 51.1014
21.9297 63.5605
22.1115 55.2746
22.2933 48.7265
22.4753 47.9803
22.6572 47.6942
22.8393 50.5208
23.0214 56.5175
23.2037 47.715
23.3859 48.5428
23.5682 56.4568
23.7505 47.2827
23.9329 44.2746
24.1154 43.3169
24.2979 42.5543
24.4805 42.0229
24.6631 42.0465
24.8458 41.3462
25.0286 41.8773
25.2114 43.7488
25.3943 43.7528
25.5773 40.15
25.7605 39.5751
25.9436 39.9298
26.1268 40.9521
26.31 39.2232
26.4933 39.9483
26.6767 41.3886
26.8601 39.73
27.0437 38.1237
27.2272 37.7821
27.4109 37.5497
27.5946 37.6716
27.7784 37.1386
27.9623 37.6019
28.1462 37.9462
28.3304 36.5234
28.5145 35.2463
28.6987 34.8526
28.8829 34.7921
29.0673 34.0482
29.2517 33.7522
29.4361 33.5769
29.6207 32.4765
29.8053 32.3232
29.99 31.9709
30.1748 31.7647
30.3597 31.6597
30.5447 31.4105
30.7297 31.6174
30.915 31.0339
31.1002 30.5764
31.2855 30.2174
31.4708 30.1968
31.6563 29.7717
31.8418 29.5608
32.0275 29.3993
32.2132 28.7842
32.399 28.301
32.5848 27.9489
32.7708 27.62
32.9569 27.4672
33.143 27.2676
33.3293 26.8922
33.5158 26.4956
33.7022 26.1341
33.8887 25.8374
34.0753 25.4863
34.262 25.1608
34.4488 24.7757
34.6357 24.451
34.8227 24.2137
35.0098 24.0015
35.1969 23.7432
35.3842 23.4904
35.5716 23.3876
35.759 23.0517
35.9468 22.6521
36.1345 22.4744
36.3222 22.2077
36.5101 22.0512
36.6981 21.7354
36.8861 21.4269
37.0743 21.1245
37.2626 20.8266
37.451 20.6421
37.6395 20.4958
37.8281 20.1327
38.0168 19.8072
38.2056 19.6014
38.3945 19.3871
38.5837 19.0733
38.7728 18.9454
38.9621 18.6774
39.1514 18.4066
39.3409 18.1453
39.5304 17.9017
39.7201 17.7858
39.9099 17.5171
40.0999 17.2821
40.2899 17.0692
40.48 16.7754
40.6703 16.6058
40.8607 16.4256
41.0512 16.2268
41.242 15.901
41.4327 15.8155
41.6236 15.5425
41.8146 15.3838
42.0057 15.1463
42.1969 14.9647
42.3882 14.7741
42.5797 14.545
42.7713 14.366
42.963 14.21
43.1549 14.0517
43.3468 13.7924
43.5389 13.6193
43.7312 13.3533
43.9237 13.2786
44.1162 13.0253
44.3088 12.9012
44.5016 12.7155
44.6945 12.4892
44.8875 12.4093
45.0806 12.1558
45.2739 11.9771
45.4673 11.8599
45.6609 11.6199
45.8546 11.4748
46.0484 11.3106
46.2424 11.134
46.4365 11.0077
46.631 10.8082
46.8254 10.6855
47.0199 10.5524
47.2146 10.3693
47.4095 10.21
47.6044 10.0395
47.7996 9.87113
47.9948 9.76692
48.1902 9.61985
48.3858 9.46464
48.5815 9.34982
48.7774 9.25056
48.9734 9.07521
49.1696 8.95454
49.3661 8.8153
49.5626 8.65505
49.7592 8.53031
49.956 8.4015
50.153 8.26461
50.3501 8.12078
50.5474 8.02301
50.7448 7.91497
50.9424 7.79265
51.1402 7.66007
51.3381 7.54709
51.5362 7.43747
51.7344 7.26091
51.9328 7.18403
52.1316 7.07697
52.3304 6.94726
52.5293 6.79513
52.7284 6.77809
52.9276 6.59572
53.1271 6.50169
53.3267 6.37869
53.5265 6.24309
53.7264 6.18687
53.9266 6.02118
54.1269 5.98108
54.3274 5.8289
54.528 5.73195
54.7289 5.58742
54.9301 5.3695
55.1314 5.27636
55.3328 5.03855
55.5344 4.89561
55.7361 4.76513

File: Ni3Fe_FD0982.xy
TT I
1.27165 6.80936
1.45013 5.44831
1.62863 5.33433
1.80712 5.26785
1.98562 4.76761
2.16411 5.58161
2.34263 5.42704
2.52115 6.45938
2.69965 8.30513
2.87818 8.63293
3.05672 11.3923
3.23527 15.1066
3.4138 18.8276
3.59237 24.1815
3.77094 25.903
3.9495 29.5069
4.12809 34.8396
4.30669 231.241
4.4853 66.0736
4.6639 54.6588
4.84253 65.9193
5.02118 83.816
5.19981 271.73
5.37848 172.884
5.55716 99.554
5.73586 89.9343
5.91455 90.3433
6.09328 4590.58
6.27201 80.6601
6.45075 66.1326
6.62952 61.9168
6.8083 57.8474
6.98711 55.1836
7.16591 54.3406
7.34475 93.3769
7.5236 53.9232
7.70247 55.6196
7.88135 56.7638
8.06026 61.324
8.23919 68.2524
8.41812 82.993
8.59709 1120.53
8.77609 96.2753
8.9551 90.4152
9.13412 80.2749
9.31318 80.7802
9.49226 82.5748
9.67134 96.7684
9.85047 97.5838
10.0296 291.359
10.2088 366.51
10.388 101.869
10.5672 530.506
10.7465 84.255
10.9257 77.1484
11.105 70.6699
11.2844 69.2017
11.4637 63.5825
11.6431 62.364
11.8225 61.1084
12.002 62.1644
12.1814 152.301
12.3609 69.5944
12.5405 63.3933
12.72 68.7933
12.8996 69.2631
13.0792 76.6396
13.2589 229.257
13.4386 119.709
13.6183 243.179
13.7981 95.1461
13.9779 74.196
14.1577 70.9756
14.3376 70.2272
14.5175 67.6556
14.6974 68.8241
14.8774 104.353
15.0574 147.616
15.2374 69.6003
15.4175 65.0136
15.5976 64.2104
15.7778 89.7222
15.958 152.128
16.1382 61.6745
16.3185 57.6474
16.4988 54.4063
16.6792 53.3866
16.8596 54.0589
17.04 54.326
17.2205 64.8062
17.401 68.6605
17.5815 57.9911
17.7622 59.8077
17.9428 70.4297
18.1237 138.228
18.3044 88.6155
18.4852 75.602
18.666 59.3037
18.8469 56.9523
19.0278 55.5672
19.2088 57.9722
19.3898 75.3148
19.5709 53.1559
19.752 52.0605
19.9332 54.5338
20.1144 68.6692
20.2957 63.3181
20.477 52.4808
20.6586 48.7556
20.84 47.8104
21.0215 47.6748
21.203 49.9807
21.3846 47.9996
21.5662 47.6231
21.7479 51.0564
21.9297 63.6021
22.1115 55.2721
22.2933 48.7782
22.4753 48.0211
22.6572 47.741
22.8393 50.5396
23.0214 56.3896
23.2037 47.7986
23.3859 48.454
23.5682 56.3894
23.7505 47.3383
23.9329 44.328
24.1154 43.2308
24.2979 42.5421
24.4805 42.0326
24.6631 41.9114
24.8458 41.382
25.0286 41.8662
25.2114 43.7642
25.3943 43.6627
25.5773 40.1041
25.7605 39.584
25.9436 40.0492
26.1268 40.9994
26.31 39.2183
26.4933 39.8386
26.6767 41.3877
26.8601 39.6808
27.0437 38.1948
27.2272 37.8262
27.4109 37.5623
27.5946 37.5354
27.7784 36.9691
27.9623 37.6678
28.1462 38.0634
28.3304 36.3361
28.5145 35.1908
28.6987 34.8989
28.8829 34.8425
29.0673 34.0163
29.2517 33.6233
29.4361 33.5114
29.6207 32.4533
29.8053 32.2353
29.99 31.9455
30.1748 31.89
30.3597 31.6489
30.5447 31.5584
30.7297 31.7112
30.915 30.9896
31.1002 30.566
31.2855 30.2069
31.4708 30.1966
31.6563 29.7152
31.8418 29.5098
32.0275 29.3501
32.2132 28.7895
32.399 28.3741
32.5848 27.9925
32.7708 27.6306
32.9569 27.3844
33.143 27.3062
33.3293 26.876
33.5158 26.6371
33.7022 26.1207
33.8887 25.8759
34.0753 25.4173
34.262 25.2017
34.4488 24.8095
34.6357 24.5321
34.8227 24.2427
35.0098 24.0324
35.1969 23.747
35.3842 23.4895
35.5716 23.3346
35.759 23.0658
35.9468 22.6361
36.1345 22.5064
36.3222 22.2533
36.5101 22.0315
36.6981 21.6634
36.8861 21.3631
37.0743 21.1142
37.2626 20.8824
37.451 20.5888
37.6395 20.3921
37.8281 20.1606
38.0168 19.7689
38.2056 19.5519
38.3945 19.2406
38.5837 19.088
38.7728 18.8291
38.9621 18.6312
39.1514 18.2767
39.3409 18.1507
39.5304 17.8854
39.7201 17.7125
39.9099 17.5044
40.0999 17.2522
40.2899 17.0782
40.48 16.7835
40.6703 16.6392
40.8607 16.4425
41.0512 16.1876
41.242 15.9714
41.4327 15.8011
41.6236 15.5311
41.8146 15.3586
42.0057 15.1355
42.1969 14.9452
42.3882 14.7106
42.5797 14.5603
42.7713 14.3715
42.963 14.145
43.1549 13.9915
43.3468 13.7477
43.5389 13.5994
43.7312 13.4161
43.9237 13.2039
44.1162 13.0783
44.3088 12.8392
44.5016 12.6552
44.6945 12.5194
44.8875 12.338
45.0806 12.1923
45.2739 11.9771
45.4673 11.8564
45.6609 11.6646
45.8546 11.4663
46.0484 11.3122
46.2424 11.153
46.4365 11.0368
46.631 10.8242
46.8254 10.6361
47.0199 10.4793
47.2146 10.3671
47.4095 10.2223
47.6044 10.0746
47.7996 9.95114
47.9948 9.74531
48.1902 9.64469
48.3858 9.49344
48.5815 9.33638
48.7774 9.19856
48.9734 9.0783
49.1696 8.90954
49.3661 8.77975
49.5626 8.64124
49.7592 8.56493
49.956 8.39792
50.153 8.26661
50.3501 8.13798
50.5474 8.0248
50.7448 7.9056
50.9424 7.79002
51.1402 7.64336
51.3381 7.52975
51.5362 7.41962
51.7344 7.33142
51.9328 7.16605
52.1316 7.04964
52.3304 6.99647
52.5293 6.79766
52.7284 6.71361
52.9276 6.64089
53.1271 6.49947
53.3267 6.39688
53.5265 6.31803
53.7264 6.22287
53.9266 6.06307
54.1269 5.94056
54.3274 5.80494
54.528 5.6961
54.7289 5.53702
54.9301 5.41432
55.1314 5.23251
55.3328 5.05013
55.5344 4.87606
55.7361 4.72902

File: Ni3Fe_FD0983.xy
TT I
1.27165 7.38643
1.45013 6.23145
1.62863 4.92071
1.80712 4.37871
1.98562 5.02601
2.16411 5.37022
2.34263 5.89917
2.52115 8.16077
2.69965 8.47634
2.87818 8.93543
3.05672 11.1977
3.23527 15.3676
3.4138 18.8499
3.59237 23.7622
3.77094 26.2697
3.9495 29.4601
4.12809 34.6991
4.30669 234.055
4.4853 66.4685
4.6639 54.6838
4.84253 65.985
5.02118 83.9222
5.19981 270.931
5.37848 173.253
5.55716 98.929
5.73586 89.6883
5.91455 89.9621
6.09328 4584.55
6.27201 80.8047
6.45075 66.2317
6.62952 61.5898
6.8083 57.4426
6.98711 55.0254
7.16591 54.3456
7.34475 94.5598
7.5236 53.7933
7.70247 55.4066
7.88135 56.8656
8.06026 60.7172
8.23919 67.9385
8.41812 82.6683
8.59709 1116.74
8.77609 96.2363
8.9551 90.4649
9.13412 80.2032
9.31318 80.2601
9.49226 82.5784
9.67134 97.3839
9.85047 97.3789
10.0296 289.373
10.2088 370.374
10.388 101.918
10.5672 530.369
10.7465 84.5553
10.9257 77.1234
11.105 70.3051
11.2844 69.3508
11.4637 63.6839
11.6431 62.6522
11.8225 61.0517
12.002 62.0303
12.1814 150.397
12.3609 69.4622
12.5405 63.3686
12.72 68.8668
12.8996 69.3285
13.0792 76.5803
13.2589 227.514
13.4386 120.093
13.6183 243.063
13.7981 94.692
13.9779 74.1077
14.1577 71.1262
14.3376 70.2901
14.5175 67.2217
14.6974 68.5628
14.8774 103.762
15.0574 148.278
15.2374 69.5965
15.4175 64.7589
15.5976 64.2653
15.7778 89.2725
15.958 153.388
16.1382 61.4781
16.3185 57.5429
16.4988 54.5028
16.6792 53.378
16.8596 54.0319
17.04 54.2956
17.2205 64.7854
17.401 68.84
17.5815 57.7943
17.7622 59.7219
17.9428 70.345
18.1237 138.587
18.3044 88.939
18.4852 75.6184
18.666 59.0963
18.8469 56.7064
19.0278 55.6595
19.2088 57.8423
19.3898 75.3387
19.5709 53.0025
19.752 52.1909
19.9332 54.7916
20.1144 68.9299
20.2957 63.3311
20.477 52.7095
20.6586 48.6846
20.84 47.8893
21.0215 47.6545
21.203 49.9073
21.3846 47.8816
21.5662 47.6912
21.7479 51.2016
21.9297 63.5905
22.1115 55.364
22.2933 48.949
22.4753 47.9528
22.6572 47.6661
22.8393 50.6227
23.0214 56.3517
23.2037 47.8567
23.3859 48.5506
23.5682 56.5107
23.7505 47.3638
23.9329 44.3244
24.1154 43.3505
24.2979 42.6386
24.4805 42.0407
24.6631 42.0643
24.8458 41.2534
25.0286 42.0426
25.2114 43.8781
25.3943 43.7562
25.5773 40.104
25.7605 39.7439
25.9436 40.0287
26.1268 41.023
26.31 39.3573
26.4933 39.9365
26.6767 41.4617
26.8601 39.6982
27.0437 37.9303
27.2272 37.7909
27.4109 37.6754
27.5946 37.6383
27.7784 37.052
27.9623 37.7871
28.1462 38.0938
28.3304 36.4514
28.5145 35.2547
28.6987 34.8583
28.8829 34.7652
29.0673 33.958
29.2517 33.6895
29.4361 33.3975
29.6207 32.4679
29.8053 32.2083
29.99 31.7809
30.1748 31.8717
30.3597 31.66
30.5447 31.5728
30.7297 31.6369
30.915 30.9616
31.1002 30.5567
31.2855 30.2463
31.4708 30.2262
31.6563 29.7448
31.8418 29.5353
32.0275 29.3515
32.2132 28.7557
32.399 28.3668
32.5848 27.9613
32.7708 27.6022
32.9569 27.4905
33.143 27.3078
33.3293 26.8308
33.5158 26.5072
33.7022 26.0435
33.8887 25.818
34.0753 25.5578
34.262 25.2075
34.4488 24.7974
34.6357 24.5478
34.8227 24.189
35.0098 24.0324
35.1969 23.726
35.3842 23.6274
35.5716 23.4038
35.759 23.0471
35.9468 22.6894
36.1345 22.4528
36.3222 22.2434
36.5101 22.0334
36.6981 21.678
36.8861 21.4596
37.0743 21.1021
37.2626 20.8144
37.451 20.6397
37.6395 20.4092
37.8281 20.129
38.0168 19.8254
38.2056 19.5811
38.3945 19.3297
38.5837 19.0843
38.7728 18.828
38.9621 18.6348
39.1514 18.3724
39.3409 18.1584
39.5304 17.9265
39.7201 17.7319
39.9099 17.4781
40.0999 17.2989
40.2899 17.0743
40.48 16.8635
40.6703 16.6098
40.8607 16.428
41.0512 16.1784
41.242 15.9631
41.4327 15.7552
41.6236 15.5726
41.8146 15.3636
42.0057 15.1185
42.1969 14.9457
42.3882 14.7583
42.5797 14.5906
42.7713 14.3422
42.963 14.152
43.1549 13.9768
43.3468 13.7536
43.5389 13.6093
43.7312 13.358
43.9237 13.2166
44.1162 12.9972
44.3088 12.8194
44.5016 12.7093
44.6945 12.4765
44.8875 12.3185
45.0806 12.1666
45.2739 11.9854
45.4673 11.7832
45.6609 11.665
45.8546 11.5032
46.0484 11.3436
46.2424 11.2341
46.4365 11.0304
46.631 10.8692
46.8254 10.6467
47.0199 10.5355
47.2146 10.3736
47.4095 10.227
47.6044 10.0255
47.7996 9.93035
47.9948 9.75448
48.1902 9.63946
48.3858 9.47053
48.5815 9.37615
48.7774 9.25628
48.9734 9.08743
49.1696 8.91969
49.3661 8.79546
49.5626 8.66871
49.7592 8.55402
49.956 8.42181
50.153 8.29132
50.3501 8.15061
50.5474 8.02352
50.7448 7.93042
50.9424 7.79632
51.1402 7.66442
51.3381 7.52299
51.5362 7.42208
51.7344 7.30021
51.9328 7.19592
52.1316 7.04744
52.3304 6.95691
52.5293 6.85832
52.7284 6.74575
52.9276 6.63571
53.1271 6.53214
53.3267 6.41325
53.5265 6.26139
53.7264 6.17892
53.9266 6.06467
54.1269 5.97818
54.3274 5.83627
54.528 5.74885
54.7289 5.55444
54.9301 5.38904
55.1314 5.28983
55.3328 5.06732
55.5344 4.87103
55.7361 4.74231

File: Ni3Fe_FD0984.xy
TT I
1.27165 7.29627
1.45013 6.17423
1.62863 5.28652
1.80712 4.78485
1.98562 4.53531
2.16411 5.22591
2.34263 5.37162
2.52115 6.77756
2.69965 8.16075
2.87818 9.17944
3.05672 11.1856
3.23527 14.9407
3.4138 18.9879
3.59237 24.2559
3.77094 26.0322
3.9495 29.4823
4.12809 34.4958
4.30669 235.091
4.4853 66.8312
4.6639 54.1229
4.84253 65.7704
5.02118 84.4599
5.19981 271.033
5.37848 172.831
5.55716 99.3772
5.73586 90.2024
5.91455 90.3186
6.09328 4568.64
6.27201 80.9423
6.45075 66.0333
6.62952 61.6445
6.8083 57.6098
6.98711 55.1673
7.16591 54.8892
7.34475 93.8831
7.5236 54.1286
7.70247 55.372
7.88135 56.9744
8.06026 61.3739
8.23919 68.41
8.41812 82.6717
8.59709 1118.84
8.77609 96.0624
8.9551 90.2752
9.13412 80.2068
9.31318 80.6581
9.49226 82.667
9.67134 97.379
9.85047 97.1927
10.0296 289.907
10.2088 368.248
10.388 101.944
10.5672 532.015
10.7465 84.4461
10.9257 77.2449
11.105 70.6108
11.2844 69.2024
11.4637 63.3231
11.6431 62.3963
11.8225 61.4475
12.002 62.0796
12.1814 150.406
12.3609 69.5871
12.5405 63.1438
12.72 69.0674
12.8996 69.3423
13.0792 76.696
13.2589 227.675
13.4386 119.522
13.6183 242.394
13.7981 94.7302
13.9779 74.2635
14.1577 70.8922
14.3376 70.4025
14.5175 67.1249
14.6974 68.7913
14.8774 103.955
15.0574 146.963
15.2374 69.8801
15.4175 64.8237
15.5976 64.3782
15.7778 89.5039
15.958 152.662
16.1382 61.529
16.3185 57.6098
16.4988 54.568
16.6792 53.3556
16.8596 54.2101
17.04 54.5775
17.2205 64.7775
17.401 68.7004
17.5815 58.0815
17.7622 59.8624
17.9428 70.2175
18.1237 138.476
18.3044 88.9076
18.4852 75.3155
18.666 59.2087
18.8469 56.904
19.0278 55.7105
19.2088 57.8156
19.3898 75.5784
19.5709 53.0823
19.752 52.2095
19.9332 54.5248
20.1144 68.6843
20.2957 63.2774
20.477 52.3581
20.6586 48.6758
20.84 47.869
21.0215 47.5732
21.203 50.0332
21.3846 47.9454
21.5662 47.7823
21.7479 51.1891
21.9297 63.4597
22.1115 55.2378
22.2933 48.6216
22.4753 47.8962
22.6572 47.7094
22.8393 50.5826
23.0214 56.3968
23.2037 47.7598
23.3859 48.51
23.5682 56.625
23.7505 47.2742
23.9329 44.254
24.1154 43.3098
24.2979 42.487
24.4805 42.1051
24.6631 42.1726
24.8458 41.2477
25.0286 41.8568
25.2114 43.7091
25.3943 43.7331
25.5773 40.084
25.7605 39.6988
25.9436 40.0131
26.1268 41.0951
26.31 39.341
26.4933 39.8465
26.6767 41.309
26.8601 39.6605
27.0437 38.1928
27.2272 37.7269
27.4109 37.565
27.5946 37.6971
27.7784 37.0065
27.9623 37.6607
28.1462 38.0743
28.3304 36.3878
28.5145 35.2429
28.6987 34.9041
28.8829 34.765
29.0673 33.9591
29.2517 33.6713
29.4361 33.5313
29.6207 32.3961
29.8053 32.2352
29.99 31.9132
30.1748 31.8411
30.3597 31.6309
30.5447 31.6216
30.7297 31.6698
30.915 30.903
31.1002 30.4928
31.2855 30.2168
31.4708 30.2049
31.6563 29.7185
31.8418 29.5844
32.0275 29.3735
32.2132 28.799
32.399 28.415
32.5848 27.8059
32.7708 27.6523
32.9569 27.4374
33.143 27.2442
33.3293 26.853
33.5158 26.604
33.7022 26.0752
33.8887 25.8467
34.0753 25.4431
34.262 25.1999
34.4488 24.8152
34.6357 24.5551
34.8227 24.2201
35.0098 24.0527
35.1969 23.7285
35.3842 23.4953
35.5716 23.249
35.759 22.9868
35.9468 22.7162
36.1345 22.4615
36.3222 22.2542
36.5101 21.9665
36.6981 21.705
36.8861 21.4086
37.0743 21.1259
37.2626 20.8426
37.451 20.6499
37.6395 20.4752
37.8281 20.1143
38.0168 19.8491
38.2056 19.5629
38.3945 19.3448
38.5837 19.066
38.7728 18.8329
38.9621 18.5902
39.1514 18.4067
39.3409 18.1347
39.5304 17.8884
39.7201 17.745
39.9099 17.5154
40.0999 17.2956
40.2899 17.0907
40.48 16.794
40.6703 16.6412
40.8607 16.3896
41.0512 16.2347
41.242 15.9163
41.4327 15.7575
41.6236 15.5523
41.8146 15.3306
42.0057 15.1837
42.1969 14.9439
42.3882 14.8211
42.5797 14.5364
42.7713 14.3757
42.963 14.1324
43.1549 13.9562
43.3468 13.7597
43.5389 13.5954
43.7312 13.3902
43.9237 13.2694
44.1162 13.0032
44.3088 12.8692
44.5016 12.7077
44.6945 12.4839
44.8875 12.3104
45.0806 12.156
45.2739 12.0305
45.4673 11.8246
45.6609 11.6497
45.8546 11.5128
46.0484 11.3152
46.2424 11.1897
46.4365 11.0056
46.631 10.8358
46.8254 10.6787
47.0199 10.4949
47.2146 10.3652
47.4095 10.243
47.6044 10.0524
47.7996 9.95755
47.9948 9.77599
48.1902 9.63172
48.3858 9.49698
48.5815 9.33575
48.7774 9.21124
48.9734 9.1028
49.1696 8.96809
49.3661 8.76279
49.5626 8.64345
49.7592 8.54591
49.956 8.40158
50.153 8.28574
50.3501 8.14606
50.5474 8.04216
50.7448 7.94493
50.9424 7.78041
51.1402 7.64031
51.3381 7.52821
51.5362 7.42033
51.7344 7.28756
51.9328 7.1712
52.1316 7.03153
52.3304 6.94055
52.5293 6.8506
52.7284 6.74002
52.9276 6.6233
53.1271 6.48311
53.3267 6.41632
53.5265 6.31349
53.7264 6.15864
53.9266 6.04194
54.1269 6.00624
54.3274 5.84002
54.528 5.70145
54.7289 5.56224
54.9301 5.36886
55.1314 5.30008
55.3328 5.03495
55.5344 4.8727
55.7361 4.68062