Folder: NiFe_MOF_catalyst_paper/XRD

Note: README.md
# NiFe_MOF_catalyst_paper
Data used for the paper "Investigation of a MOF-derived Ni3Fe@C catalyst in the CO2 methanation with gas dropouts in catalytic cycling using in-situ XAS and PDF"

File: Ni3Fe_FD0001.xy
TT I
1.27165 36.1315
1.45013 31.3632
1.62863 28.5764
1.80712 25.8972
1.98562 25.5467
2.16411 25.9063
2.34263 25.861
2.52115 26.209
2.69965 29.9521
2.87818 39.2593
3.05672 64.9435
3.23527 82.766
3.4138 46.2593
3.59237 39.7136
3.77094 41.8922
3.9495 43.9061
4.12809 54.2527
4.30669 77.1847
4.4853 68.9847
4.6639 55.0882
4.84253 59.7779
5.02118 88.6728
5.19981 242.451
5.37848 4214.46
5.55716 166.581
5.73586 98.2895
5.91455 104.169
6.09328 383.457
6.27201 406.362
6.45075 73.7427
6.62952 53.4318
6.8083 51.0144
6.98711 46.971
7.16591 50.9043
7.34475 68.8581
7.5236 62.8655
7.70247 54.1864
7.88135 38.295
8.06026 38.4159
8.23919 42.9329
8.41812 52.7324
8.59709 132.455
8.77609 808.047
8.9551 82.3967
9.13412 57.4146
9.31318 220.04
9.49226 50.1801
9.67134 47.5108
9.85047 52.9926
10.0296 82.4136
10.2088 332.881
10.388 175.483
10.5672 86.0496
10.7465 308.141
10.9257 48.2701
11.105 39.8869
11.2844 38.526
11.4637 37.0487
11.6431 36.3653
11.8225 35.7678
12.002 57.1697
12.1814 44.8746
12.3609 81.0201
12.5405 47.0532
12.72 38.1753
12.8996 37.7032
13.0792 39.22
13.2589 60.612
13.4386 108.151
13.6183 113.962
13.7981 115.806
13.9779 79.8568
14.1577 42.676
14.3376 59.8111
14.5175 34.7243
14.6974 34.42
14.8774 38.096
15.0574 52.1972
15.2374 130.868
15.4175 40.6661
15.5976 35.7478
15.7778 37.5333
15.958 48.8921
16.1382 142.562
16.3185 42.1879
16.4988 31.7158
16.6792 29.7631
16.8596 29.5892
17.04 36.2437
17.2205 31.1135
17.401 33.165
17.5815 53.6288
17.7622 33.2903
17.9428 41.6052
18.1237 41.0314
18.3044 71.0618
18.4852 67.4451
18.666 82.3896
18.8469 35.9504
19.0278 31.1826
19.2088 30.9079
19.3898 35.3267
19.5709 46.0626
19.752 40.5808
19.9332 30.3229
20.1144 30.7788
20.2957 37.3745
20.477 42.9501
20.6586 46.7008
20.84 29.9967
21.0215 30.5324
21.203 26.7624
21.3846 26.935
21.5662 32.3446
21.7479 28.0924
21.9297 29.5895
22.1115 36.5188
22.2933 52.6593
22.4753 40.6553
22.6572 29.1325
22.8393 28.3455
23.0214 31.088
23.2037 34.5536
23.3859 40.4828
23.5682 34.1543
23.7505 32.2877
23.9329 50.0792
24.1154 30.0477
24.2979 26.8264
24.4805 24.9728
24.6631 24.8267
24.8458 27.4441
25.0286 25.1147
25.2114 24.9595
25.3943 27.2148
25.5773 31.4025
25.7605 33.6925
25.9436 26.1204
26.1268 25.0323
26.31 25.1345
26.4933 29.9517
26.6767 25.5789
26.8601 26.0502
27.0437 33.4263
27.2272 29.5462
27.4109 24.0377
27.5946 23.4495
27.7784 23.8998
27.9623 25.9514
28.1462 24.9727
28.3304 26.4921
28.5145 30.9876
28.6987 27.3908
28.8829 22.7939
29.0673 21.694
29.2517 22.8019
29.4361 22.1649
29.6207 21.3257
29.8053 23.0977
29.99 21.1973
30.1748 20.6753
30.3597 21.046
30.5447 20.6465
30.7297 21.3208
30.915 20.7248
31.1002 23.3077
31.2855 23.4385
31.4708 20.5983
31.6563 20.0903
31.8418 21.2788
32.0275 21.7895
32.2132 20.4863
32.399 21.8577
32.5848 20.5779
32.7708 18.7978
32.9569 18.3257
33.143 18.7281
33.3293 18.0812
33.5158 18.4931
33.7022 19.692
33.8887 18.7582
34.0753 17.5911
34.262 17.3922
34.4488 17.5451
34.6357 16.8154
34.8227 17.0833
35.0098 16.4953
35.1969 15.9782
35.3842 16.1031
35.5716 16.1686
35.759 16.39
35.9468 17.489
36.1345 16.8692
36.3222 15.7507
36.5101 15.5606
36.6981 15.9637
36.8861 15.2698
37.0743 15.5232
37.2626 15.2612
37.451 14.6574
37.6395 14.356
37.8281 14.2315
38.0168 13.9605
38.2056 14.0892
38.3945 13.8099
38.5837 13.4018
38.7728 13.5374
38.9621 13.3525
39.1514 13.2252
39.3409 13.2054
39.5304 12.729
39.7201 12.5227
39.9099 12.5032
40.0999 12.2742
40.2899 12.2955
40.48 12.2934
40.6703 12.0325
40.8607 11.9014
41.0512 11.7148
41.242 11.7482
41.4327 11.662
41.6236 11.2639
41.8146 11.1531
42.0057 10.9955
42.1969 10.9947
42.3882 10.983
42.5797 10.6445
42.7713 10.3927
42.963 10.2863
43.1549 10.1164
43.3468 9.98941
43.5389 9.82848
43.7312 9.67735
43.9237 9.5675
44.1162 9.51165
44.3088 9.46928
44.5016 9.24223
44.6945 9.15823
44.8875 9.05881
45.0806 8.965
45.2739 8.90346
45.4673 8.68933
45.6609 8.53996
45.8546 8.44733
46.0484 8.40326
46.2424 8.2953
46.4365 8.12896
46.631 8.03702
46.8254 7.87576
47.0199 7.79405
47.2146 7.71566
47.4095 7.52601
47.6044 7.4438
47.7996 7.3454
47.9948 7.26764
48.1902 7.13121
48.3858 7.01606
48.5815 6.91467
48.7774 6.86275
48.9734 6.75722
49.1696 6.60971
49.3661 6.55708
49.5626 6.42987
49.7592 6.41478
49.956 6.28012
50.153 6.23125
50.3501 6.12821
50.5474 6.06049
50.7448 5.92527
50.9424 5.84955
51.1402 5.76831
51.3381 5.69795
51.5362 5.60829
51.7344 5.51972
51.9328 5.45273
52.1316 5.34351
52.3304 5.23339
52.5293 5.17069
52.7284 5.09272
52.9276 4.98426
53.1271 4.92073
53.3267 4.85429
53.5265 4.75584
53.7264 4.69585
53.9266 4.55777
54.1269 4.49399
54.3274 4.37517
54.528 4.25392
54.7289 4.122
54.9301 4.00425
55.1314 3.91686
55.3328 3.74208
55.5344 3.6089
55.7361 3.55315

File: Ni3Fe_FD0002.xy
TT I
1.27165 35.1738
1.45013 31.888
1.62863 27.7744
1.80712 25.9541
1.98562 25.3414
2.16411 25.6393
2.34263 26.0416
2.52115 26.4317
2.69965 30.4032
2.87818 39.8394
3.05672 65.1229
3.23527 82.206
3.4138 46.6392
3.59237 39.8216
3.77094 42.0261
3.9495 43.706
4.12809 54.1292
4.30669 77.5191
4.4853 68.8873
4.6639 55.0653
4.84253 59.7577
5.02118 89.7665
5.19981 243.583
5.37848 4201.73
5.55716 165.838
5.73586 99.0097
5.91455 104.525
6.09328 385.719
6.27201 400.886
6.45075 73.9396
6.62952 54.0379
6.8083 50.8515
6.98711 47.7173
7.16591 51.3481
7.34475 68.7727
7.5236 63.1667
7.70247 54.1938
7.88135 38.4784
8.06026 38.9656
8.23919 42.7668
8.41812 52.8373
8.59709 134.115
8.77609 803.868
8.9551 82.3671
9.13412 57.5881
9.31318 223.056
9.49226 50.3212
9.67134 47.7006
9.85047 53.1626
10.0296 82.8841
10.2088 337.411
10.388 173.001
10.5672 86.3131
10.7465 307.389
10.9257 48.6731
11.105 40.2453
11.2844 38.6882
11.4637 37.5862
11.6431 36.3558
11.8225 35.9555
12.002 57.8301
12.1814 44.9302
12.3609 81.4484
12.5405 46.9492
12.72 38.036
12.8996 38.121
13.0792 39.3919
13.2589 60.8872
13.4386 109.09
13.6183 112.532
13.7981 117.188
13.9779 78.3335
14.1577 42.6316
14.3376 58.9046
14.5175 34.8714
14.6974 34.4665
14.8774 38.457
15.0574 52.3223
15.2374 128.836
15.4175 40.8413
15.5976 35.9904
15.7778 37.7392
15.958 49.0253
16.1382 141.952
16.3185 41.9936
16.4988 31.9728
16.6792 29.9436
16.8596 29.6644
17.04 36.5464
17.2205 31.4479
17.401 33.256
17.5815 53.6357
17.7622 33.2045
17.9428 41.5264
18.1237 41.0865
18.3044 71.5712
18.4852 66.5366
18.666 81.6545
18.8469 36.06
19.0278 31.4968
19.2088 31.0127
19.3898 35.5596
19.5709 46.0624
19.752 40.3454
19.9332 30.3477
20.1144 30.9029
20.2957 37.6643
20.477 42.6515
20.6586 46.3893
20.84 30.1982
21.0215 30.3224
21.203 26.9885
21.3846 27.0451
21.5662 32.2715
21.7479 28.2024
21.9297 29.7938
22.1115 36.5717
22.2933 51.8952
22.4753 40.2956
22.6572 29.2443
22.8393 28.6235
23.0214 31.2128
23.2037 34.9266
23.3859 39.9703
23.5682 34.036
23.7505 32.5231
23.9329 49.7343
24.1154 30.0565
24.2979 26.9344
24.4805 24.9852
24.6631 25.0223
24.8458 27.5403
25.0286 25.3035
25.2114 24.996
25.3943 27.3478
25.5773 31.3067
25.7605 33.4428
25.9436 26.1212
26.1268 25.075
26.31 25.1757
26.4933 29.8581
26.6767 25.5298
26.8601 26.2993
27.0437 33.2873
27.2272 29.3342
27.4109 24.1622
27.5946 23.612
27.7784 23.9927
27.9623 25.8662
28.1462 25.0913
28.3304 26.5475
28.5145 30.649
28.6987 27.2726
28.8829 22.789
29.0673 21.8573
29.2517 22.8864
29.4361 22.2419
29.6207 21.3014
29.8053 23.0827
29.99 21.223
30.1748 20.6906
30.3597 21.0645
30.5447 20.7113
30.7297 21.3089
30.915 20.7124
31.1002 23.2915
31.2855 23.4941
31.4708 20.5606
31.6563 20.0683
31.8418 21.2828
32.0275 21.5928
32.2132 20.4913
32.399 21.8381
32.5848 20.4496
32.7708 18.8622
32.9569 18.3176
33.143 18.7006
33.3293 18.1972
33.5158 18.5353
33.7022 19.7297
33.8887 18.7158
34.0753 17.6483
34.262 17.4221
34.4488 17.5458
34.6357 16.8597
34.8227 17.159
35.0098 16.5314
35.1969 16.1241
35.3842 16.1672
35.5716 16.1503
35.759 16.4562
35.9468 17.5015
36.1345 16.7864
36.3222 15.7869
36.5101 15.524
36.6981 15.9871
36.8861 15.222
37.0743 15.5313
37.2626 15.2372
37.451 14.5726
37.6395 14.421
37.8281 14.2415
38.0168 14.0675
38.2056 14.2027
38.3945 13.7855
38.5837 13.4389
38.7728 13.5277
38.9621 13.3418
39.1514 13.278
39.3409 13.1479
39.5304 12.7423
39.7201 12.5405
39.9099 12.4946
40.0999 12.2901
40.2899 12.3927
40.48 12.3271
40.6703 12.0748
40.8607 11.9051
41.0512 11.7586
41.242 11.7211
41.4327 11.6916
41.6236 11.2875
41.8146 11.1595
42.0057 11.0258
42.1969 10.9752
42.3882 11.0137
42.5797 10.6326
42.7713 10.4023
42.963 10.2965
43.1549 10.1
43.3468 9.97341
43.5389 9.7819
43.7312 9.67586
43.9237 9.59642
44.1162 9.51066
44.3088 9.45101
44.5016 9.25965
44.6945 9.14194
44.8875 9.11375
45.0806 9.01166
45.2739 8.87126
45.4673 8.69194
45.6609 8.55004
45.8546 8.47017
46.0484 8.39338
46.2424 8.30843
46.4365 8.1339
46.631 8.0206
46.8254 7.90403
47.0199 7.8396
47.2146 7.67244
47.4095 7.56126
47.6044 7.43998
47.7996 7.3048
47.9948 7.29541
48.1902 7.13968
48.3858 7.04658
48.5815 6.93478
48.7774 6.81794
48.9734 6.75967
49.1696 6.63005
49.3661 6.5487
49.5626 6.47168
49.7592 6.38602
49.956 6.31117
50.153 6.21957
50.3501 6.1387
50.5474 6.06028
50.7448 5.95551
50.9424 5.85544
51.1402 5.78269
51.3381 5.68013
51.5362 5.62619
51.7344 5.50284
51.9328 5.41207
52.1316 5.294
52.3304 5.26161
52.5293 5.15224
52.7284 5.10865
52.9276 4.98063
53.1271 4.94956
53.3267 4.88247
53.5265 4.76069
53.7264 4.68237
53.9266 4.59026
54.1269 4.4829
54.3274 4.40857
54.528 4.26429
54.7289 4.11004
54.9301 4.01004
55.1314 3.92028
55.3328 3.74268
55.5344 3.60957
55.7361 3.58963

File: Ni3Fe_FD0003.xy
TT I
1.27165 35.8514
1.45013 31.9316
1.62863 27.9756
1.80712 25.9374
1.98562 25.2958
2.16411 25.9846
2.34263 26.691
2.52115 25.7679
2.69965 29.4655
2.87818 39.9854
3.05672 65.3667
3.23527 81.8167
3.4138 46.0633
3.59237 39.588
3.77094 41.7888
3.9495 43.6105
4.12809 54.046
4.30669 77.4469
4.4853 69.6731
4.6639 55.6711
4.84253 60.0413
5.02118 90.196
5.19981 246.068
5.37848 4182.12
5.55716 165.897
5.73586 98.8797
5.91455 105.414
6.09328 389.467
6.27201 395.12
6.45075 73.4353
6.62952 54.2537
6.8083 51.288
6.98711 47.7357
7.16591 51.4244
7.34475 69.2336
7.5236 63.7063
7.70247 53.7607
7.88135 39.0569
8.06026 39.0916
8.23919 43.2752
8.41812 53.4953
8.59709 135.3
8.77609 795.63
8.9551 82.2158
9.13412 57.5016
9.31318 226.066
9.49226 50.7693
9.67134 48.3816
9.85047 53.8915
10.0296 83.7887
10.2088 344.078
10.388 169.611
10.5672 86.8819
10.7465 306.072
10.9257 48.7391
11.105 40.4544
11.2844 39.0718
11.4637 37.5376
11.6431 36.6433
11.8225 36.18
12.002 58.897
12.1814 45.2329
12.3609 82.4749
12.5405 46.8602
12.72 38.4439
12.8996 38.2612
13.0792 39.9844
13.2589 61.0536
13.4386 111.175
13.6183 110.739
13.7981 118.873
13.9779 76.9664
14.1577 43.367
14.3376 57.8632
14.5175 35.0365
14.6974 34.9303
14.8774 38.8837
15.0574 52.8551
15.2374 126.376
15.4175 40.9849
15.5976 36.2464
15.7778 37.9993
15.958 49.4187
16.1382 140.846
16.3185 41.9043
16.4988 32.1919
16.6792 30.0392
16.8596 29.7723
17.04 36.8982
17.2205 31.533
17.401 33.4981
17.5815 53.2632
17.7622 33.4256
17.9428 41.7852
18.1237 41.3458
18.3044 72.6243
18.4852 65.2526
18.666 80.6601
18.8469 35.9619
19.0278 31.6601
19.2088 31.2903
19.3898 35.8969
19.5709 45.8379
19.752 39.8462
19.9332 30.493
20.1144 31.0451
20.2957 37.8765
20.477 42.0677
20.6586 45.7106
20.84 30.2539
21.0215 30.1956
21.203 27.0782
21.3846 27.1374
21.5662 32.4768
21.7479 28.3938
21.9297 29.8925
22.1115 36.8746
22.2933 51.117
22.4753 40.0717
22.6572 29.1997
22.8393 28.6863
23.0214 31.2118
23.2037 34.9965
23.3859 39.4157
23.5682 34.112
23.7505 32.6165
23.9329 49.3376
24.1154 29.8658
24.2979 26.8627
24.4805 25.2229
24.6631 25.0762
24.8458 27.5971
25.0286 25.3178
25.2114 25.1044
25.3943 27.5704
25.5773 31.2168
25.7605 32.963
25.9436 26.3032
26.1268 25.0433
26.31 25.3675
26.4933 29.8055
26.6767 25.5941
26.8601 26.2359
27.0437 33.0776
27.2272 29.1928
27.4109 24.2052
27.5946 23.6117
27.7784 24.1439
27.9623 25.8634
28.1462 25.1503
28.3304 26.4187
28.5145 30.4195
28.6987 27.0406
28.8829 22.9463
29.0673 21.9071
29.2517 22.8889
29.4361 22.2581
29.6207 21.3763
29.8053 23.1076
29.99 21.1382
30.1748 20.6885
30.3597 20.9774
30.5447 20.799
30.7297 21.3008
30.915 20.7375
31.1002 23.2817
31.2855 23.3623
31.4708 20.5995
31.6563 20.2077
31.8418 21.3673
32.0275 21.4699
32.2132 20.4982
32.399 21.7195
32.5848 20.3705
32.7708 18.8649
32.9569 18.4432
33.143 18.816
33.3293 18.1597
33.5158 18.5294
33.7022 19.6522
33.8887 18.6138
34.0753 17.6679
34.262 17.4502
34.4488 17.5675
34.6357 16.8608
34.8227 17.1975
35.0098 16.5264
35.1969 16.0748
35.3842 16.1988
35.5716 16.0997
35.759 16.4002
35.9468 17.4705
36.1345 16.6502
36.3222 15.7206
36.5101 15.5723
36.6981 15.8422
36.8861 15.2521
37.0743 15.4991
37.2626 15.1499
37.451 14.6052
37.6395 14.4534
37.8281 14.2521
38.0168 13.998
38.2056 14.1926
38.3945 13.7922
38.5837 13.4418
38.7728 13.4867
38.9621 13.4005
39.1514 13.2712
39.3409 13.0882
39.5304 12.707
39.7201 12.5561
39.9099 12.4872
40.0999 12.3202
40.2899 12.3662
40.48 12.3313
40.6703 12.0108
40.8607 11.9339
41.0512 11.7175
41.242 11.6941
41.4327 11.6392
41.6236 11.2557
41.8146 11.1606
42.0057 11.0159
42.1969 10.9809
42.3882 10.9961
42.5797 10.6289
42.7713 10.4129
42.963 10.3316
43.1549 10.1031
43.3468 9.97141
43.5389 9.8178
43.7312 9.68491
43.9237 9.5759
44.1162 9.54902
44.3088 9.44498
44.5016 9.27139
44.6945 9.10686
44.8875 9.11492
45.0806 9.00872
45.2739 8.86595
45.4673 8.73997
45.6609 8.53471
45.8546 8.49003
46.0484 8.38727
46.2424 8.29868
46.4365 8.10839
46.631 8.04609
46.8254 7.94352
47.0199 7.83021
47.2146 7.68732
47.4095 7.54891
47.6044 7.40592
47.7996 7.37911
47.9948 7.27483
48.1902 7.11566
48.3858 7.05087
48.5815 6.91479
48.7774 6.79839
48.9734 6.7549
49.1696 6.63427
49.3661 6.52681
49.5626 6.44022
49.7592 6.39614
49.956 6.30042
50.153 6.19835
50.3501 6.11029
50.5474 6.06555
50.7448 5.96467
50.9424 5.83089
51.1402 5.76751
51.3381 5.69037
51.5362 5.59502
51.7344 5.50614
51.9328 5.4295
52.1316 5.28603
52.3304 5.24619
52.5293 5.1764
52.7284 5.06473
52.9276 4.99038
53.1271 4.91628
53.3267 4.84695
53.5265 4.76312
53.7264 4.65183
53.9266 4.56808
54.1269 4.46756
54.3274 4.39807
54.528 4.28799
54.7289 4.16544
54.9301 4.0195
55.1314 3.9443
55.3328 3.74491
55.5344 3.58845
55.7361 3.53347

File: Ni3Fe_FD0004.xy
TT I
1.27165 36.0991
1.45013 31.6908
1.62863 28.0491
1.80712 26.3683
1.98562 25.5845
2.16411 25.9784
2.34263 26.5787
2.52115 26.2023
2.69965 30.0969
2.87818 39.4579
3.05672 65.9423
3.23527 81.1068
3.4138 45.9029
3.59237 40.0945
3.77094 42.019
3.9495 43.7911
4.12809 54.0318
4.30669 77.4476
4.4853 69.3939
4.6639 55.4869
4.84253 60.3591
5.02118 90.3631
5.19981 246.056
5.37848 4165.38
5.55716 165.252
5.73586 99.4755
5.91455 105.508
6.09328 391.405
6.27201 390.893
6.45075 73.5791
6.62952 54.2192
6.8083 51.8286
6.98711 47.5354
7.16591 51.5852
7.34475 69.5599
7.5236 63.6411
7.70247 53.6653
7.88135 39.4042
8.06026 39.0817
8.23919 43.3513
8.41812 53.7132
8.59709 136.056
8.77609 790.624
8.9551 82.1348
9.13412 57.7498
9.31318 228.006
9.49226 51.0506
9.67134 48.5795
9.85047 54.0984
10.0296 84.2366
10.2088 347.611
10.388 167.481
10.5672 87.0372
10.7465 305.781
10.9257 48.6459
11.105 40.653
11.2844 39.2276
11.4637 37.751
11.6431 36.7861
11.8225 36.3293
12.002 59.6219
12.1814 45.5636
12.3609 82.8009
12.5405 46.8572
12.72 38.6631
12.8996 38.4238
13.0792 39.9574
13.2589 61.3864
13.4386 111.939
13.6183 109.58
13.7981 120.101
13.9779 76.2551
14.1577 43.4555
14.3376 57.2422
14.5175 35.2425
14.6974 34.8115
14.8774 39.1763
15.0574 52.9647
15.2374 124.79
15.4175 40.9894
15.5976 36.399
15.7778 38.0616
15.958 49.4333
16.1382 140.392
16.3185 41.7835
16.4988 32.1852
16.6792 30.2565
16.8596 29.9524
17.04 36.894
17.2205 31.6925
17.401 33.6534
17.5815 53.0519
17.7622 33.3986
17.9428 41.6449
18.1237 41.5732
18.3044 73.2078
18.4852 64.6084
18.666 80.1712
18.8469 35.9764
19.0278 31.8127
19.2088 31.4805
19.3898 35.945
19.5709 45.8691
19.752 39.7052
19.9332 30.4902
20.1144 31.0591
20.2957 38.0978
20.477 41.9221
20.6586 45.5657
20.84 30.0849
21.0215 30.5261
21.203 27.1489
21.3846 27.2798
21.5662 32.5132
21.7479 28.3949
21.9297 29.8024
22.1115 37.1404
22.2933 50.6531
22.4753 39.8488
22.6572 29.3555
22.8393 28.801
23.0214 31.231
23.2037 35.2546
23.3859 38.9919
23.5682 34.3258
23.7505 32.6376
23.9329 49.1973
24.1154 29.7744
24.2979 26.9333
24.4805 25.2562
24.6631 25.0014
24.8458 27.5412
25.0286 25.3768
25.2114 25.1124
25.3943 27.5023
25.5773 31.0472
25.7605 32.8753
25.9436 26.2883
26.1268 25.2041
26.31 25.3797
26.4933 29.6803
26.6767 25.5668
26.8601 26.294
27.0437 32.9454
27.2272 29.0666
27.4109 24.2716
27.5946 23.712
27.7784 24.2187
27.9623 25.7175
28.1462 25.1119
28.3304 26.4425
28.5145 30.2754
28.6987 26.8882
28.8829 22.873
29.0673 21.8677
29.2517 22.984
29.4361 22.1354
29.6207 21.4313
29.8053 23.0173
29.99 21.1893
30.1748 20.6991
30.3597 21.0326
30.5447 21.0094
30.7297 21.2718
30.915 20.8423
31.1002 23.1798
31.2855 23.26
31.4708 20.6161
31.6563 20.2232
31.8418 21.3432
32.0275 21.3749
32.2132 20.4875
32.399 21.6981
32.5848 20.3396
32.7708 18.8306
32.9569 18.4157
33.143 18.8304
33.3293 18.2097
33.5158 18.553
33.7022 19.5824
33.8887 18.5753
34.0753 17.6695
34.262 17.4351
34.4488 17.5288
34.6357 16.8536
34.8227 17.1037
35.0098 16.5902
35.1969 16.07
35.3842 16.1697
35.5716 16.2272
35.759 16.4458
35.9468 17.3703
36.1345 16.6831
36.3222 15.8211
36.5101 15.6076
36.6981 15.8912
36.8861 15.315
37.0743 15.4959
37.2626 15.135
37.451 14.5597
37.6395 14.4122
37.8281 14.2812
38.0168 13.9932
38.2056 14.103
38.3945 13.7563
38.5837 13.4984
38.7728 13.5461
38.9621 13.3791
39.1514 13.304
39.3409 13.1031
39.5304 12.7132
39.7201 12.5136
39.9099 12.5085
40.0999 12.288
40.2899 12.4067
40.48 12.3471
40.6703 12.054
40.8607 11.9131
41.0512 11.7557
41.242 11.7172
41.4327 11.6029
41.6236 11.2818
41.8146 11.1342
42.0057 11.0092
42.1969 10.9715
42.3882 10.9662
42.5797 10.6472
42.7713 10.3838
42.963 10.3023
43.1549 10.1815
43.3468 9.96907
43.5389 9.80283
43.7312 9.7066
43.9237 9.57143
44.1162 9.5327
44.3088 9.45775
44.5016 9.31034
44.6945 9.16693
44.8875 9.05045
45.0806 8.99031
45.2739 8.87083
45.4673 8.68921
45.6609 8.54876
45.8546 8.51261
46.0484 8.38502
46.2424 8.30769
46.4365 8.1257
46.631 8.04806
46.8254 7.89738
47.0199 7.82753
47.2146 7.69262
47.4095 7.57432
47.6044 7.41078
47.7996 7.33922
47.9948 7.26168
48.1902 7.11865
48.3858 7.02069
48.5815 6.93738
48.7774 6.85296
48.9734 6.75865
49.1696 6.63834
49.3661 6.57246
49.5626 6.43128
49.7592 6.42307
49.956 6.30163
50.153 6.22504
50.3501 6.1354
50.5474 6.05468
50.7448 5.94199
50.9424 5.85252
51.1402 5.79003
51.3381 5.68928
51.5362 5.58748
51.7344 5.49678
51.9328 5.38967
52.1316 5.29335
52.3304 5.23776
52.5293 5.12973
52.7284 5.06349
52.9276 4.99551
53.1271 4.91216
53.3267 4.84193
53.5265 4.75628
53.7264 4.67464
53.9266 4.56107
54.1269 4.49734
54.3274 4.40145
54.528 4.28073
54.7289 4.18246
54.9301 4.04908
55.1314 3.92587
55.3328 3.75552
55.5344 3.63841
55.7361 3.48446

File: Ni3Fe_FD0005.xy
TT I
1.27165 35.3144
1.45013 31.9988
1.62863 28.4395
1.80712 26.1386
1.98562 25.8692
2.16411 25.8528
2.34263 25.9102
2.52115 25.9319
2.69965 29.8937
2.87818 40.2046
3.05672 65.738
3.23527 81.4971
3.4138 45.8668
3.59237 40.375
3.77094 42.1665
3.9495 44.2552
4.12809 54.6956
4.30669 77.7656
4.4853 69.8826
4.6639 55.3576
4.84253 60.358
5.02118 90.3423
5.19981 248.09
5.37848 4153.47
5.55716 165.18
5.73586 99.2461
5.91455 105.598
6.09328 393.488
6.27201 387.464
6.45075 74.0353
6.62952 54.42
6.8083 51.5698
6.98711 48.0116
7.16591 51.5921
7.34475 69.7147
7.5236 64.0358
7.70247 53.634
7.88135 38.9736
8.06026 39.4986
8.23919 43.4614
8.41812 53.8481
8.59709 136.795
8.77609 785.009
8.9551 81.8699
9.13412 58.2452
9.31318 230.558
9.49226 50.9639
9.67134 49.0099
9.85047 54.2643
10.0296 84.7207
10.2088 351.728
10.388 165.549
10.5672 87.2471
10.7465 304.193
10.9257 49.0194
11.105 40.9735
11.2844 39.3491
11.4637 37.8807
11.6431 36.9957
11.8225 36.781
12.002 60.1974
12.1814 45.5127
12.3609 83.3558
12.5405 46.8098
12.72 38.7057
12.8996 38.5402
13.0792 40.1079
13.2589 61.0452
13.4386 113.157
13.6183 108.412
13.7981 121.348
13.9779 75.3374
14.1577 43.7367
14.3376 56.5982
14.5175 35.5504
14.6974 35.2058
14.8774 39.2731
15.0574 53.2601
15.2374 123.455
15.4175 41.0702
15.5976 36.4455
15.7778 38.3889
15.958 49.4114
16.1382 139.674
16.3185 41.6654
16.4988 32.2738
16.6792 30.4713
16.8596 30.1091
17.04 37.3668
17.2205 31.7805
17.401 33.8138
17.5815 52.8558
17.7622 33.4835
17.9428 41.4463
18.1237 41.6388
18.3044 73.6278
18.4852 63.9755
18.666 79.3472
18.8469 36.0012
19.0278 31.7776
19.2088 31.5651
19.3898 36.2656
19.5709 45.7846
19.752 39.1858
19.9332 30.6415
20.1144 31.1642
20.2957 38.2488
20.477 41.5032
20.6586 45.1678
20.84 30.4319
21.0215 30.2083
21.203 27.1392
21.3846 27.4541
21.5662 32.4012
21.7479 28.4131
21.9297 29.8434
22.1115 37.1889
22.2933 50.2157
22.4753 39.6245
22.6572 29.4179
22.8393 28.7654
23.0214 31.1929
23.2037 35.4603
23.3859 38.6022
23.5682 34.3306
23.7505 32.4986
23.9329 48.779
24.1154 29.7664
24.2979 26.9252
24.4805 25.4043
24.6631 25.2652
24.8458 27.7343
25.0286 25.5214
25.2114 25.3071
25.3943 27.5719
25.5773 30.9813
25.7605 32.3935
25.9436 26.2475
26.1268 25.1501
26.31 25.4471
26.4933 29.5441
26.6767 25.6294
26.8601 26.4913
27.0437 32.8689
27.2272 28.9628
27.4109 24.3732
27.5946 23.8422
27.7784 24.2669
27.9623 25.7957
28.1462 25.1829
28.3304 26.5044
28.5145 30.0468
28.6987 26.8986
28.8829 23.0075
29.0673 22.0595
29.2517 23.0034
29.4361 22.2408
29.6207 21.5302
29.8053 23.084
29.99 21.297
30.1748 20.826
30.3597 21.0021
30.5447 20.8553
30.7297 21.2609
30.915 20.8406
31.1002 23.3597
31.2855 23.0871
31.4708 20.5605
31.6563 20.2534
31.8418 21.3926
32.0275 21.354
32.2132 20.6096
32.399 21.6785
32.5848 20.2405
32.7708 18.895
32.9569 18.4785
33.143 18.8781
33.3293 18.1908
33.5158 18.6194
33.7022 19.5577
33.8887 18.5582
34.0753 17.672
34.262 17.5126
34.4488 17.4845
34.6357 16.8824
34.8227 17.1188
35.0098 16.5806
35.1969 16.1263
35.3842 16.2009
35.5716 16.2188
35.759 16.4477
35.9468 17.3705
36.1345 16.6682
36.3222 15.7502
36.5101 15.6293
36.6981 15.8728
36.8861 15.2339
37.0743 15.4932
37.2626 15.1519
37.451 14.5906
37.6395 14.4287
37.8281 14.2516
38.0168 14.0042
38.2056 14.1318
38.3945 13.8222
38.5837 13.4931
38.7728 13.5109
38.9621 13.3364
39.1514 13.2991
39.3409 13.058
39.5304 12.7569
39.7201 12.5621
39.9099 12.4792
40.0999 12.2857
40.2899 12.4112
40.48 12.2726
40.6703 12.0332
40.8607 11.9622
41.0512 11.805
41.242 11.7523
41.4327 11.6113
41.6236 11.2033
41.8146 11.1048
42.0057 11.0194
42.1969 10.9561
42.3882 10.9085
42.5797 10.597
42.7713 10.4338
42.963 10.2965
43.1549 10.1309
43.3468 9.97903
43.5389 9.81601
43.7312 9.69148
43.9237 9.65593
44.1162 9.49981
44.3088 9.49545
44.5016 9.29674
44.6945 9.14261
44.8875 9.11628
45.0806 8.97793
45.2739 8.86141
45.4673 8.67439
45.6609 8.56371
45.8546 8.48867
46.0484 8.36844
46.2424 8.29946
46.4365 8.14249
46.631 8.04182
46.8254 7.91207
47.0199 7.79785
47.2146 7.68208
47.4095 7.52375
47.6044 7.43193
47.7996 7.32203
47.9948 7.27158
48.1902 7.14625
48.3858 7.00471
48.5815 6.95465
48.7774 6.83351
48.9734 6.73503
49.1696 6.65734
49.3661 6.55255
49.5626 6.42345
49.7592 6.3976
49.956 6.32872
50.153 6.22014
50.3501 6.1116
50.5474 6.05538
50.7448 5.97657
50.9424 5.8806
51.1402 5.78212
51.3381 5.64968
51.5362 5.60767
51.7344 5.49913
51.9328 5.40917
52.1316 5.31682
52.3304 5.23176
52.5293 5.1897
52.7284 5.06191
52.9276 4.98364
53.1271 4.95898
53.3267 4.86682
53.5265 4.74681
53.7264 4.70282
53.9266 4.6023
54.1269 4.5367
54.3274 4.38587
54.528 4.27576
54.7289 4.12437
54.9301 4.03691
55.1314 3.85365
55.3328 3.75417
55.5344 3.60846
55.7361 3.51863