Folder: NiFe_MOF_catalyst_paper/XRD (part 170)

File: Ni3Fe_FD0923.xy
TT I
1.27165 7.31892
1.45013 6.4745
1.62863 5.46198
1.80712 5.26077
1.98562 4.66662
2.16411 4.81577
2.34263 5.80845
2.52115 7.8097
2.69965 9.15101
2.87818 8.93747
3.05672 11.5661
3.23527 15.3487
3.4138 18.316
3.59237 23.2924
3.77094 26.0095
3.9495 29.4322
4.12809 33.7112
4.30669 104.608
4.4853 53.5151
4.6639 54.9406
4.84253 68.1743
5.02118 86.225
5.19981 369.753
5.37848 191.415
5.55716 101.21
5.73586 91.736
5.91455 94.1128
6.09328 4689.14
6.27201 78.7859
6.45075 69.0545
6.62952 62.1982
6.8083 58.7578
6.98711 55.0465
7.16591 55.7652
7.34475 67.0521
7.5236 53.5201
7.70247 56.3436
7.88135 56.9253
8.06026 61.9146
8.23919 68.4431
8.41812 82.5711
8.59709 1204.36
8.77609 95.6719
8.9551 89.2282
9.13412 82.096
9.31318 83.8234
9.49226 83.7342
9.67134 94.5579
9.85047 100.157
10.0296 331.431
10.2088 322.107
10.388 103.31
10.5672 549.11
10.7465 84.7348
10.9257 76.9728
11.105 70.456
11.2844 67.7202
11.4637 63.8527
11.6431 62.3476
11.8225 61.7808
12.002 63.3496
12.1814 158.681
12.3609 65.7964
12.5405 63.9451
12.72 67.0156
12.8996 70.4883
13.0792 79.2892
13.2589 246.102
13.4386 114.292
13.6183 258.564
13.7981 91.4639
13.9779 74.6236
14.1577 70.7464
14.3376 69.1808
14.5175 67.7396
14.6974 69.5404
14.8774 110.135
15.0574 136.947
15.2374 68.4781
15.4175 65.3605
15.5976 64.8783
15.7778 94.3783
15.958 144.649
16.1382 60.3851
16.3185 56.9918
16.4988 54.4932
16.6792 53.525
16.8596 53.9777
17.04 54.9815
17.2205 65.858
17.401 67.3405
17.5815 58.3465
17.7622 60.6448
17.9428 72.3593
18.1237 139.836
18.3044 90.8268
18.4852 73.0966
18.666 59.234
18.8469 57.0505
19.0278 55.8134
19.2088 58.2268
19.3898 74.8618
19.5709 53.1651
19.752 52.3112
19.9332 55.2771
20.1144 69.2919
20.2957 64.0789
20.477 51.8771
20.6586 48.7937
20.84 48.0575
21.0215 47.9403
21.203 50.1239
21.3846 47.9554
21.5662 48.2002
21.7479 51.9138
21.9297 64.0565
22.1115 55.5558
22.2933 48.562
22.4753 47.8639
22.6572 48.1135
22.8393 51.3299
23.0214 55.8957
23.2037 48.0667
23.3859 48.8491
23.5682 57.0903
23.7505 46.7608
23.9329 44.4846
24.1154 43.3902
24.2979 42.6309
24.4805 42.3061
24.6631 42.0192
24.8458 41.6056
25.0286 42.184
25.2114 44.0081
25.3943 43.6718
25.5773 40.178
25.7605 39.6965
25.9436 40.2646
26.1268 40.9906
26.31 39.3427
26.4933 40.1526
26.6767 41.4586
26.8601 39.7313
27.0437 38.2885
27.2272 37.8538
27.4109 37.75
27.5946 37.824
27.7784 37.3039
27.9623 37.8835
28.1462 38.055
28.3304 36.4832
28.5145 35.3809
28.6987 34.9415
28.8829 34.8369
29.0673 34.0259
29.2517 33.7626
29.4361 33.4528
29.6207 32.5491
29.8053 32.3598
29.99 32.1205
30.1748 31.9558
30.3597 31.5874
30.5447 31.6558
30.7297 31.7764
30.915 31.0481
31.1002 30.5778
31.2855 30.3606
31.4708 30.3649
31.6563 29.7353
31.8418 29.6593
32.0275 29.3703
32.2132 28.7568
32.399 28.4227
32.5848 28.0884
32.7708 27.7075
32.9569 27.5678
33.143 27.3225
33.3293 26.9168
33.5158 26.5635
33.7022 26.1384
33.8887 25.9249
34.0753 25.6197
34.262 25.1925
34.4488 24.8767
34.6357 24.5992
34.8227 24.3206
35.0098 24.0558
35.1969 23.781
35.3842 23.593
35.5716 23.3717
35.759 23.0514
35.9468 22.682
36.1345 22.4573
36.3222 22.2429
36.5101 22.0811
36.6981 21.776
36.8861 21.4256
37.0743 21.1177
37.2626 20.8683
37.451 20.6549
37.6395 20.4252
37.8281 20.1224
38.0168 19.8664
38.2056 19.6367
38.3945 19.3823
38.5837 19.1479
38.7728 18.8507
38.9621 18.6804
39.1514 18.4
39.3409 18.1314
39.5304 17.8889
39.7201 17.747
39.9099 17.6006
40.0999 17.3363
40.2899 17.0668
40.48 16.7983
40.6703 16.6543
40.8607 16.4291
41.0512 16.3142
41.242 15.9725
41.4327 15.7741
41.6236 15.5924
41.8146 15.3745
42.0057 15.1534
42.1969 14.9935
42.3882 14.8057
42.5797 14.5423
42.7713 14.3777
42.963 14.1993
43.1549 13.9694
43.3468 13.7183
43.5389 13.6174
43.7312 13.4066
43.9237 13.1943
44.1162 13.0246
44.3088 12.87
44.5016 12.683
44.6945 12.4677
44.8875 12.3223
45.0806 12.1434
45.2739 11.9932
45.4673 11.8517
45.6609 11.6904
45.8546 11.4762
46.0484 11.3401
46.2424 11.1637
46.4365 11.0289
46.631 10.8409
46.8254 10.6906
47.0199 10.5305
47.2146 10.3703
47.4095 10.1952
47.6044 10.0457
47.7996 9.90762
47.9948 9.76728
48.1902 9.61922
48.3858 9.51825
48.5815 9.37944
48.7774 9.25752
48.9734 9.11681
49.1696 8.94414
49.3661 8.80394
49.5626 8.67815
49.7592 8.52794
49.956 8.38654
50.153 8.27557
50.3501 8.15132
50.5474 8.04121
50.7448 7.92906
50.9424 7.8085
51.1402 7.66596
51.3381 7.53224
51.5362 7.4611
51.7344 7.28768
51.9328 7.18119
52.1316 7.02592
52.3304 6.95925
52.5293 6.86678
52.7284 6.71806
52.9276 6.62537
53.1271 6.49434
53.3267 6.36142
53.5265 6.26649
53.7264 6.17457
53.9266 6.04337
54.1269 5.94889
54.3274 5.84258
54.528 5.69602
54.7289 5.56817
54.9301 5.32784
55.1314 5.26794
55.3328 5.09217
55.5344 4.90471
55.7361 4.78166

File: Ni3Fe_FD0924.xy
TT I
1.27165 7.28037
1.45013 5.55137
1.62863 5.57762
1.80712 4.31166
1.98562 4.45454
2.16411 5.08439
2.34263 6.19907
2.52115 7.47478
2.69965 8.77113
2.87818 9.29922
3.05672 11.7908
3.23527 15.1671
3.4138 18.4914
3.59237 22.9097
3.77094 25.2986
3.9495 29.2635
4.12809 33.7375
4.30669 103.948
4.4853 53.5267
4.6639 55.0176
4.84253 67.8804
5.02118 85.768
5.19981 369.039
5.37848 191.537
5.55716 100.786
5.73586 91.6105
5.91455 93.2842
6.09328 4649.74
6.27201 78.8096
6.45075 69.0064
6.62952 62.37
6.8083 58.91
6.98711 54.7604
7.16591 55.769
7.34475 66.9785
7.5236 53.5926
7.70247 56.0236
7.88135 56.9108
8.06026 62.1667
8.23919 68.2623
8.41812 82.2704
8.59709 1206.67
8.77609 96.0796
8.9551 88.739
9.13412 81.8228
9.31318 83.7633
9.49226 83.688
9.67134 94.1884
9.85047 100.459
10.0296 330.46
10.2088 324.346
10.388 103.13
10.5672 546.064
10.7465 84.8337
10.9257 77.0527
11.105 70.3481
11.2844 67.6255
11.4637 63.8347
11.6431 62.5425
11.8225 61.6164
12.002 63.4202
12.1814 158.631
12.3609 65.719
12.5405 64.2274
12.72 66.9052
12.8996 70.1685
13.0792 78.9215
13.2589 245.934
13.4386 115.031
13.6183 258.874
13.7981 91.9185
13.9779 74.5516
14.1577 70.771
14.3376 69.1769
14.5175 67.828
14.6974 69.5978
14.8774 110.199
15.0574 137.629
15.2374 68.444
15.4175 65.4883
15.5976 64.708
15.7778 93.7144
15.958 146.728
16.1382 60.287
16.3185 56.8914
16.4988 54.5726
16.6792 53.6691
16.8596 53.9586
17.04 54.9649
17.2205 65.9109
17.401 67.7032
17.5815 58.1095
17.7622 60.3156
17.9428 72.2872
18.1237 140.21
18.3044 90.7634
18.4852 72.7594
18.666 59.3119
18.8469 57.0705
19.0278 55.5997
19.2088 58.1818
19.3898 74.8489
19.5709 53.1116
19.752 52.4397
19.9332 55.3841
20.1144 69.6684
20.2957 64.0721
20.477 51.9611
20.6586 48.7039
20.84 47.9833
21.0215 47.82
21.203 50.2503
21.3846 47.9346
21.5662 48.1653
21.7479 51.8099
21.9297 64.1558
22.1115 55.6166
22.2933 48.7253
22.4753 47.8989
22.6572 48.1831
22.8393 51.3608
23.0214 56.209
23.2037 47.9352
23.3859 48.9396
23.5682 56.9611
23.7505 46.9096
23.9329 44.4463
24.1154 43.3111
24.2979 42.6677
24.4805 42.4302
24.6631 42.1056
24.8458 41.393
25.0286 42.2892
25.2114 43.9595
25.3943 43.783
25.5773 40.1787
25.7605 39.8315
25.9436 40.1455
26.1268 41.0723
26.31 39.4425
26.4933 40.088
26.6767 41.4636
26.8601 39.7178
27.0437 38.2693
27.2272 37.8807
27.4109 37.7977
27.5946 37.6507
27.7784 37.2534
27.9623 37.9169
28.1462 38.0952
28.3304 36.4369
28.5145 35.3408
28.6987 34.9655
28.8829 34.9528
29.0673 34.0318
29.2517 33.7773
29.4361 33.5688
29.6207 32.5781
29.8053 32.4249
29.99 31.9116
30.1748 31.9762
30.3597 31.6639
30.5447 31.6968
30.7297 31.7326
30.915 31.1364
31.1002 30.6715
31.2855 30.3991
31.4708 30.2421
31.6563 29.8341
31.8418 29.7446
32.0275 29.413
32.2132 28.9113
32.399 28.4348
32.5848 27.9725
32.7708 27.7737
32.9569 27.5867
33.143 27.2878
33.3293 26.9488
33.5158 26.621
33.7022 26.2045
33.8887 25.9151
34.0753 25.5692
34.262 25.2513
34.4488 24.8937
34.6357 24.5129
34.8227 24.276
35.0098 24.054
35.1969 23.7938
35.3842 23.5902
35.5716 23.3427
35.759 23.0744
35.9468 22.7703
36.1345 22.49
36.3222 22.2683
36.5101 22.0497
36.6981 21.7991
36.8861 21.4779
37.0743 21.1112
37.2626 20.8433
37.451 20.6568
37.6395 20.4687
37.8281 20.1277
38.0168 19.888
38.2056 19.616
38.3945 19.3209
38.5837 19.0969
38.7728 18.898
38.9621 18.5536
39.1514 18.3755
39.3409 18.1481
39.5304 17.9185
39.7201 17.7412
39.9099 17.5566
40.0999 17.3194
40.2899 17.1266
40.48 16.8439
40.6703 16.6185
40.8607 16.414
41.0512 16.245
41.242 16.0203
41.4327 15.7864
41.6236 15.537
41.8146 15.3735
42.0057 15.2129
42.1969 15.0034
42.3882 14.7902
42.5797 14.5822
42.7713 14.3651
42.963 14.1998
43.1549 13.9754
43.3468 13.7619
43.5389 13.6394
43.7312 13.3841
43.9237 13.2346
44.1162 13.0094
44.3088 12.8651
44.5016 12.6831
44.6945 12.52
44.8875 12.3677
45.0806 12.1803
45.2739 11.9759
45.4673 11.8401
45.6609 11.6766
45.8546 11.5042
46.0484 11.3619
46.2424 11.1603
46.4365 11.0124
46.631 10.8255
46.8254 10.6611
47.0199 10.537
47.2146 10.4022
47.4095 10.1933
47.6044 10.0922
47.7996 9.92755
47.9948 9.75667
48.1902 9.63147
48.3858 9.48913
48.5815 9.36637
48.7774 9.25659
48.9734 9.07222
49.1696 8.94241
49.3661 8.80533
49.5626 8.63217
49.7592 8.55833
49.956 8.42331
50.153 8.2739
50.3501 8.1517
50.5474 8.02394
50.7448 7.89389
50.9424 7.8164
51.1402 7.69289
51.3381 7.53431
51.5362 7.42611
51.7344 7.31098
51.9328 7.16709
52.1316 7.03956
52.3304 6.97628
52.5293 6.82811
52.7284 6.73331
52.9276 6.5991
53.1271 6.53616
53.3267 6.37694
53.5265 6.27266
53.7264 6.18366
53.9266 6.0444
54.1269 5.95171
54.3274 5.83063
54.528 5.68537
54.7289 5.59787
54.9301 5.38251
55.1314 5.27738
55.3328 5.06234
55.5344 4.85341
55.7361 4.70419

File: Ni3Fe_FD0926.xy
TT I
1.27165 7.4075
1.45013 5.90645
1.62863 5.49305
1.80712 4.41985
1.98562 4.86583
2.16411 5.18203
2.34263 5.31642
2.52115 7.41686
2.69965 9.56921
2.87818 9.06654
3.05672 11.0864
3.23527 15.1691
3.4138 18.7862
3.59237 22.9419
3.77094 25.4545
3.9495 29.3139
4.12809 33.5681
4.30669 100.859
4.4853 53.3002
4.6639 55.2123
4.84253 67.9045
5.02118 85.8093
5.19981 371.206
5.37848 192.279
5.55716 100.849
5.73586 91.9701
5.91455 93.5573
6.09328 4676.13
6.27201 78.2986
6.45075 69.2204
6.62952 62.0259
6.8083 58.7653
6.98711 55.0649
7.16591 55.8978
7.34475 66.4291
7.5236 53.6246
7.70247 56.3329
7.88135 56.5268
8.06026 61.5653
8.23919 68.5231
8.41812 81.998
8.59709 1208.18
8.77609 95.7582
8.9551 88.9497
9.13412 82.1686
9.31318 84.1934
9.49226 83.668
9.67134 94.5628
9.85047 100.283
10.0296 330.067
10.2088 322.033
10.388 102.908
10.5672 544.595
10.7465 84.4095
10.9257 76.5919
11.105 70.4207
11.2844 67.2126
11.4637 63.5213
11.6431 62.5059
11.8225 61.4598
12.002 63.414
12.1814 159.213
12.3609 65.4623
12.5405 63.7789
12.72 66.9747
12.8996 70.4626
13.0792 79.3695
13.2589 245.56
13.4386 114.64
13.6183 258.833
13.7981 91.5022
13.9779 74.7246
14.1577 70.6495
14.3376 69.0678
14.5175 67.6879
14.6974 69.589
14.8774 110.183
15.0574 136.624
15.2374 68.0093
15.4175 65.1357
15.5976 64.818
15.7778 93.8046
15.958 145.79
16.1382 60.2033
16.3185 56.9253
16.4988 54.3461
16.6792 53.418
16.8596 53.906
17.04 55.0805
17.2205 66.0425
17.401 67.4573
17.5815 58.0127
17.7622 60.348
17.9428 72.4077
18.1237 139.947
18.3044 90.8516
18.4852 72.7767
18.666 59.2188
18.8469 56.9391
19.0278 55.883
19.2088 58.1402
19.3898 74.6464
19.5709 53.0017
19.752 52.3192
19.9332 55.128
20.1144 69.4525
20.2957 64.0264
20.477 51.6631
20.6586 48.6095
20.84 47.9799
21.0215 47.6656
21.203 50.2026
21.3846 47.9665
21.5662 48.1862
21.7479 51.7649
21.9297 64.1465
22.1115 55.5413
22.2933 48.5134
22.4753 47.8601
22.6572 47.9481
22.8393 51.2221
23.0214 56.1078
23.2037 47.8024
23.3859 48.7971
23.5682 56.9818
23.7505 46.8341
23.9329 44.2699
24.1154 43.3975
24.2979 42.6702
24.4805 42.1697
24.6631 42.0458
24.8458 41.4656
25.0286 42.122
25.2114 43.9113
25.3943 43.7518
25.5773 40.2881
25.7605 39.7433
25.9436 40.2071
26.1268 41.2244
26.31 39.4576
26.4933 40.102
26.6767 41.5446
26.8601 39.6457
27.0437 38.2752
27.2272 37.8763
27.4109 37.7376
27.5946 37.7154
27.7784 37.3141
27.9623 37.7889
28.1462 38.1234
28.3304 36.3455
28.5145 35.3024
28.6987 35.0881
28.8829 34.8879
29.0673 33.9341
29.2517 33.7144
29.4361 33.6601
29.6207 32.5519
29.8053 32.2891
29.99 31.9846
30.1748 31.9081
30.3597 31.6084
30.5447 31.5903
30.7297 31.7087
30.915 31.1761
31.1002 30.494
31.2855 30.3154
31.4708 30.3434
31.6563 29.8679
31.8418 29.6103
32.0275 29.411
32.2132 28.8621
32.399 28.4744
32.5848 28.0236
32.7708 27.6707
32.9569 27.5724
33.143 27.2796
33.3293 26.8526
33.5158 26.6167
33.7022 26.1753
33.8887 25.8738
34.0753 25.5665
34.262 25.2175
34.4488 24.9465
34.6357 24.5815
34.8227 24.237
35.0098 23.9884
35.1969 23.758
35.3842 23.5778
35.5716 23.3467
35.759 23.0257
35.9468 22.6882
36.1345 22.4768
36.3222 22.2871
36.5101 22.0117
36.6981 21.8028
36.8861 21.3382
37.0743 21.0576
37.2626 20.8263
37.451 20.6197
37.6395 20.4295
37.8281 20.1355
38.0168 19.8868
38.2056 19.5885
38.3945 19.3364
38.5837 19.1218
38.7728 18.8607
38.9621 18.6002
39.1514 18.382
39.3409 18.1457
39.5304 17.9184
39.7201 17.7224
39.9099 17.4851
40.0999 17.2772
40.2899 17.0586
40.48 16.7591
40.6703 16.6232
40.8607 16.4527
41.0512 16.1707
41.242 15.9142
41.4327 15.7934
41.6236 15.5358
41.8146 15.3276
42.0057 15.1597
42.1969 14.9192
42.3882 14.7951
42.5797 14.5664
42.7713 14.3497
42.963 14.1703
43.1549 13.9555
43.3468 13.7639
43.5389 13.6315
43.7312 13.4275
43.9237 13.177
44.1162 13.0147
44.3088 12.8413
44.5016 12.6612
44.6945 12.4741
44.8875 12.3402
45.0806 12.1329
45.2739 11.9783
45.4673 11.8093
45.6609 11.6119
45.8546 11.506
46.0484 11.3186
46.2424 11.1545
46.4365 11.0078
46.631 10.8536
46.8254 10.6648
47.0199 10.4616
47.2146 10.3174
47.4095 10.2097
47.6044 10.0325
47.7996 9.88345
47.9948 9.77125
48.1902 9.63834
48.3858 9.5009
48.5815 9.36163
48.7774 9.24465
48.9734 9.07053
49.1696 8.92247
49.3661 8.80529
49.5626 8.65678
49.7592 8.51973
49.956 8.38299
50.153 8.28338
50.3501 8.13488
50.5474 8.04306
50.7448 7.91229
50.9424 7.80305
51.1402 7.676
51.3381 7.55395
51.5362 7.43241
51.7344 7.2761
51.9328 7.17565
52.1316 7.07222
52.3304 6.92973
52.5293 6.83352
52.7284 6.68381
52.9276 6.63714
53.1271 6.4971
53.3267 6.38655
53.5265 6.25917
53.7264 6.13266
53.9266 6.07879
54.1269 5.97548
54.3274 5.88361
54.528 5.66023
54.7289 5.55752
54.9301 5.39122
55.1314 5.28851
55.3328 5.08115
55.5344 4.88299
55.7361 4.75443

File: Ni3Fe_FD0927.xy
TT I
1.27165 7.37913
1.45013 5.84901
1.62863 5.58916
1.80712 4.72885
1.98562 4.90929
2.16411 4.4355
2.34263 5.06549
2.52115 7.94647
2.69965 9.00108
2.87818 9.03623
3.05672 10.936
3.23527 14.8111
3.4138 18.4248
3.59237 23.0551
3.77094 25.4462
3.9495 29.3515
4.12809 33.9142
4.30669 99.789
4.4853 53.2742
4.6639 55.0817
4.84253 68.0173
5.02118 86.0804
5.19981 369.61
5.37848 193.317
5.55716 101.199
5.73586 91.6705
5.91455 93.5978
6.09328 4656.06
6.27201 78.6157
6.45075 69.8237
6.62952 62.1103
6.8083 59.175
6.98711 54.7721
7.16591 55.7158
7.34475 66.6747
7.5236 53.3235
7.70247 56.4113
7.88135 56.9949
8.06026 61.7458
8.23919 68.3946
8.41812 81.9192
8.59709 1204.52
8.77609 95.7028
8.9551 88.7538
9.13412 82.2731
9.31318 83.9643
9.49226 83.2976
9.67134 94.6159
9.85047 100.169
10.0296 328.477
10.2088 324.592
10.388 103.241
10.5672 541.171
10.7465 84.7667
10.9257 76.866
11.105 70.1255
11.2844 67.3539
11.4637 63.7634
11.6431 62.3711
11.8225 61.6879
12.002 63.3306
12.1814 159.735
12.3609 65.4366
12.5405 63.8905
12.72 67.2529
12.8996 70.2943
13.0792 79.3583
13.2589 244.956
13.4386 114.33
13.6183 258.543
13.7981 91.6624
13.9779 74.6297
14.1577 70.6825
14.3376 69.1107
14.5175 67.8068
14.6974 69.5045
14.8774 110.323
15.0574 137.424
15.2374 68.4124
15.4175 65.1614
15.5976 64.8758
15.7778 93.5081
15.958 145.627
16.1382 60.2874
16.3185 56.732
16.4988 54.5328
16.6792 53.3235
16.8596 53.8062
17.04 54.9206
17.2205 66.1417
17.401 67.5144
17.5815 58.1735
17.7622 60.2811
17.9428 72.0853
18.1237 140.458
18.3044 90.6497
18.4852 72.8248
18.666 59.146
18.8469 56.9727
19.0278 55.6377
19.2088 58.0629
19.3898 74.7324
19.5709 53.0628
19.752 52.4382
19.9332 55.2329
20.1144 69.3282
20.2957 63.9745
20.477 51.722
20.6586 48.7778
20.84 47.9521
21.0215 47.7927
21.203 50.1056
21.3846 47.845
21.5662 48.1008
21.7479 51.8804
21.9297 64.182
22.1115 55.49
22.2933 48.6321
22.4753 47.9072
22.6572 48.0602
22.8393 51.2822
23.0214 56.1338
23.2037 47.9222
23.3859 48.8904
23.5682 56.9364
23.7505 46.7762
23.9329 44.5096
24.1154 43.2234
24.2979 42.6068
24.4805 42.2656
24.6631 42.1592
24.8458 41.6019
25.0286 42.2177
25.2114 43.9971
25.3943 43.7997
25.5773 40.1896
25.7605 39.7408
25.9436 40.1389
26.1268 41.1398
26.31 39.3598
26.4933 40.0327
26.6767 41.4153
26.8601 39.7485
27.0437 38.2376
27.2272 37.9118
27.4109 37.8133
27.5946 37.7212
27.7784 37.1924
27.9623 37.8126
28.1462 38.1608
28.3304 36.4029
28.5145 35.32
28.6987 34.9831
28.8829 34.8616
29.0673 33.9601
29.2517 33.7394
29.4361 33.4672
29.6207 32.5266
29.8053 32.3472
29.99 32.0163
30.1748 31.8227
30.3597 31.7539
30.5447 31.5763
30.7297 31.6096
30.915 31.0896
31.1002 30.6564
31.2855 30.384
31.4708 30.3627
31.6563 29.7784
31.8418 29.679
32.0275 29.3801
32.2132 28.8542
32.399 28.3893
32.5848 27.9684
32.7708 27.7138
32.9569 27.3883
33.143 27.3676
33.3293 26.864
33.5158 26.5714
33.7022 26.2095
33.8887 25.8439
34.0753 25.4587
34.262 25.2384
34.4488 24.8962
34.6357 24.467
34.8227 24.3064
35.0098 24.027
35.1969 23.8102
35.3842 23.5966
35.5716 23.383
35.759 23.0804
35.9468 22.7057
36.1345 22.4754
36.3222 22.2712
36.5101 22.1007
36.6981 21.7771
36.8861 21.4429
37.0743 21.1327
37.2626 20.8946
37.451 20.5953
37.6395 20.4822
37.8281 20.1619
38.0168 19.8855
38.2056 19.608
38.3945 19.4034
38.5837 19.0663
38.7728 18.8714
38.9621 18.5755
39.1514 18.3829
39.3409 18.0929
39.5304 17.9349
39.7201 17.6852
39.9099 17.476
40.0999 17.3157
40.2899 17.0716
40.48 16.7901
40.6703 16.7036
40.8607 16.4735
41.0512 16.2326
41.242 15.9583
41.4327 15.7771
41.6236 15.5899
41.8146 15.3382
42.0057 15.2117
42.1969 14.9744
42.3882 14.7609
42.5797 14.5726
42.7713 14.3573
42.963 14.162
43.1549 13.9898
43.3468 13.7225
43.5389 13.6658
43.7312 13.3936
43.9237 13.1792
44.1162 13.0317
44.3088 12.8558
44.5016 12.6603
44.6945 12.5016
44.8875 12.3195
45.0806 12.148
45.2739 11.9914
45.4673 11.8359
45.6609 11.6458
45.8546 11.493
46.0484 11.3399
46.2424 11.1747
46.4365 11.0446
46.631 10.848
46.8254 10.6557
47.0199 10.4837
47.2146 10.3732
47.4095 10.1949
47.6044 10.0434
47.7996 9.91539
47.9948 9.74548
48.1902 9.62391
48.3858 9.50324
48.5815 9.33677
48.7774 9.23947
48.9734 9.06787
49.1696 8.92747
49.3661 8.83019
49.5626 8.61886
49.7592 8.52765
49.956 8.40933
50.153 8.29815
50.3501 8.18171
50.5474 8.02593
50.7448 7.89202
50.9424 7.75596
51.1402 7.65336
51.3381 7.5378
51.5362 7.4493
51.7344 7.3104
51.9328 7.16183
52.1316 7.03897
52.3304 6.9517
52.5293 6.82922
52.7284 6.72201
52.9276 6.6019
53.1271 6.50727
53.3267 6.37363
53.5265 6.29063
53.7264 6.17821
53.9266 6.06441
54.1269 5.94469
54.3274 5.83613
54.528 5.71445
54.7289 5.55909
54.9301 5.39353
55.1314 5.21553
55.3328 5.05147
55.5344 4.82206
55.7361 4.77434

File: Ni3Fe_FD0928.xy
TT I
1.27165 7.59743
1.45013 6.30788
1.62863 5.28952
1.80712 4.43406
1.98562 4.26337
2.16411 4.95243
2.34263 5.12796
2.52115 6.96248
2.69965 8.69609
2.87818 9.50426
3.05672 11.3997
3.23527 15.2125
3.4138 18.977
3.59237 23.1436
3.77094 25.5998
3.9495 29.3413
4.12809 33.9353
4.30669 98.4148
4.4853 52.6498
4.6639 54.8558
4.84253 67.654
5.02118 86.2431
5.19981 368.97
5.37848 193.377
5.55716 100.82
5.73586 91.8616
5.91455 93.7437
6.09328 4680.43
6.27201 78.9856
6.45075 69.7414
6.62952 62.5563
6.8083 58.8496
6.98711 54.9215
7.16591 55.9068
7.34475 65.8698
7.5236 53.6598
7.70247 56.189
7.88135 56.8966
8.06026 62.0891
8.23919 68.6717
8.41812 82.5026
8.59709 1206.19
8.77609 95.8465
8.9551 88.7666
9.13412 81.9296
9.31318 84.2954
9.49226 83.7961
9.67134 94.6949
9.85047 100.609
10.0296 328.346
10.2088 325.447
10.388 103.143
10.5672 543.528
10.7465 84.9927
10.9257 76.9155
11.105 70.2216
11.2844 67.5284
11.4637 63.4774
11.6431 62.396
11.8225 61.7068
12.002 63.3271
12.1814 159.506
12.3609 65.5685
12.5405 64.0357
12.72 66.6537
12.8996 70.5513
13.0792 79.3508
13.2589 245.516
13.4386 114.396
13.6183 258.45
13.7981 91.6787
13.9779 74.7278
14.1577 70.4948
14.3376 69.2516
14.5175 67.6264
14.6974 69.6669
14.8774 110.134
15.0574 137.489
15.2374 68.4074
15.4175 65.2283
15.5976 64.6635
15.7778 93.6372
15.958 145.787
16.1382 60.2998
16.3185 56.7591
16.4988 54.3595
16.6792 53.5103
16.8596 54.1082
17.04 55.0729
17.2205 66.2132
17.401 67.384
17.5815 58.1922
17.7622 60.3158
17.9428 72.2001
18.1237 140.68
18.3044 90.8396
18.4852 72.8677
18.666 59.1205
18.8469 57.0765
19.0278 55.7884
19.2088 57.9754
19.3898 74.8649
19.5709 52.94
19.752 52.5217
19.9332 55.4469
20.1144 69.4374
20.2957 64.1046
20.477 51.7602
20.6586 48.7808
20.84 47.9658
21.0215 47.5777
21.203 50.137
21.3846 47.9086
21.5662 48.0817
21.7479 51.6769
21.9297 64.2732
22.1115 55.6491
22.2933 48.699
22.4753 47.8398
22.6572 48.0129
22.8393 51.3473
23.0214 56.0718
23.2037 48.0534
23.3859 48.8538
23.5682 56.9244
23.7505 47.101
23.9329 44.468
24.1154 43.3409
24.2979 42.7576
24.4805 42.3665
24.6631 41.9443
24.8458 41.4481
25.0286 42.2586
25.2114 43.9457
25.3943 43.8781
25.5773 40.1879
25.7605 39.6424
25.9436 40.216
26.1268 41.0509
26.31 39.2797
26.4933 40.2106
26.6767 41.5354
26.8601 39.7607
27.0437 38.2959
27.2272 37.7921
27.4109 37.7877
27.5946 37.8211
27.7784 37.4427
27.9623 37.8833
28.1462 38.178
28.3304 36.5379
28.5145 35.4787
28.6987 35.0171
28.8829 34.9329
29.0673 34.0602
29.2517 33.8155
29.4361 33.5375
29.6207 32.6006
29.8053 32.3596
29.99 31.9585
30.1748 31.9016
30.3597 31.7296
30.5447 31.7256
30.7297 31.6572
30.915 31.05
31.1002 30.5941
31.2855 30.4432
31.4708 30.3013
31.6563 29.8053
31.8418 29.7657
32.0275 29.4273
32.2132 28.8158
32.399 28.4225
32.5848 28.0469
32.7708 27.6992
32.9569 27.5322
33.143 27.3636
33.3293 26.9175
33.5158 26.5328
33.7022 26.1621
33.8887 25.9103
34.0753 25.5655
34.262 25.2934
34.4488 24.9016
34.6357 24.4932
34.8227 24.2563
35.0098 24.1013
35.1969 23.7418
35.3842 23.5593
35.5716 23.405
35.759 23.0354
35.9468 22.6326
36.1345 22.4847
36.3222 22.3342
36.5101 22.0715
36.6981 21.7397
36.8861 21.4407
37.0743 21.128
37.2626 20.8897
37.451 20.6531
37.6395 20.4287
37.8281 20.1491
38.0168 19.8668
38.2056 19.605
38.3945 19.3358
38.5837 19.052
38.7728 18.8683
38.9621 18.605
39.1514 18.3471
39.3409 18.1714
39.5304 17.9593
39.7201 17.7348
39.9099 17.525
40.0999 17.2695
40.2899 17.0337
40.48 16.8203
40.6703 16.5875
40.8607 16.465
41.0512 16.2382
41.242 15.9682
41.4327 15.7328
41.6236 15.5935
41.8146 15.4053
42.0057 15.1564
42.1969 14.9302
42.3882 14.7931
42.5797 14.5585
42.7713 14.3592
42.963 14.1746
43.1549 13.9429
43.3468 13.7534
43.5389 13.5952
43.7312 13.3809
43.9237 13.2779
44.1162 13.0259
44.3088 12.8562
44.5016 12.6832
44.6945 12.5275
44.8875 12.3148
45.0806 12.1421
45.2739 11.9896
45.4673 11.8085
45.6609 11.6631
45.8546 11.4921
46.0484 11.3374
46.2424 11.1124
46.4365 11.0072
46.631 10.8417
46.8254 10.6631
47.0199 10.4962
47.2146 10.3887
47.4095 10.2035
47.6044 10.0502
47.7996 9.89125
47.9948 9.75811
48.1902 9.64266
48.3858 9.5283
48.5815 9.33753
48.7774 9.24101
48.9734 9.07404
49.1696 8.96434
49.3661 8.81254
49.5626 8.62392
49.7592 8.53248
49.956 8.40001
50.153 8.27897
50.3501 8.127
50.5474 8.06373
50.7448 7.93727
50.9424 7.79462
51.1402 7.65689
51.3381 7.52771
51.5362 7.43118
51.7344 7.27082
51.9328 7.17118
52.1316 7.05078
52.3304 6.93498
52.5293 6.83446
52.7284 6.73268
52.9276 6.62797
53.1271 6.54531
53.3267 6.39387
53.5265 6.26218
53.7264 6.1594
53.9266 6.10246
54.1269 5.94094
54.3274 5.84578
54.528 5.68418
54.7289 5.57199
54.9301 5.401
55.1314 5.25432
55.3328 5.04227
55.5344 4.85911
55.7361 4.69762