Folder: NiFe_MOF_catalyst_paper/XRD (part 151)

File: Ni3Fe_FD0819.xy
TT I
1.27165 7.22911
1.45013 6.27978
1.62863 5.57425
1.80712 4.83843
1.98562 4.78216
2.16411 4.81158
2.34263 5.76152
2.52115 7.40968
2.69965 8.00529
2.87818 8.69063
3.05672 10.8997
3.23527 14.8592
3.4138 19.0387
3.59237 23.3653
3.77094 25.6564
3.9495 29.9189
4.12809 34.3815
4.30669 102.321
4.4853 53.4024
4.6639 55.474
4.84253 68.1041
5.02118 86.8985
5.19981 400.972
5.37848 192.376
5.55716 101.377
5.73586 92.108
5.91455 94.3489
6.09328 4578.98
6.27201 79.6236
6.45075 69.6805
6.62952 62.3429
6.8083 58.9744
6.98711 54.8606
7.16591 55.5106
7.34475 66.2569
7.5236 53.873
7.70247 56.3659
7.88135 57.1883
8.06026 62.2428
8.23919 68.7193
8.41812 82.9043
8.59709 1223.8
8.77609 96.855
8.9551 88.9632
9.13412 82.2162
9.31318 84.236
9.49226 84.389
9.67134 94.6812
9.85047 101.192
10.0296 342.711
10.2088 346.728
10.388 104.411
10.5672 539.093
10.7465 85.2921
10.9257 77.0278
11.105 70.8281
11.2844 67.5873
11.4637 64.0025
11.6431 62.7575
11.8225 62.1705
12.002 63.9997
12.1814 161.06
12.3609 66.3805
12.5405 64.5747
12.72 67.4796
12.8996 70.904
13.0792 79.972
13.2589 249.209
13.4386 117.529
13.6183 259.031
13.7981 93.1333
13.9779 75.0942
14.1577 71.2105
14.3376 69.6153
14.5175 68.2422
14.6974 70.004
14.8774 112.1
15.0574 140.269
15.2374 68.872
15.4175 65.5754
15.5976 65.2999
15.7778 95.3747
15.958 146.144
16.1382 60.8413
16.3185 57.0611
16.4988 54.9432
16.6792 53.8052
16.8596 54.2008
17.04 55.5202
17.2205 66.9259
17.401 68.5606
17.5815 58.4441
17.7622 60.6183
17.9428 73.2976
18.1237 141.457
18.3044 91.0401
18.4852 74.0085
18.666 59.4916
18.8469 57.2951
19.0278 56.1942
19.2088 58.6346
19.3898 75.572
19.5709 53.6155
19.752 52.8542
19.9332 55.8195
20.1144 69.7881
20.2957 64.042
20.477 52.3951
20.6586 49.0749
20.84 48.2537
21.0215 48.2016
21.203 50.599
21.3846 48.3141
21.5662 48.5155
21.7479 52.4059
21.9297 64.1913
22.1115 55.7366
22.2933 49.0801
22.4753 48.0755
22.6572 48.4188
22.8393 51.7466
23.0214 56.4477
23.2037 48.2693
23.3859 49.2447
23.5682 56.9777
23.7505 47.4359
23.9329 44.6893
24.1154 43.601
24.2979 42.9683
24.4805 42.6533
24.6631 42.2956
24.8458 41.7971
25.0286 42.4248
25.2114 44.2287
25.3943 43.926
25.5773 40.3518
25.7605 40.0063
25.9436 40.4798
26.1268 41.3426
26.31 39.5727
26.4933 40.3096
26.6767 41.7652
26.8601 39.8806
27.0437 38.4913
27.2272 38.2378
27.4109 38.0906
27.5946 38.02
27.7784 37.4767
27.9623 38.0645
28.1462 38.3561
28.3304 36.593
28.5145 35.5393
28.6987 35.2074
28.8829 34.995
29.0673 34.3473
29.2517 33.9395
29.4361 33.7366
29.6207 32.7689
29.8053 32.4828
29.99 32.1817
30.1748 32.0847
30.3597 31.9492
30.5447 31.9472
30.7297 31.8962
30.915 31.3219
31.1002 30.7484
31.2855 30.511
31.4708 30.5138
31.6563 29.9654
31.8418 29.9314
32.0275 29.5894
32.2132 29.0791
32.399 28.6792
32.5848 28.1534
32.7708 27.8818
32.9569 27.6496
33.143 27.4607
33.3293 27.1583
33.5158 26.7111
33.7022 26.366
33.8887 26.0271
34.0753 25.8005
34.262 25.2984
34.4488 25.0345
34.6357 24.7458
34.8227 24.433
35.0098 24.2414
35.1969 23.9744
35.3842 23.7345
35.5716 23.5582
35.759 23.1636
35.9468 22.9067
36.1345 22.6306
36.3222 22.3915
36.5101 22.1926
36.6981 21.8794
36.8861 21.4743
37.0743 21.3129
37.2626 21.0096
37.451 20.8211
37.6395 20.6184
37.8281 20.2359
38.0168 19.9841
38.2056 19.7518
38.3945 19.5157
38.5837 19.2447
38.7728 19.0154
38.9621 18.8002
39.1514 18.5442
39.3409 18.3062
39.5304 18.0493
39.7201 17.8278
39.9099 17.6338
40.0999 17.4226
40.2899 17.2183
40.48 17.0095
40.6703 16.7839
40.8607 16.5284
41.0512 16.3954
41.242 16.1114
41.4327 15.8284
41.6236 15.6794
41.8146 15.4583
42.0057 15.2739
42.1969 15.0597
42.3882 14.8448
42.5797 14.6549
42.7713 14.4576
42.963 14.2883
43.1549 14.103
43.3468 13.8213
43.5389 13.6711
43.7312 13.4727
43.9237 13.289
44.1162 13.1176
44.3088 12.9696
44.5016 12.7235
44.6945 12.5666
44.8875 12.432
45.0806 12.2358
45.2739 12.0294
45.4673 11.9083
45.6609 11.7119
45.8546 11.5463
46.0484 11.4416
46.2424 11.269
46.4365 11.0972
46.631 10.9108
46.8254 10.776
47.0199 10.6083
47.2146 10.4587
47.4095 10.267
47.6044 10.1028
47.7996 9.98901
47.9948 9.85648
48.1902 9.67838
48.3858 9.52638
48.5815 9.37975
48.7774 9.28533
48.9734 9.14248
49.1696 8.98688
49.3661 8.85764
49.5626 8.69615
49.7592 8.56313
49.956 8.45937
50.153 8.29216
50.3501 8.22095
50.5474 8.08701
50.7448 7.9624
50.9424 7.84124
51.1402 7.70714
51.3381 7.61
51.5362 7.46758
51.7344 7.34727
51.9328 7.20489
52.1316 7.10088
52.3304 6.98469
52.5293 6.86253
52.7284 6.7548
52.9276 6.65103
53.1271 6.56971
53.3267 6.45601
53.5265 6.30001
53.7264 6.21981
53.9266 6.15327
54.1269 5.99342
54.3274 5.87954
54.528 5.71656
54.7289 5.58856
54.9301 5.39222
55.1314 5.28408
55.3328 5.11486
55.5344 4.91312
55.7361 4.71611

File: Ni3Fe_FD0820.xy
TT I
1.27165 7.12184
1.45013 6.14853
1.62863 5.43941
1.80712 4.69105
1.98562 4.69056
2.16411 4.94384
2.34263 5.07765
2.52115 7.43649
2.69965 8.52334
2.87818 8.8291
3.05672 11.0802
3.23527 14.9102
3.4138 19.1393
3.59237 23.2607
3.77094 25.462
3.9495 29.3036
4.12809 33.9072
4.30669 101.194
4.4853 52.7937
4.6639 55.1122
4.84253 68.5091
5.02118 86.5231
5.19981 400.98
5.37848 192.43
5.55716 101.586
5.73586 92.3351
5.91455 94.919
6.09328 4578.61
6.27201 79.4616
6.45075 69.6494
6.62952 62.4396
6.8083 59.2343
6.98711 55.3446
7.16591 55.9173
7.34475 66.2627
7.5236 53.8348
7.70247 56.7212
7.88135 57.3252
8.06026 62.5707
8.23919 68.7882
8.41812 83.0385
8.59709 1224.71
8.77609 96.5463
8.9551 88.7838
9.13412 82.4412
9.31318 84.4257
9.49226 84.42
9.67134 94.981
9.85047 101.099
10.0296 344.333
10.2088 349.002
10.388 104.792
10.5672 539.032
10.7465 85.4673
10.9257 77.3505
11.105 70.981
11.2844 67.7302
11.4637 64.2449
11.6431 62.711
11.8225 62.1997
12.002 63.8256
12.1814 160.81
12.3609 65.8889
12.5405 64.5673
12.72 67.177
12.8996 70.8629
13.0792 80.0953
13.2589 249.071
13.4386 117.561
13.6183 258.988
13.7981 93.3029
13.9779 75.2162
14.1577 71.3181
14.3376 69.5916
14.5175 68.2211
14.6974 70.271
14.8774 111.866
15.0574 140.142
15.2374 68.9731
15.4175 65.6762
15.5976 65.4539
15.7778 95.5532
15.958 146.714
16.1382 60.6523
16.3185 57.3553
16.4988 54.9729
16.6792 53.7
16.8596 54.2999
17.04 55.5363
17.2205 66.9462
17.401 68.5887
17.5815 58.6892
17.7622 60.8573
17.9428 73.2112
18.1237 141.724
18.3044 91.1572
18.4852 73.9574
18.666 59.6233
18.8469 57.5944
19.0278 56.1686
19.2088 58.7052
19.3898 75.6257
19.5709 53.4395
19.752 52.8743
19.9332 55.7345
20.1144 69.7007
20.2957 63.9942
20.477 52.4465
20.6586 49.0732
20.84 48.2483
21.0215 48.0309
21.203 50.4644
21.3846 48.2463
21.5662 48.5678
21.7479 52.3702
21.9297 64.0733
22.1115 55.7545
22.2933 49.0577
22.4753 48.2211
22.6572 48.4914
22.8393 51.8347
23.0214 56.3744
23.2037 48.2584
23.3859 49.4244
23.5682 56.9627
23.7505 47.2747
23.9329 44.728
24.1154 43.4111
24.2979 43.0755
24.4805 42.5359
24.6631 42.2557
24.8458 41.7959
25.0286 42.4932
25.2114 44.2643
25.3943 44.0821
25.5773 40.3882
25.7605 39.9561
25.9436 40.2909
26.1268 41.3648
26.31 39.6089
26.4933 40.407
26.6767 41.8944
26.8601 39.9252
27.0437 38.4724
27.2272 38.2044
27.4109 38.039
27.5946 37.9611
27.7784 37.5079
27.9623 38.1812
28.1462 38.3982
28.3304 36.6181
28.5145 35.5808
28.6987 35.2524
28.8829 35.0819
29.0673 34.2214
29.2517 34.0314
29.4361 33.7522
29.6207 32.7673
29.8053 32.5341
29.99 32.1082
30.1748 31.99
30.3597 31.8642
30.5447 31.7779
30.7297 31.9056
30.915 31.1762
31.1002 30.7897
31.2855 30.4958
31.4708 30.5275
31.6563 29.981
31.8418 29.9156
32.0275 29.6234
32.2132 28.9973
32.399 28.6428
32.5848 28.2732
32.7708 27.8226
32.9569 27.7533
33.143 27.6737
33.3293 27.1152
33.5158 26.6842
33.7022 26.227
33.8887 25.9894
34.0753 25.6239
34.262 25.4241
34.4488 25.0146
34.6357 24.7118
34.8227 24.4063
35.0098 24.3025
35.1969 23.9685
35.3842 23.6858
35.5716 23.5481
35.759 23.3093
35.9468 22.9117
36.1345 22.6955
36.3222 22.3902
36.5101 22.1593
36.6981 21.828
36.8861 21.609
37.0743 21.2663
37.2626 21.0621
37.451 20.764
37.6395 20.6227
37.8281 20.2649
38.0168 19.9148
38.2056 19.7713
38.3945 19.407
38.5837 19.165
38.7728 18.9742
38.9621 18.7583
39.1514 18.4659
39.3409 18.2735
39.5304 18.0057
39.7201 17.8557
39.9099 17.7024
40.0999 17.3962
40.2899 17.171
40.48 16.9387
40.6703 16.776
40.8607 16.5293
41.0512 16.3614
41.242 16.0848
41.4327 15.8846
41.6236 15.6292
41.8146 15.4881
42.0057 15.2989
42.1969 15.0446
42.3882 14.8406
42.5797 14.6888
42.7713 14.5055
42.963 14.2941
43.1549 14.0722
43.3468 13.8858
43.5389 13.6781
43.7312 13.5026
43.9237 13.3469
44.1162 13.0988
44.3088 12.9401
44.5016 12.751
44.6945 12.6045
44.8875 12.4045
45.0806 12.2352
45.2739 12.041
45.4673 11.9129
45.6609 11.6989
45.8546 11.5875
46.0484 11.3903
46.2424 11.2244
46.4365 11.0541
46.631 10.9306
46.8254 10.7434
47.0199 10.6335
47.2146 10.4727
47.4095 10.2798
47.6044 10.1307
47.7996 9.97024
47.9948 9.84099
48.1902 9.6361
48.3858 9.53865
48.5815 9.4321
48.7774 9.30537
48.9734 9.1563
49.1696 8.99974
49.3661 8.85054
49.5626 8.6901
49.7592 8.64167
49.956 8.47706
50.153 8.32198
50.3501 8.17095
50.5474 8.13568
50.7448 7.9749
50.9424 7.85378
51.1402 7.69729
51.3381 7.56883
51.5362 7.48609
51.7344 7.37419
51.9328 7.21384
52.1316 7.12116
52.3304 6.9453
52.5293 6.83808
52.7284 6.75489
52.9276 6.64294
53.1271 6.55821
53.3267 6.42672
53.5265 6.29727
53.7264 6.24375
53.9266 6.08594
54.1269 6.00356
54.3274 5.86277
54.528 5.72355
54.7289 5.57872
54.9301 5.42393
55.1314 5.24297
55.3328 5.07647
55.5344 4.93158
55.7361 4.74906

File: Ni3Fe_FD0821.xy
TT I
1.27165 7.21663
1.45013 6.21827
1.62863 5.1082
1.80712 4.46099
1.98562 4.33082
2.16411 4.70559
2.34263 4.86241
2.52115 7.07419
2.69965 8.28211
2.87818 8.58763
3.05672 10.2729
3.23527 14.8547
3.4138 18.7707
3.59237 23.0486
3.77094 25.5548
3.9495 29.4449
4.12809 33.925
4.30669 99.7643
4.4853 52.9216
4.6639 55.3182
4.84253 68.2944
5.02118 86.581
5.19981 401.964
5.37848 193.474
5.55716 101.564
5.73586 92.0003
5.91455 94.5492
6.09328 4584.63
6.27201 79.3252
6.45075 69.956
6.62952 62.4015
6.8083 59.3741
6.98711 55.0836
7.16591 55.831
7.34475 65.9414
7.5236 53.7277
7.70247 56.585
7.88135 57.2036
8.06026 62.3064
8.23919 68.975
8.41812 83.0977
8.59709 1221.2
8.77609 96.9661
8.9551 88.9611
9.13412 82.1952
9.31318 84.2993
9.49226 84.1672
9.67134 94.8585
9.85047 101.07
10.0296 343.498
10.2088 347.441
10.388 104.245
10.5672 539.389
10.7465 85.3145
10.9257 77.2918
11.105 70.7226
11.2844 67.9841
11.4637 64.474
11.6431 62.7475
11.8225 62.1493
12.002 64.0922
12.1814 160.639
12.3609 65.9641
12.5405 64.5553
12.72 67.4011
12.8996 70.5365
13.0792 80.1794
13.2589 249.393
13.4386 117.782
13.6183 259.198
13.7981 93.2809
13.9779 75.0516
14.1577 70.9692
14.3376 69.704
14.5175 68.3354
14.6974 69.8885
14.8774 111.769
15.0574 139.872
15.2374 68.9056
15.4175 65.5688
15.5976 65.2688
15.7778 95.768
15.958 146.536
16.1382 60.8589
16.3185 57.2219
16.4988 54.5566
16.6792 53.8871
16.8596 54.4532
17.04 55.6605
17.2205 66.9499
17.401 68.6646
17.5815 58.5657
17.7622 60.8424
17.9428 73.2683
18.1237 141.586
18.3044 91.1817
18.4852 73.9658
18.666 59.6632
18.8469 57.6127
19.0278 56.1136
19.2088 58.753
19.3898 75.6727
19.5709 53.4997
19.752 52.6279
19.9332 55.7541
20.1144 69.676
20.2957 64.0914
20.477 52.3964
20.6586 49.044
20.84 48.2507
21.0215 48.0737
21.203 50.3312
21.3846 48.3308
21.5662 48.575
21.7479 52.53
21.9297 64.1048
22.1115 55.6627
22.2933 49.2952
22.4753 48.1605
22.6572 48.4413
22.8393 51.5686
23.0214 56.4226
23.2037 48.1854
23.3859 49.3417
23.5682 57.1463
23.7505 47.3295
23.9329 44.8021
24.1154 43.7172
24.2979 42.9296
24.4805 42.5919
24.6631 42.2369
24.8458 41.6844
25.0286 42.4278
25.2114 44.2532
25.3943 44.0754
25.5773 40.5392
25.7605 40.0048
25.9436 40.4823
26.1268 41.2431
26.31 39.6066
26.4933 40.4345
26.6767 41.8062
26.8601 40.1784
27.0437 38.3714
27.2272 38.1536
27.4109 38.0542
27.5946 38.0286
27.7784 37.5374
27.9623 38.0532
28.1462 38.3789
28.3304 36.7497
28.5145 35.5901
28.6987 35.0576
28.8829 35.0812
29.0673 34.3291
29.2517 33.9562
29.4361 33.7496
29.6207 32.8062
29.8053 32.5382
29.99 32.1256
30.1748 32.1584
30.3597 31.922
30.5447 31.8026
30.7297 31.98
30.915 31.2451
31.1002 30.7573
31.2855 30.5626
31.4708 30.6219
31.6563 30.0571
31.8418 29.8124
32.0275 29.5302
32.2132 28.9984
32.399 28.6485
32.5848 28.2029
32.7708 27.8064
32.9569 27.7696
33.143 27.4787
33.3293 27.1249
33.5158 26.6745
33.7022 26.2654
33.8887 26.0897
34.0753 25.6813
34.262 25.3738
34.4488 25.0251
34.6357 24.742
34.8227 24.4025
35.0098 24.1629
35.1969 23.9437
35.3842 23.8157
35.5716 23.496
35.759 23.2258
35.9468 22.8537
36.1345 22.6765
36.3222 22.4472
36.5101 22.1671
36.6981 21.8445
36.8861 21.4967
37.0743 21.2681
37.2626 21.0339
37.451 20.7779
37.6395 20.6125
37.8281 20.2602
38.0168 19.9722
38.2056 19.7093
38.3945 19.4522
38.5837 19.2044
38.7728 19.0244
38.9621 18.6455
39.1514 18.4646
39.3409 18.2161
39.5304 18.0611
39.7201 17.9447
39.9099 17.6397
40.0999 17.453
40.2899 17.1682
40.48 16.9032
40.6703 16.7855
40.8607 16.555
41.0512 16.2812
41.242 16.0915
41.4327 15.896
41.6236 15.6878
41.8146 15.4478
42.0057 15.2683
42.1969 15.0472
42.3882 14.8394
42.5797 14.6199
42.7713 14.4903
42.963 14.3156
43.1549 14.0968
43.3468 13.8952
43.5389 13.6803
43.7312 13.4891
43.9237 13.32
44.1162 13.0832
44.3088 12.9684
44.5016 12.7317
44.6945 12.6257
44.8875 12.465
45.0806 12.2755
45.2739 12.0818
45.4673 11.8926
45.6609 11.7483
45.8546 11.5868
46.0484 11.3909
46.2424 11.2488
46.4365 11.0954
46.631 10.9202
46.8254 10.7035
47.0199 10.5885
47.2146 10.4482
47.4095 10.27
47.6044 10.1004
47.7996 9.97301
47.9948 9.83671
48.1902 9.66409
48.3858 9.56476
48.5815 9.43386
48.7774 9.29197
48.9734 9.16216
49.1696 8.99039
49.3661 8.84482
49.5626 8.72816
49.7592 8.5993
49.956 8.49259
50.153 8.37218
50.3501 8.21188
50.5474 8.09581
50.7448 7.9754
50.9424 7.83415
51.1402 7.73303
51.3381 7.58245
51.5362 7.48881
51.7344 7.3304
51.9328 7.20892
52.1316 7.07356
52.3304 6.96808
52.5293 6.8344
52.7284 6.75094
52.9276 6.67085
53.1271 6.55457
53.3267 6.46366
53.5265 6.29321
53.7264 6.19337
53.9266 6.08479
54.1269 5.99894
54.3274 5.84676
54.528 5.76094
54.7289 5.57831
54.9301 5.40285
55.1314 5.29264
55.3328 5.11876
55.5344 4.92281
55.7361 4.78514

File: Ni3Fe_FD0822.xy
TT I
1.27165 7.035
1.45013 5.875
1.62863 5.52389
1.80712 4.78798
1.98562 4.73066
2.16411 5.14948
2.34263 5.47209
2.52115 7.2273
2.69965 8.53619
2.87818 9.02729
3.05672 11.1802
3.23527 15.1556
3.4138 18.4915
3.59237 22.4058
3.77094 25.6104
3.9495 29.3436
4.12809 33.7582
4.30669 99.0162
4.4853 53.0027
4.6639 54.9348
4.84253 68.3158
5.02118 86.6603
5.19981 403.001
5.37848 193.32
5.55716 101.759
5.73586 92.4595
5.91455 94.7334
6.09328 4570.51
6.27201 79.5283
6.45075 69.6835
6.62952 62.5989
6.8083 59.0368
6.98711 55.1141
7.16591 56.2498
7.34475 65.6366
7.5236 53.6154
7.70247 56.7111
7.88135 57.2693
8.06026 62.3276
8.23919 68.8365
8.41812 82.9893
8.59709 1224.34
8.77609 96.8325
8.9551 89.0776
9.13412 82.7368
9.31318 84.8701
9.49226 84.2077
9.67134 94.9168
9.85047 100.929
10.0296 345.874
10.2088 349.319
10.388 104.589
10.5672 539.45
10.7465 85.4253
10.9257 77.3185
11.105 70.7234
11.2844 67.858
11.4637 64.0391
11.6431 62.7823
11.8225 62.1496
12.002 63.8914
12.1814 161.332
12.3609 66.3867
12.5405 64.5005
12.72 67.415
12.8996 70.8684
13.0792 80.1417
13.2589 249.458
13.4386 117.415
13.6183 259.179
13.7981 93.2944
13.9779 75.3042
14.1577 71.1834
14.3376 69.4767
14.5175 68.1249
14.6974 70.1561
14.8774 111.975
15.0574 139.616
15.2374 68.9318
15.4175 65.761
15.5976 65.4176
15.7778 95.2675
15.958 146.59
16.1382 60.6837
16.3185 57.2337
16.4988 54.6693
16.6792 53.725
16.8596 54.418
17.04 55.5669
17.2205 66.8246
17.401 68.3707
17.5815 58.7689
17.7622 60.9439
17.9428 73.1346
18.1237 141.958
18.3044 91.3718
18.4852 73.9698
18.666 59.7534
18.8469 57.5202
19.0278 56.1251
19.2088 58.7457
19.3898 75.6971
19.5709 53.4804
19.752 52.7596
19.9332 55.9133
20.1144 69.6318
20.2957 64.1216
20.477 52.397
20.6586 49.0523
20.84 48.4482
21.0215 48.0181
21.203 50.5157
21.3846 48.3383
21.5662 48.5627
21.7479 52.2616
21.9297 64.1413
22.1115 55.723
22.2933 48.9692
22.4753 48.1588
22.6572 48.6104
22.8393 51.6272
23.0214 56.3239
23.2037 48.375
23.3859 49.3048
23.5682 57.1349
23.7505 47.2952
23.9329 44.7306
24.1154 43.5947
24.2979 43.0485
24.4805 42.46
24.6631 42.3584
24.8458 41.7187
25.0286 42.4688
25.2114 44.262
25.3943 44.048
25.5773 40.3065
25.7605 39.9537
25.9436 40.4286
26.1268 41.2603
26.31 39.7782
26.4933 40.3188
26.6767 41.7536
26.8601 40.0128
27.0437 38.4836
27.2272 38.0571
27.4109 38.0456
27.5946 37.9292
27.7784 37.4361
27.9623 38.1229
28.1462 38.3525
28.3304 36.6412
28.5145 35.5745
28.6987 35.2701
28.8829 35.0389
29.0673 34.1507
29.2517 33.8831
29.4361 33.7962
29.6207 32.7517
29.8053 32.4582
29.99 32.2878
30.1748 32.1003
30.3597 31.8717
30.5447 31.9342
30.7297 31.8707
30.915 31.2368
31.1002 30.8034
31.2855 30.4811
31.4708 30.5009
31.6563 30.0163
31.8418 29.9011
32.0275 29.5295
32.2132 29.0383
32.399 28.5912
32.5848 28.1671
32.7708 27.8098
32.9569 27.7365
33.143 27.5089
33.3293 26.9839
33.5158 26.689
33.7022 26.2526
33.8887 26.0554
34.0753 25.774
34.262 25.3764
34.4488 25.0898
34.6357 24.6921
34.8227 24.4184
35.0098 24.2394
35.1969 23.9677
35.3842 23.66
35.5716 23.5861
35.759 23.2456
35.9468 22.8676
36.1345 22.6592
36.3222 22.3313
36.5101 22.204
36.6981 21.774
36.8861 21.5339
37.0743 21.2345
37.2626 21.0762
37.451 20.7878
37.6395 20.6484
37.8281 20.2274
38.0168 19.982
38.2056 19.7348
38.3945 19.428
38.5837 19.2516
38.7728 19.0489
38.9621 18.7198
39.1514 18.4502
39.3409 18.3019
39.5304 17.9867
39.7201 17.8618
39.9099 17.6621
40.0999 17.3641
40.2899 17.1818
40.48 16.9217
40.6703 16.6611
40.8607 16.5116
41.0512 16.3211
41.242 16.0641
41.4327 15.8791
41.6236 15.6757
41.8146 15.5045
42.0057 15.2677
42.1969 15.0376
42.3882 14.8904
42.5797 14.6509
42.7713 14.502
42.963 14.2538
43.1549 14.098
43.3468 13.859
43.5389 13.6942
43.7312 13.4516
43.9237 13.2982
44.1162 13.1185
44.3088 12.927
44.5016 12.7311
44.6945 12.5784
44.8875 12.4424
45.0806 12.2473
45.2739 12.0699
45.4673 11.8954
45.6609 11.7218
45.8546 11.5945
46.0484 11.3986
46.2424 11.2331
46.4365 11.0769
46.631 10.909
46.8254 10.7176
47.0199 10.5583
47.2146 10.4237
47.4095 10.2446
47.6044 10.084
47.7996 9.97841
47.9948 9.82892
48.1902 9.69059
48.3858 9.56323
48.5815 9.36035
48.7774 9.29381
48.9734 9.1707
49.1696 9.02696
49.3661 8.86003
49.5626 8.73926
49.7592 8.6075
49.956 8.46907
50.153 8.36111
50.3501 8.22087
50.5474 8.07138
50.7448 7.96685
50.9424 7.85038
51.1402 7.70662
51.3381 7.54936
51.5362 7.45293
51.7344 7.34854
51.9328 7.22596
52.1316 7.07317
52.3304 6.99532
52.5293 6.86554
52.7284 6.78068
52.9276 6.66802
53.1271 6.53963
53.3267 6.40222
53.5265 6.31189
53.7264 6.15443
53.9266 6.06861
54.1269 6.00044
54.3274 5.84375
54.528 5.73221
54.7289 5.58203
54.9301 5.44344
55.1314 5.33601
55.3328 5.09226
55.5344 4.91319
55.7361 4.73227

File: Ni3Fe_FD0823.xy
TT I
1.27165 7.07694
1.45013 6.38726
1.62863 5.11167
1.80712 4.743
1.98562 4.81549
2.16411 5.19525
2.34263 5.33593
2.52115 7.07594
2.69965 8.84025
2.87818 9.10948
3.05672 11.6675
3.23527 15.4405
3.4138 18.3474
3.59237 23.0235
3.77094 25.5108
3.9495 29.3282
4.12809 34.0664
4.30669 98.4347
4.4853 53.1017
4.6639 55.3826
4.84253 68.2029
5.02118 86.7656
5.19981 404.067
5.37848 193.655
5.55716 101.866
5.73586 92.9118
5.91455 95.1125
6.09328 4559.01
6.27201 79.8223
6.45075 69.8364
6.62952 62.9334
6.8083 59.0736
6.98711 55.2786
7.16591 56.2262
7.34475 65.341
7.5236 53.5235
7.70247 56.5026
7.88135 57.1327
8.06026 62.6355
8.23919 69.1233
8.41812 83.2644
8.59709 1224.46
8.77609 96.9422
8.9551 89.0012
9.13412 82.6397
9.31318 84.866
9.49226 84.6824
9.67134 95.1743
9.85047 101.081
10.0296 346.399
10.2088 349.35
10.388 104.563
10.5672 542.025
10.7465 85.6638
10.9257 77.6999
11.105 71.0127
11.2844 67.773
11.4637 64.157
11.6431 62.6807
11.8225 62.4354
12.002 64.1263
12.1814 161.993
12.3609 65.9197
12.5405 64.5866
12.72 67.2715
12.8996 70.8911
13.0792 80.1453
13.2589 250.768
13.4386 116.749
13.6183 260.219
13.7981 93.3897
13.9779 75.081
14.1577 71.017
14.3376 69.5239
14.5175 68.3302
14.6974 70.2535
14.8774 112.631
15.0574 138.83
15.2374 68.7459
15.4175 65.7188
15.5976 65.3561
15.7778 95.7884
15.958 146.632
16.1382 60.746
16.3185 57.5054
16.4988 54.8215
16.6792 53.9171
16.8596 54.333
17.04 55.6612
17.2205 67.0324
17.401 68.405
17.5815 58.6765
17.7622 60.8058
17.9428 73.3854
18.1237 141.834
18.3044 91.3076
18.4852 73.9976
18.666 59.5873
18.8469 57.5254
19.0278 56.2056
19.2088 58.8164
19.3898 75.1705
19.5709 53.5488
19.752 52.5964
19.9332 55.906
20.1144 69.7651
20.2957 63.9973
20.477 52.3227
20.6586 49.1219
20.84 48.3331
21.0215 48.1968
21.203 50.5367
21.3846 48.2469
21.5662 48.5096
21.7479 52.3836
21.9297 64.1105
22.1115 55.7208
22.2933 48.8558
22.4753 48.2343
22.6572 48.4918
22.8393 51.8729
23.0214 56.4641
23.2037 48.303
23.3859 49.1844
23.5682 57.0557
23.7505 47.336
23.9329 44.8527
24.1154 43.7189
24.2979 42.8923
24.4805 42.5103
24.6631 42.3145
24.8458 41.8858
25.0286 42.4516
25.2114 44.158
25.3943 43.9965
25.5773 40.4207
25.7605 39.9454
25.9436 40.4341
26.1268 41.1822
26.31 39.6067
26.4933 40.423
26.6767 41.8491
26.8601 39.9968
27.0437 38.4047
27.2272 38.1146
27.4109 38.0779
27.5946 37.9853
27.7784 37.4808
27.9623 38.1012
28.1462 38.4157
28.3304 36.5953
28.5145 35.5363
28.6987 35.2533
28.8829 35.0447
29.0673 34.2339
29.2517 33.9798
29.4361 33.7402
29.6207 32.7515
29.8053 32.6467
29.99 32.2861
30.1748 32.1058
30.3597 31.8779
30.5447 31.8394
30.7297 31.9221
30.915 31.2489
31.1002 30.7463
31.2855 30.5686
31.4708 30.5409
31.6563 30.0128
31.8418 29.7328
32.0275 29.552
32.2132 29.0778
32.399 28.6352
32.5848 28.1651
32.7708 27.755
32.9569 27.7275
33.143 27.5256
33.3293 27.1189
33.5158 26.7028
33.7022 26.322
33.8887 26.0298
34.0753 25.621
34.262 25.2995
34.4488 24.9896
34.6357 24.7126
34.8227 24.4949
35.0098 24.1928
35.1969 23.9602
35.3842 23.7409
35.5716 23.5283
35.759 23.3032
35.9468 22.8857
36.1345 22.6624
36.3222 22.4107
36.5101 22.1872
36.6981 21.9176
36.8861 21.5644
37.0743 21.2237
37.2626 21.0946
37.451 20.7839
37.6395 20.5941
37.8281 20.2752
38.0168 19.9201
38.2056 19.7431
38.3945 19.433
38.5837 19.2546
38.7728 18.9893
38.9621 18.7878
39.1514 18.549
39.3409 18.2438
39.5304 17.999
39.7201 17.8606
39.9099 17.5965
40.0999 17.4278
40.2899 17.1152
40.48 16.934
40.6703 16.7381
40.8607 16.5102
41.0512 16.3504
41.242 16.0787
41.4327 15.8757
41.6236 15.6536
41.8146 15.4903
42.0057 15.1906
42.1969 15.0394
42.3882 14.9016
42.5797 14.6118
42.7713 14.4325
42.963 14.2896
43.1549 13.9953
43.3468 13.8193
43.5389 13.6913
43.7312 13.5033
43.9237 13.3017
44.1162 13.1143
44.3088 12.957
44.5016 12.6997
44.6945 12.5509
44.8875 12.437
45.0806 12.2177
45.2739 12.0814
45.4673 11.8797
45.6609 11.7327
45.8546 11.5797
46.0484 11.3939
46.2424 11.2081
46.4365 11.0731
46.631 10.905
46.8254 10.7344
47.0199 10.5791
47.2146 10.4574
47.4095 10.2887
47.6044 10.1022
47.7996 10.0139
47.9948 9.81722
48.1902 9.71495
48.3858 9.57817
48.5815 9.39556
48.7774 9.28137
48.9734 9.14775
49.1696 9.01952
49.3661 8.87537
49.5626 8.69827
49.7592 8.60548
49.956 8.48509
50.153 8.3237
50.3501 8.20044
50.5474 8.12284
50.7448 7.95579
50.9424 7.81268
51.1402 7.71963
51.3381 7.54828
51.5362 7.48621
51.7344 7.33416
51.9328 7.20201
52.1316 7.10906
52.3304 7.02091
52.5293 6.85015
52.7284 6.75399
52.9276 6.63604
53.1271 6.54935
53.3267 6.41237
53.5265 6.29491
53.7264 6.14873
53.9266 6.14434
54.1269 5.95854
54.3274 5.85604
54.528 5.72032
54.7289 5.61157
54.9301 5.39686
55.1314 5.28549
55.3328 5.05966
55.5344 4.89164
55.7361 4.72689