Folder: NiFe_MOF_catalyst_paper/XRD (part 25)

File: Ni3Fe_FD0125.xy
TT I
1.27165 8.22992
1.45013 6.01676
1.62863 5.4558
1.80712 5.07096
1.98562 5.22075
2.16411 4.60462
2.34263 4.34482
2.52115 4.4867
2.69965 5.57612
2.87818 6.94028
3.05672 10.8912
3.23527 14.5609
3.4138 18.4167
3.59237 21.1534
3.77094 24.5385
3.9495 28.5032
4.12809 32.7451
4.30669 37.3162
4.4853 44.9988
4.6639 53.6338
4.84253 65.3532
5.02118 91.0124
5.19981 583.224
5.37848 519.477
5.55716 108.02
5.73586 95.5615
5.91455 106.721
6.09328 2522.28
6.27201 90.9585
6.45075 66.101
6.62952 59.2232
6.8083 55.1358
6.98711 52.8057
7.16591 51.8652
7.34475 51.6901
7.5236 56.4479
7.70247 53.4039
7.88135 55.648
8.06026 59.8827
8.23919 67.4935
8.41812 83.3374
8.59709 839.446
8.77609 118.89
8.9551 85.1137
9.13412 81.0567
9.31318 88.0801
9.49226 82.5038
9.67134 87.8415
9.85047 97.9654
10.0296 558.003
10.2088 1055.64
10.388 104.494
10.5672 307.326
10.7465 91.4596
10.9257 74.9257
11.105 69.6267
11.2844 65.2629
11.4637 62.9866
11.6431 61.593
11.8225 60.2357
12.002 65.7839
12.1814 112.641
12.3609 76.4375
12.5405 62.5516
12.72 64.8187
12.8996 68.8856
13.0792 78.9019
13.2589 196.954
13.4386 223.199
13.6183 183.197
13.7981 164.296
13.9779 75.4283
14.1577 74.4741
14.3376 68.38
14.5175 67.7277
14.6974 69.1935
14.8774 120.287
15.0574 206.13
15.2374 68.6613
15.4175 65.5437
15.5976 65.1783
15.7778 106.963
15.958 183.415
16.1382 61.8338
16.3185 56.7962
16.4988 54.4928
16.6792 53.5048
16.8596 53.7711
17.04 54.7599
17.2205 64.2529
17.401 80.8209
17.5815 58.3555
17.7622 61.0237
17.9428 83.8393
18.1237 109.652
18.3044 87.5014
18.4852 96.5699
18.666 60.4808
18.8469 57.6776
19.0278 56.2928
19.2088 61.4287
19.3898 67.3297
19.5709 56.2794
19.752 52.8295
19.9332 57.7639
20.1144 65.6467
20.2957 60.4093
20.477 59.5984
20.6586 49.3587
20.84 48.6395
21.0215 48.6197
21.203 49.078
21.3846 50.2508
21.5662 48.5315
21.7479 53.6591
21.9297 60.8354
22.1115 56.0404
22.2933 52.6389
22.4753 48.5615
22.6572 48.6
22.8393 51.5616
23.0214 56.0257
23.2037 49.5865
23.3859 51.4684
23.5682 52.5296
23.7505 53.6572
23.9329 45.3639
24.1154 43.9028
24.2979 43.339
24.4805 42.6299
24.6631 42.8261
24.8458 42.1607
25.0286 42.7373
25.2114 44.0515
25.3943 44.3966
25.5773 41.6453
25.7605 40.3928
25.9436 40.7329
26.1268 41.1069
26.31 40.7953
26.4933 40.555
26.6767 41.6598
26.8601 41.0643
27.0437 39.3097
27.2272 38.6472
27.4109 38.3259
27.5946 38.447
27.7784 38.3058
27.9623 38.1039
28.1462 38.9088
28.3304 37.848
28.5145 35.9561
28.6987 35.6455
28.8829 35.2188
29.0673 34.946
29.2517 34.3007
29.4361 33.9254
29.6207 33.3856
29.8053 32.7928
29.99 32.4775
30.1748 32.2973
30.3597 32.4183
30.5447 32.0792
30.7297 32.0007
30.915 31.7451
31.1002 31.3119
31.2855 30.9476
31.4708 30.7545
31.6563 30.7008
31.8418 30.0979
32.0275 30.0779
32.2132 29.4578
32.399 28.9393
32.5848 28.4539
32.7708 28.1436
32.9569 28.0221
33.143 27.6991
33.3293 27.4058
33.5158 27.092
33.7022 26.5857
33.8887 26.2922
34.0753 26.0373
34.262 25.5909
34.4488 25.31
34.6357 24.9747
34.8227 24.6247
35.0098 24.4954
35.1969 24.1454
35.3842 23.8947
35.5716 23.7442
35.759 23.4557
35.9468 23.0615
36.1345 22.9006
36.3222 22.6278
36.5101 22.3673
36.6981 22.1308
36.8861 21.7471
37.0743 21.5152
37.2626 21.2115
37.451 20.9561
37.6395 20.7865
37.8281 20.498
38.0168 20.2255
38.2056 19.8827
38.3945 19.6489
38.5837 19.4244
38.7728 19.2302
38.9621 18.9341
39.1514 18.6829
39.3409 18.5012
39.5304 18.1923
39.7201 18.097
39.9099 17.8053
40.0999 17.5709
40.2899 17.3274
40.48 17.107
40.6703 16.9272
40.8607 16.707
41.0512 16.5231
41.242 16.2441
41.4327 16.0233
41.6236 15.7962
41.8146 15.6328
42.0057 15.4349
42.1969 15.2505
42.3882 15.0307
42.5797 14.817
42.7713 14.6514
42.963 14.3735
43.1549 14.2035
43.3468 14.0708
43.5389 13.8146
43.7312 13.6159
43.9237 13.4536
44.1162 13.2421
44.3088 13.0773
44.5016 12.8682
44.6945 12.7193
44.8875 12.5037
45.0806 12.3447
45.2739 12.1986
45.4673 12.0232
45.6609 11.82
45.8546 11.6694
46.0484 11.5302
46.2424 11.3623
46.4365 11.173
46.631 10.9952
46.8254 10.8612
47.0199 10.6708
47.2146 10.5322
47.4095 10.3382
47.6044 10.2503
47.7996 10.0624
47.9948 9.93879
48.1902 9.81043
48.3858 9.64152
48.5815 9.51506
48.7774 9.39612
48.9734 9.23768
49.1696 9.12287
49.3661 8.99065
49.5626 8.78782
49.7592 8.69879
49.956 8.57083
50.153 8.45507
50.3501 8.27995
50.5474 8.19404
50.7448 8.04808
50.9424 7.93372
51.1402 7.8191
51.3381 7.68806
51.5362 7.54095
51.7344 7.43274
51.9328 7.28622
52.1316 7.16171
52.3304 7.06484
52.5293 6.96723
52.7284 6.8537
52.9276 6.74863
53.1271 6.66167
53.3267 6.49735
53.5265 6.35793
53.7264 6.29977
53.9266 6.17057
54.1269 6.08227
54.3274 5.88658
54.528 5.78994
54.7289 5.55348
54.9301 5.37151
55.1314 5.2349
55.3328 5.00314
55.5344 4.81897
55.7361 4.72472

File: Ni3Fe_FD0126.xy
TT I
1.27165 8.08064
1.45013 7.38814
1.62863 6.05688
1.80712 5.32365
1.98562 5.25892
2.16411 5.01259
2.34263 4.42886
2.52115 4.21452
2.69965 5.24486
2.87818 7.71645
3.05672 11.3507
3.23527 14.9155
3.4138 18.4046
3.59237 21.4854
3.77094 24.9651
3.9495 28.427
4.12809 32.6223
4.30669 37.4886
4.4853 44.1964
4.6639 53.2941
4.84253 65.6711
5.02118 90.8081
5.19981 576.932
5.37848 516.096
5.55716 108.199
5.73586 95.5225
5.91455 106.081
6.09328 2528.48
6.27201 90.4154
6.45075 66.0458
6.62952 59.1925
6.8083 55.2078
6.98711 52.7859
7.16591 51.6115
7.34475 51.4035
7.5236 56.0981
7.70247 53.425
7.88135 55.7402
8.06026 59.8617
8.23919 67.2249
8.41812 83.0502
8.59709 841.167
8.77609 119.648
8.9551 84.7466
9.13412 81.0033
9.31318 87.7384
9.49226 82.8215
9.67134 87.4864
9.85047 98.2488
10.0296 555.697
10.2088 1053.6
10.388 104.018
10.5672 307.063
10.7465 91.5241
10.9257 75.2488
11.105 69.4323
11.2844 65.3746
11.4637 62.8911
11.6431 61.5791
11.8225 60.6171
12.002 65.9792
12.1814 112.874
12.3609 76.5794
12.5405 62.4311
12.72 64.4757
12.8996 68.8277
13.0792 78.4189
13.2589 197.467
13.4386 223.818
13.6183 183.697
13.7981 164.339
13.9779 75.3328
14.1577 74.4145
14.3376 68.1798
14.5175 67.5675
14.6974 69.1844
14.8774 120.831
15.0574 205.239
15.2374 68.3184
15.4175 65.4395
15.5976 64.9745
15.7778 107.482
15.958 183.753
16.1382 61.4685
16.3185 56.8034
16.4988 54.355
16.6792 53.5515
16.8596 53.5789
17.04 54.7577
17.2205 64.2248
17.401 80.7684
17.5815 58.5984
17.7622 60.7462
17.9428 83.817
18.1237 109.624
18.3044 87.743
18.4852 96.5979
18.666 60.6144
18.8469 57.7133
19.0278 56.185
19.2088 61.5901
19.3898 67.4094
19.5709 56.398
19.752 53.0691
19.9332 58.186
20.1144 65.6328
20.2957 60.2915
20.477 59.3731
20.6586 49.4255
20.84 48.5128
21.0215 48.7308
21.203 49.0173
21.3846 50.3561
21.5662 48.5401
21.7479 53.7469
21.9297 60.7623
22.1115 56.0029
22.2933 52.419
22.4753 48.4798
22.6572 48.6128
22.8393 51.6038
23.0214 56.1621
23.2037 49.8009
23.3859 51.6281
23.5682 52.6675
23.7505 53.8584
23.9329 45.3701
24.1154 43.9759
24.2979 43.3004
24.4805 42.6172
24.6631 42.8245
24.8458 42.1548
25.0286 42.7349
25.2114 44.1579
25.3943 44.5011
25.5773 41.5876
25.7605 40.3868
25.9436 40.7168
26.1268 41.3296
26.31 40.8468
26.4933 40.6002
26.6767 41.6766
26.8601 40.9535
27.0437 39.2942
27.2272 38.6697
27.4109 38.2414
27.5946 38.4573
27.7784 38.3
27.9623 38.2178
28.1462 38.9879
28.3304 37.8127
28.5145 36.076
28.6987 35.7267
28.8829 35.2151
29.0673 34.9386
29.2517 34.2994
29.4361 34.0574
29.6207 33.3929
29.8053 32.7095
29.99 32.5456
30.1748 32.2903
30.3597 32.3869
30.5447 32.215
30.7297 32.1057
30.915 31.8416
31.1002 31.3524
31.2855 30.8827
31.4708 30.7514
31.6563 30.6593
31.8418 30.2047
32.0275 29.9838
32.2132 29.5688
32.399 28.988
32.5848 28.5007
32.7708 28.2198
32.9569 28.0412
33.143 27.8064
33.3293 27.4671
33.5158 27.0987
33.7022 26.5632
33.8887 26.3107
34.0753 26.0282
34.262 25.61
34.4488 25.2559
34.6357 24.9602
34.8227 24.6431
35.0098 24.4804
35.1969 24.174
35.3842 23.8168
35.5716 23.792
35.759 23.4668
35.9468 23.1404
36.1345 22.8877
36.3222 22.7052
36.5101 22.3422
36.6981 22.054
36.8861 21.8154
37.0743 21.5562
37.2626 21.2751
37.451 20.9784
37.6395 20.7695
37.8281 20.5407
38.0168 20.1713
38.2056 19.923
38.3945 19.7198
38.5837 19.4026
38.7728 19.2246
38.9621 18.9748
39.1514 18.7228
39.3409 18.4708
39.5304 18.255
39.7201 18.0947
39.9099 17.8173
40.0999 17.5507
40.2899 17.3272
40.48 17.0886
40.6703 16.9286
40.8607 16.7573
41.0512 16.463
41.242 16.2456
41.4327 16.015
41.6236 15.8073
41.8146 15.6738
42.0057 15.3793
42.1969 15.1267
42.3882 14.9845
42.5797 14.771
42.7713 14.6071
42.963 14.3938
43.1549 14.1959
43.3468 14.0151
43.5389 13.8024
43.7312 13.6399
43.9237 13.4337
44.1162 13.1893
44.3088 13.0756
44.5016 12.8423
44.6945 12.7169
44.8875 12.5129
45.0806 12.3355
45.2739 12.1839
45.4673 12.0183
45.6609 11.8135
45.8546 11.6917
46.0484 11.5063
46.2424 11.3533
46.4365 11.2012
46.631 10.9742
46.8254 10.8629
47.0199 10.6608
47.2146 10.5078
47.4095 10.3989
47.6044 10.2349
47.7996 10.1178
47.9948 9.94576
48.1902 9.75367
48.3858 9.64062
48.5815 9.49214
48.7774 9.38341
48.9734 9.24233
49.1696 9.11104
49.3661 8.94111
49.5626 8.83434
49.7592 8.68574
49.956 8.57921
50.153 8.44067
50.3501 8.29377
50.5474 8.20213
50.7448 8.09277
50.9424 7.96091
51.1402 7.82159
51.3381 7.67245
51.5362 7.56996
51.7344 7.41633
51.9328 7.32348
52.1316 7.17287
52.3304 7.06698
52.5293 6.94876
52.7284 6.81338
52.9276 6.72032
53.1271 6.59941
53.3267 6.48423
53.5265 6.36415
53.7264 6.27923
53.9266 6.18295
54.1269 5.9787
54.3274 5.90312
54.528 5.74511
54.7289 5.57223
54.9301 5.41546
55.1314 5.24512
55.3328 5.01295
55.5344 4.89192
55.7361 4.7355

File: Ni3Fe_FD0127.xy
TT I
1.27165 7.94951
1.45013 7.45204
1.62863 6.15804
1.80712 5.17369
1.98562 5.23488
2.16411 4.54986
2.34263 4.48024
2.52115 4.19988
2.69965 4.7017
2.87818 7.58012
3.05672 11.2941
3.23527 14.9389
3.4138 18.5999
3.59237 21.7057
3.77094 24.9659
3.9495 28.3344
4.12809 32.1876
4.30669 37.2205
4.4853 44.3303
4.6639 53.2294
4.84253 66.0404
5.02118 91.1229
5.19981 583.265
5.37848 505.576
5.55716 108.107
5.73586 95.3822
5.91455 106.738
6.09328 2543.13
6.27201 90.4852
6.45075 66.0434
6.62952 59.5082
6.8083 54.873
6.98711 52.7169
7.16591 52.0972
7.34475 51.6088
7.5236 56.2667
7.70247 53.8014
7.88135 55.8207
8.06026 59.7187
8.23919 67.3232
8.41812 83.4792
8.59709 843.227
8.77609 118.664
8.9551 85.1557
9.13412 81.0996
9.31318 87.8406
9.49226 82.674
9.67134 88.0157
9.85047 98.2783
10.0296 557.481
10.2088 1034.02
10.388 104.295
10.5672 310.1
10.7465 91.2492
10.9257 75.1826
11.105 69.4565
11.2844 65.7003
11.4637 62.9754
11.6431 61.7939
11.8225 60.463
12.002 66.0096
12.1814 113.285
12.3609 76.2502
12.5405 62.7443
12.72 64.5777
12.8996 69.0195
13.0792 78.7421
13.2589 197.023
13.4386 222.831
13.6183 184.192
13.7981 161.382
13.9779 75.5657
14.1577 74.4482
14.3376 68.481
14.5175 67.7097
14.6974 69.2544
14.8774 120.195
15.0574 204.34
15.2374 68.5977
15.4175 65.8302
15.5976 65.0639
15.7778 107.332
15.958 182.81
16.1382 61.6864
16.3185 56.7733
16.4988 54.6577
16.6792 53.6719
16.8596 53.792
17.04 54.9351
17.2205 64.3912
17.401 80.8931
17.5815 58.5232
17.7622 60.9324
17.9428 83.9333
18.1237 110.039
18.3044 87.5196
18.4852 96.5016
18.666 60.4829
18.8469 57.7196
19.0278 56.316
19.2088 61.3448
19.3898 67.6009
19.5709 56.3723
19.752 52.979
19.9332 58.0073
20.1144 65.5722
20.2957 60.4811
20.477 59.0272
20.6586 49.4876
20.84 48.7386
21.0215 48.6667
21.203 49.3008
21.3846 50.2571
21.5662 48.5694
21.7479 53.6334
21.9297 61.1382
22.1115 56.0698
22.2933 52.3614
22.4753 48.3835
22.6572 48.6972
22.8393 51.5289
23.0214 56.2244
23.2037 49.7023
23.3859 51.4825
23.5682 52.5747
23.7505 53.4018
23.9329 45.486
24.1154 43.9257
24.2979 43.3032
24.4805 42.6517
24.6631 42.9012
24.8458 42.1293
25.0286 42.6686
25.2114 44.1274
25.3943 44.5191
25.5773 41.5369
25.7605 40.3902
25.9436 40.6854
26.1268 41.2353
26.31 40.6997
26.4933 40.6153
26.6767 41.6298
26.8601 41.0335
27.0437 39.2533
27.2272 38.7342
27.4109 38.3056
27.5946 38.4589
27.7784 38.2909
27.9623 38.19
28.1462 38.9892
28.3304 37.7194
28.5145 36.0491
28.6987 35.6795
28.8829 35.1883
29.0673 34.7931
29.2517 34.3382
29.4361 34.0064
29.6207 33.422
29.8053 32.7393
29.99 32.5708
30.1748 32.3315
30.3597 32.4434
30.5447 32.169
30.7297 32.0891
30.915 31.8812
31.1002 31.3074
31.2855 30.8167
31.4708 30.8618
31.6563 30.775
31.8418 30.2166
32.0275 29.9792
32.2132 29.536
32.399 28.9754
32.5848 28.5928
32.7708 28.2795
32.9569 28.0517
33.143 27.7438
33.3293 27.4485
33.5158 27.2073
33.7022 26.6193
33.8887 26.2286
34.0753 26.0792
34.262 25.6364
34.4488 25.3352
34.6357 25.0107
34.8227 24.7077
35.0098 24.508
35.1969 24.2149
35.3842 23.9409
35.5716 23.7443
35.759 23.473
35.9468 23.1337
36.1345 22.9397
36.3222 22.6993
36.5101 22.3849
36.6981 22.106
36.8861 21.8487
37.0743 21.4784
37.2626 21.2433
37.451 20.9852
37.6395 20.8303
37.8281 20.5463
38.0168 20.2053
38.2056 19.966
38.3945 19.6676
38.5837 19.4192
38.7728 19.2681
38.9621 18.9822
39.1514 18.7263
39.3409 18.4677
39.5304 18.2068
39.7201 17.9972
39.9099 17.8409
40.0999 17.5736
40.2899 17.3761
40.48 17.1109
40.6703 16.9316
40.8607 16.7343
41.0512 16.5291
41.242 16.2242
41.4327 16.054
41.6236 15.8127
41.8146 15.6568
42.0057 15.4369
42.1969 15.2495
42.3882 15.0568
42.5797 14.7875
42.7713 14.5871
42.963 14.3924
43.1549 14.1811
43.3468 13.9537
43.5389 13.8038
43.7312 13.6319
43.9237 13.5124
44.1162 13.248
44.3088 13.0952
44.5016 12.8917
44.6945 12.7447
44.8875 12.5428
45.0806 12.3777
45.2739 12.1454
45.4673 12.0188
45.6609 11.8499
45.8546 11.656
46.0484 11.4841
46.2424 11.3993
46.4365 11.1789
46.631 11.0148
46.8254 10.8648
47.0199 10.7057
47.2146 10.5494
47.4095 10.3802
47.6044 10.1921
47.7996 10.0815
47.9948 9.92953
48.1902 9.79874
48.3858 9.66827
48.5815 9.5456
48.7774 9.39653
48.9734 9.27246
49.1696 9.11418
49.3661 8.96395
49.5626 8.83956
49.7592 8.68564
49.956 8.58511
50.153 8.45202
50.3501 8.29297
50.5474 8.17651
50.7448 8.07875
50.9424 7.94981
51.1402 7.78318
51.3381 7.66867
51.5362 7.55037
51.7344 7.4405
51.9328 7.30061
52.1316 7.1604
52.3304 7.07116
52.5293 6.95717
52.7284 6.82823
52.9276 6.75305
53.1271 6.64936
53.3267 6.53369
53.5265 6.37856
53.7264 6.28052
53.9266 6.17518
54.1269 6.01999
54.3274 5.89766
54.528 5.75592
54.7289 5.56974
54.9301 5.41505
55.1314 5.24447
55.3328 5.05026
55.5344 4.88734
55.7361 4.75452

File: Ni3Fe_FD0128.xy
TT I
1.27165 7.95949
1.45013 6.52343
1.62863 5.81517
1.80712 5.57906
1.98562 4.95981
2.16411 4.44998
2.34263 4.52639
2.52115 4.50873
2.69965 5.12364
2.87818 7.79491
3.05672 11.6013
3.23527 14.9424
3.4138 19.0988
3.59237 22.2333
3.77094 24.5725
3.9495 28.7784
4.12809 32.4537
4.30669 37.0643
4.4853 44.4419
4.6639 53.6321
4.84253 65.8858
5.02118 90.9421
5.19981 582.896
5.37848 505.952
5.55716 108.141
5.73586 95.7661
5.91455 106.421
6.09328 2553.1
6.27201 90.5593
6.45075 66.5209
6.62952 59.2896
6.8083 55.3752
6.98711 53.2197
7.16591 52.062
7.34475 51.8173
7.5236 56.3943
7.70247 53.5649
7.88135 55.4983
8.06026 60.2569
8.23919 67.6042
8.41812 83.5648
8.59709 846.579
8.77609 118.447
8.9551 85.3095
9.13412 80.8815
9.31318 87.945
9.49226 83.1602
9.67134 87.8297
9.85047 98.2397
10.0296 556.256
10.2088 1030.54
10.388 104.22
10.5672 311.71
10.7465 91.3984
10.9257 75.3354
11.105 69.7922
11.2844 65.6869
11.4637 63.1515
11.6431 61.5053
11.8225 60.6703
12.002 65.8174
12.1814 113.722
12.3609 76.0565
12.5405 62.779
12.72 64.6627
12.8996 69.1013
13.0792 79.439
13.2589 198.274
13.4386 223.053
13.6183 184.892
13.7981 161.506
13.9779 75.5726
14.1577 74.3928
14.3376 68.4013
14.5175 67.9211
14.6974 69.0623
14.8774 120.471
15.0574 205.489
15.2374 68.679
15.4175 65.5831
15.5976 65.3241
15.7778 107.357
15.958 183.25
16.1382 61.679
16.3185 56.7885
16.4988 54.4688
16.6792 53.5869
16.8596 53.7134
17.04 55.0845
17.2205 64.5994
17.401 80.8382
17.5815 58.5457
17.7622 60.8797
17.9428 83.7358
18.1237 110.584
18.3044 87.6354
18.4852 96.0951
18.666 60.4019
18.8469 57.8025
19.0278 56.2163
19.2088 61.6067
19.3898 67.5951
19.5709 56.3856
19.752 52.9813
19.9332 57.8975
20.1144 65.9106
20.2957 60.3081
20.477 59.5142
20.6586 49.5477
20.84 48.5902
21.0215 48.6298
21.203 49.1471
21.3846 50.2433
21.5662 48.6024
21.7479 53.6477
21.9297 61.0094
22.1115 56.0374
22.2933 52.4565
22.4753 48.651
22.6572 48.6513
22.8393 51.6144
23.0214 56.2964
23.2037 49.6671
23.3859 51.5509
23.5682 52.7094
23.7505 53.4432
23.9329 45.4032
24.1154 44.0028
24.2979 43.3711
24.4805 42.7826
24.6631 42.8674
24.8458 42.1993
25.0286 42.65
25.2114 44.1787
25.3943 44.4098
25.5773 41.6278
25.7605 40.6437
25.9436 40.7052
26.1268 41.2202
26.31 40.8404
26.4933 40.6074
26.6767 41.6913
26.8601 41.2078
27.0437 39.3475
27.2272 38.7922
27.4109 38.3843
27.5946 38.3866
27.7784 38.3331
27.9623 38.2173
28.1462 39.0282
28.3304 37.7148
28.5145 36.105
28.6987 35.6562
28.8829 35.2869
29.0673 34.9739
29.2517 34.2539
29.4361 34.0249
29.6207 33.3672
29.8053 32.7723
29.99 32.6299
30.1748 32.4086
30.3597 32.4584
30.5447 32.1257
30.7297 32.0722
30.915 31.9451
31.1002 31.3217
31.2855 30.8715
31.4708 30.7608
31.6563 30.7718
31.8418 30.1044
32.0275 29.9874
32.2132 29.5643
32.399 28.9768
32.5848 28.5074
32.7708 28.2171
32.9569 28.0313
33.143 27.7591
33.3293 27.3627
33.5158 27.1003
33.7022 26.6274
33.8887 26.3569
34.0753 26.0457
34.262 25.5961
34.4488 25.2396
34.6357 24.9738
34.8227 24.7067
35.0098 24.4253
35.1969 24.1993
35.3842 23.932
35.5716 23.8505
35.759 23.5011
35.9468 23.1498
36.1345 22.8765
36.3222 22.6296
36.5101 22.4226
36.6981 22.2329
36.8861 21.8126
37.0743 21.5305
37.2626 21.267
37.451 20.9874
37.6395 20.8625
37.8281 20.5492
38.0168 20.1758
38.2056 19.9385
38.3945 19.6673
38.5837 19.469
38.7728 19.2416
38.9621 19.0001
39.1514 18.6608
39.3409 18.4709
39.5304 18.2017
39.7201 18.0513
39.9099 17.8966
40.0999 17.5923
40.2899 17.3599
40.48 17.109
40.6703 16.8781
40.8607 16.7594
41.0512 16.5438
41.242 16.2363
41.4327 16.0232
41.6236 15.8247
41.8146 15.6743
42.0057 15.441
42.1969 15.2645
42.3882 15.0637
42.5797 14.8015
42.7713 14.6213
42.963 14.4182
43.1549 14.2277
43.3468 13.992
43.5389 13.8421
43.7312 13.6155
43.9237 13.4887
44.1162 13.2816
44.3088 13.1097
44.5016 12.8384
44.6945 12.7412
44.8875 12.5722
45.0806 12.3608
45.2739 12.2185
45.4673 12.0338
45.6609 11.8581
45.8546 11.6678
46.0484 11.4979
46.2424 11.3378
46.4365 11.1981
46.631 11.0246
46.8254 10.8749
47.0199 10.7035
47.2146 10.5474
47.4095 10.3859
47.6044 10.2291
47.7996 10.1121
47.9948 9.95229
48.1902 9.82665
48.3858 9.63648
48.5815 9.54861
48.7774 9.37457
48.9734 9.26642
49.1696 9.12395
49.3661 8.93681
49.5626 8.83066
49.7592 8.71135
49.956 8.60688
50.153 8.46282
50.3501 8.29827
50.5474 8.2124
50.7448 8.06946
50.9424 7.92943
51.1402 7.83848
51.3381 7.70096
51.5362 7.55715
51.7344 7.42263
51.9328 7.32729
52.1316 7.17605
52.3304 7.10759
52.5293 6.97094
52.7284 6.844
52.9276 6.75059
53.1271 6.64961
53.3267 6.52952
53.5265 6.3343
53.7264 6.27777
53.9266 6.18142
54.1269 6.04247
54.3274 5.89376
54.528 5.74335
54.7289 5.5725
54.9301 5.40456
55.1314 5.2421
55.3328 4.99181
55.5344 4.82077
55.7361 4.71915

File: Ni3Fe_FD0129.xy
TT I
1.27165 7.99589
1.45013 6.84964
1.62863 5.19425
1.80712 5.52732
1.98562 5.33185
2.16411 4.65576
2.34263 4.45503
2.52115 4.002
2.69965 4.29451
2.87818 7.57214
3.05672 11.1023
3.23527 15.3126
3.4138 18.611
3.59237 21.5935
3.77094 24.6056
3.9495 28.2929
4.12809 32.4292
4.30669 37.297
4.4853 44.5772
4.6639 53.2934
4.84253 65.5382
5.02118 90.5841
5.19981 577.669
5.37848 505.025
5.55716 107.756
5.73586 95.4608
5.91455 106.501
6.09328 2550.95
6.27201 90.217
6.45075 66.2159
6.62952 59.4257
6.8083 55.2196
6.98711 53.0786
7.16591 52.1686
7.34475 51.5834
7.5236 56.2848
7.70247 53.5614
7.88135 55.6613
8.06026 60.1552
8.23919 67.4814
8.41812 83.3154
8.59709 848.822
8.77609 118.3
8.9551 85.0599
9.13412 81.0142
9.31318 87.9348
9.49226 82.9668
9.67134 88.0999
9.85047 98.0706
10.0296 555.471
10.2088 1038.3
10.388 104.344
10.5672 312.171
10.7465 91.0355
10.9257 75.4236
11.105 69.6382
11.2844 65.7012
11.4637 63.1265
11.6431 61.5568
11.8225 60.7226
12.002 65.7379
12.1814 114.016
12.3609 75.8145
12.5405 62.4495
12.72 64.6953
12.8996 69.0
13.0792 79.558
13.2589 198.535
13.4386 223.455
13.6183 185.238
13.7981 161.317
13.9779 75.6865
14.1577 74.2382
14.3376 68.4927
14.5175 67.7122
14.6974 69.1847
14.8774 120.352
15.0574 205.832
15.2374 68.8181
15.4175 65.7577
15.5976 65.1262
15.7778 107.776
15.958 184.067
16.1382 61.7314
16.3185 56.8428
16.4988 54.5015
16.6792 53.6971
16.8596 54.0014
17.04 54.8421
17.2205 64.4175
17.401 80.882
17.5815 58.5091
17.7622 61.0289
17.9428 83.629
18.1237 110.828
18.3044 87.6227
18.4852 96.2616
18.666 60.625
18.8469 57.695
19.0278 56.3502
19.2088 61.4894
19.3898 67.8095
19.5709 56.3329
19.752 52.9519
19.9332 57.9173
20.1144 65.8299
20.2957 60.6213
20.477 59.339
20.6586 49.4169
20.84 48.8793
21.0215 48.755
21.203 49.1799
21.3846 50.3355
21.5662 48.654
21.7479 53.7732
21.9297 61.0123
22.1115 55.9524
22.2933 52.4366
22.4753 48.4559
22.6572 48.8347
22.8393 51.7078
23.0214 56.3682
23.2037 49.7223
23.3859 51.6527
23.5682 52.7293
23.7505 53.5693
23.9329 45.4292
24.1154 44.068
24.2979 43.3928
24.4805 42.697
24.6631 42.8482
24.8458 42.2157
25.0286 42.8458
25.2114 44.2243
25.3943 44.3034
25.5773 41.74
25.7605 40.4263
25.9436 40.7075
26.1268 41.4249
26.31 40.882
26.4933 40.8115
26.6767 41.7009
26.8601 41.0951
27.0437 39.2656
27.2272 38.7609
27.4109 38.2771
27.5946 38.468
27.7784 38.3869
27.9623 38.2782
28.1462 39.131
28.3304 37.8267
28.5145 36.0311
28.6987 35.6842
28.8829 35.2199
29.0673 35.003
29.2517 34.3529
29.4361 34.0617
29.6207 33.4169
29.8053 32.92
29.99 32.6609
30.1748 32.3698
30.3597 32.4685
30.5447 32.118
30.7297 32.1677
30.915 31.9123
31.1002 31.2896
31.2855 30.9023
31.4708 30.8448
31.6563 30.7549
31.8418 30.1549
32.0275 30.0119
32.2132 29.5295
32.399 29.0105
32.5848 28.5457
32.7708 28.304
32.9569 28.0425
33.143 27.7991
33.3293 27.4056
33.5158 27.1644
33.7022 26.6794
33.8887 26.2811
34.0753 26.0827
34.262 25.6453
34.4488 25.3395
34.6357 25.0964
34.8227 24.6909
35.0098 24.4919
35.1969 24.2687
35.3842 24.0036
35.5716 23.7424
35.759 23.5224
35.9468 23.1291
36.1345 22.9335
36.3222 22.6869
36.5101 22.4744
36.6981 22.1865
36.8861 21.8327
37.0743 21.5633
37.2626 21.326
37.451 21.0161
37.6395 20.835
37.8281 20.5198
38.0168 20.2258
38.2056 19.9951
38.3945 19.7627
38.5837 19.452
38.7728 19.2506
38.9621 19.0172
39.1514 18.7184
39.3409 18.4847
39.5304 18.2675
39.7201 18.134
39.9099 17.8374
40.0999 17.6535
40.2899 17.3228
40.48 17.1216
40.6703 16.9041
40.8607 16.7333
41.0512 16.5418
41.242 16.3061
41.4327 16.1054
41.6236 15.8432
41.8146 15.7116
42.0057 15.469
42.1969 15.2051
42.3882 15.0267
42.5797 14.8476
42.7713 14.6082
42.963 14.4639
43.1549 14.2097
43.3468 13.9987
43.5389 13.8533
43.7312 13.654
43.9237 13.4824
44.1162 13.2815
44.3088 13.0693
44.5016 12.912
44.6945 12.7449
44.8875 12.5546
45.0806 12.3688
45.2739 12.1675
45.4673 12.0799
45.6609 11.8542
45.8546 11.7015
46.0484 11.5246
46.2424 11.3798
46.4365 11.2151
46.631 11.0157
46.8254 10.8285
47.0199 10.696
47.2146 10.5601
47.4095 10.3913
47.6044 10.2481
47.7996 10.0903
47.9948 9.93226
48.1902 9.78905
48.3858 9.64594
48.5815 9.52558
48.7774 9.38289
48.9734 9.26865
49.1696 9.11736
49.3661 8.93163
49.5626 8.8048
49.7592 8.69505
49.956 8.60898
50.153 8.44303
50.3501 8.32093
50.5474 8.20663
50.7448 8.07047
50.9424 7.96352
51.1402 7.82075
51.3381 7.72991
51.5362 7.58803
51.7344 7.43757
51.9328 7.30596
52.1316 7.17284
52.3304 7.08554
52.5293 6.96895
52.7284 6.84127
52.9276 6.74793
53.1271 6.63199
53.3267 6.50105
53.5265 6.40809
53.7264 6.31682
53.9266 6.16869
54.1269 6.08192
54.3274 5.94059
54.528 5.73374
54.7289 5.54329
54.9301 5.41613
55.1314 5.27448
55.3328 5.00286
55.5344 4.86239
55.7361 4.7352