Folder: NiFe_MOF_catalyst_paper/XRD (part 27)

File: Ni3Fe_FD0136.xy
TT I
1.27165 8.00796
1.45013 7.38795
1.62863 6.04342
1.80712 5.28935
1.98562 4.99734
2.16411 4.18459
2.34263 4.6913
2.52115 4.35521
2.69965 5.68047
2.87818 7.57195
3.05672 11.2847
3.23527 15.1675
3.4138 18.492
3.59237 22.0141
3.77094 24.9648
3.9495 28.7578
4.12809 32.45
4.30669 37.3972
4.4853 44.778
4.6639 53.6185
4.84253 65.735
5.02118 90.9912
5.19981 570.157
5.37848 473.545
5.55716 108.036
5.73586 95.4495
5.91455 105.296
6.09328 2629.17
6.27201 89.8152
6.45075 66.1446
6.62952 59.663
6.8083 55.3434
6.98711 52.827
7.16591 52.4225
7.34475 51.7328
7.5236 56.3372
7.70247 53.6031
7.88135 56.4087
8.06026 60.4133
8.23919 67.7938
8.41812 83.4226
8.59709 863.079
8.77609 117.402
8.9551 84.726
9.13412 81.1252
9.31318 87.3684
9.49226 83.2546
9.67134 87.9059
9.85047 98.3721
10.0296 552.353
10.2088 1008.84
10.388 103.856
10.5672 319.494
10.7465 90.9095
10.9257 75.5631
11.105 69.9521
11.2844 66.015
11.4637 63.5257
11.6431 61.6334
11.8225 60.687
12.002 65.8059
12.1814 114.67
12.3609 76.0323
12.5405 62.661
12.72 64.6798
12.8996 69.5564
13.0792 78.9726
13.2589 200.191
13.4386 218.726
13.6183 187.512
13.7981 158.805
13.9779 75.585
14.1577 74.4788
14.3376 68.7383
14.5175 68.1814
14.6974 69.3348
14.8774 120.387
15.0574 203.544
15.2374 68.8439
15.4175 65.6704
15.5976 64.8769
15.7778 107.017
15.958 182.923
16.1382 61.5514
16.3185 56.9774
16.4988 54.9689
16.6792 53.6286
16.8596 54.1268
17.04 55.0402
17.2205 64.8199
17.401 81.1276
17.5815 58.5926
17.7622 61.1047
17.9428 83.7668
18.1237 112.18
18.3044 87.8219
18.4852 95.3895
18.666 60.5555
18.8469 57.8153
19.0278 56.3211
19.2088 61.4626
19.3898 68.0818
19.5709 56.291
19.752 52.9457
19.9332 57.8034
20.1144 66.2357
20.2957 60.6009
20.477 59.2655
20.6586 49.5646
20.84 48.8031
21.0215 48.8659
21.203 49.4832
21.3846 50.1966
21.5662 48.6494
21.7479 53.8183
21.9297 61.3318
22.1115 55.856
22.2933 52.2745
22.4753 48.6511
22.6572 48.7633
22.8393 51.7564
23.0214 56.4459
23.2037 49.7275
23.3859 51.6215
23.5682 53.1811
23.7505 53.397
23.9329 45.373
24.1154 44.2051
24.2979 43.5185
24.4805 42.8225
24.6631 42.9485
24.8458 42.3521
25.0286 42.8242
25.2114 44.3849
25.3943 44.5648
25.5773 41.5921
25.7605 40.5708
25.9436 40.9622
26.1268 41.3281
26.31 40.7189
26.4933 40.7987
26.6767 41.7506
26.8601 41.0831
27.0437 39.4475
27.2272 38.8211
27.4109 38.5037
27.5946 38.5031
27.7784 38.3584
27.9623 38.2694
28.1462 39.2484
28.3304 37.8584
28.5145 36.1009
28.6987 35.8024
28.8829 35.3965
29.0673 34.9931
29.2517 34.3148
29.4361 34.077
29.6207 33.4882
29.8053 32.9075
29.99 32.5006
30.1748 32.327
30.3597 32.5041
30.5447 32.1436
30.7297 32.1721
30.915 31.9852
31.1002 31.331
31.2855 30.9673
31.4708 30.7562
31.6563 30.6774
31.8418 30.192
32.0275 29.9931
32.2132 29.6483
32.399 29.0657
32.5848 28.5155
32.7708 28.2089
32.9569 28.1764
33.143 27.8726
33.3293 27.5067
33.5158 27.2135
33.7022 26.6411
33.8887 26.1838
34.0753 26.1046
34.262 25.7952
34.4488 25.3944
34.6357 25.0703
34.8227 24.72
35.0098 24.6661
35.1969 24.2393
35.3842 24.0284
35.5716 23.8255
35.759 23.5663
35.9468 23.1825
36.1345 22.9527
36.3222 22.7701
36.5101 22.4861
36.6981 22.1712
36.8861 21.8571
37.0743 21.53
37.2626 21.3124
37.451 21.0442
37.6395 20.8379
37.8281 20.5056
38.0168 20.2567
38.2056 20.0258
38.3945 19.7771
38.5837 19.4506
38.7728 19.2986
38.9621 19.0182
39.1514 18.7311
39.3409 18.4713
39.5304 18.3264
39.7201 18.0593
39.9099 17.885
40.0999 17.6564
40.2899 17.3762
40.48 17.1539
40.6703 16.9998
40.8607 16.808
41.0512 16.5756
41.242 16.2987
41.4327 16.1012
41.6236 15.8644
41.8146 15.7066
42.0057 15.4244
42.1969 15.2238
42.3882 15.0942
42.5797 14.8864
42.7713 14.6475
42.963 14.3872
43.1549 14.2545
43.3468 13.9962
43.5389 13.8496
43.7312 13.6779
43.9237 13.4617
44.1162 13.2659
44.3088 13.1305
44.5016 12.8723
44.6945 12.7737
44.8875 12.5617
45.0806 12.3484
45.2739 12.2057
45.4673 12.0446
45.6609 11.8498
45.8546 11.7034
46.0484 11.5334
46.2424 11.3889
46.4365 11.2398
46.631 11.0645
46.8254 10.9141
47.0199 10.7357
47.2146 10.5637
47.4095 10.407
47.6044 10.264
47.7996 10.0886
47.9948 9.94575
48.1902 9.83451
48.3858 9.70153
48.5815 9.54143
48.7774 9.39748
48.9734 9.25227
49.1696 9.13473
49.3661 8.98344
49.5626 8.83337
49.7592 8.70877
49.956 8.63683
50.153 8.49286
50.3501 8.36418
50.5474 8.20175
50.7448 8.07362
50.9424 7.96875
51.1402 7.83712
51.3381 7.6563
51.5362 7.56351
51.7344 7.45947
51.9328 7.29686
52.1316 7.18625
52.3304 7.07711
52.5293 6.96205
52.7284 6.89625
52.9276 6.76014
53.1271 6.63524
53.3267 6.53873
53.5265 6.38908
53.7264 6.33933
53.9266 6.19304
54.1269 6.01403
54.3274 5.94822
54.528 5.76712
54.7289 5.60365
54.9301 5.45694
55.1314 5.30228
55.3328 5.02497
55.5344 4.83535
55.7361 4.70796

File: Ni3Fe_FD0137.xy
TT I
1.27165 8.0849
1.45013 6.49532
1.62863 6.32508
1.80712 5.40736
1.98562 5.05855
2.16411 4.55989
2.34263 4.64564
2.52115 4.54994
2.69965 5.85986
2.87818 8.23441
3.05672 11.1906
3.23527 14.8592
3.4138 18.983
3.59237 21.7763
3.77094 24.5865
3.9495 28.6729
4.12809 32.7716
4.30669 37.4783
4.4853 44.8074
4.6639 53.7338
4.84253 65.695
5.02118 90.9491
5.19981 569.165
5.37848 474.908
5.55716 107.955
5.73586 95.459
5.91455 105.683
6.09328 2640.05
6.27201 89.3309
6.45075 66.2544
6.62952 59.5215
6.8083 55.3488
6.98711 53.1731
7.16591 52.1913
7.34475 52.0313
7.5236 56.258
7.70247 53.8635
7.88135 55.888
8.06026 60.4149
8.23919 67.5198
8.41812 83.5366
8.59709 865.492
8.77609 117.337
8.9551 84.72
9.13412 81.1508
9.31318 87.4388
9.49226 82.8122
9.67134 88.4892
9.85047 98.3116
10.0296 551.046
10.2088 1002.23
10.388 104.166
10.5672 319.718
10.7465 90.7902
10.9257 75.3552
11.105 69.8042
11.2844 65.9913
11.4637 62.8181
11.6431 61.7751
11.8225 60.8114
12.002 65.4378
12.1814 114.759
12.3609 75.8192
12.5405 62.6603
12.72 65.1483
12.8996 69.3957
13.0792 78.727
13.2589 201.269
13.4386 218.032
13.6183 187.735
13.7981 159.414
13.9779 75.7974
14.1577 74.2574
14.3376 68.4502
14.5175 68.0219
14.6974 69.2256
14.8774 120.447
15.0574 203.961
15.2374 68.5948
15.4175 65.8766
15.5976 65.2157
15.7778 106.918
15.958 182.875
16.1382 61.5818
16.3185 57.2293
16.4988 54.6732
16.6792 53.5556
16.8596 53.9869
17.04 55.1029
17.2205 64.684
17.401 81.265
17.5815 58.6734
17.7622 60.9874
17.9428 83.6125
18.1237 112.329
18.3044 87.6672
18.4852 95.1806
18.666 60.644
18.8469 57.9119
19.0278 56.237
19.2088 61.6459
19.3898 68.0465
19.5709 56.3269
19.752 53.0082
19.9332 57.8206
20.1144 66.0774
20.2957 60.701
20.477 59.2444
20.6586 49.4817
20.84 48.789
21.0215 48.834
21.203 49.4424
21.3846 50.3274
21.5662 48.7756
21.7479 53.9152
21.9297 61.2242
22.1115 56.0736
22.2933 52.2673
22.4753 48.6718
22.6572 48.8647
22.8393 51.7396
23.0214 56.6323
23.2037 49.7378
23.3859 51.5993
23.5682 53.1303
23.7505 53.3006
23.9329 45.4868
24.1154 44.1894
24.2979 43.4055
24.4805 42.692
24.6631 43.0028
24.8458 42.3274
25.0286 42.9057
25.2114 44.4224
25.3943 44.6452
25.5773 41.6095
25.7605 40.6708
25.9436 40.8609
26.1268 41.4403
26.31 40.785
26.4933 40.7575
26.6767 41.7809
26.8601 41.095
27.0437 39.3317
27.2272 38.7169
27.4109 38.4514
27.5946 38.6075
27.7784 38.2187
27.9623 38.2324
28.1462 39.0819
28.3304 37.8057
28.5145 36.2358
28.6987 35.7525
28.8829 35.3512
29.0673 35.0508
29.2517 34.36
29.4361 34.0365
29.6207 33.4206
29.8053 32.9351
29.99 32.6241
30.1748 32.3377
30.3597 32.4349
30.5447 32.182
30.7297 32.1331
30.915 31.9323
31.1002 31.3005
31.2855 30.9212
31.4708 30.6901
31.6563 30.6269
31.8418 30.1516
32.0275 30.099
32.2132 29.6488
32.399 28.9505
32.5848 28.5534
32.7708 28.1969
32.9569 28.124
33.143 27.8446
33.3293 27.4962
33.5158 27.2756
33.7022 26.7313
33.8887 26.3563
34.0753 26.1804
34.262 25.6875
34.4488 25.4192
34.6357 25.074
34.8227 24.6623
35.0098 24.5538
35.1969 24.2293
35.3842 24.0535
35.5716 23.8065
35.759 23.5727
35.9468 23.1757
36.1345 22.9193
36.3222 22.6627
36.5101 22.4079
36.6981 22.2409
36.8861 21.8123
37.0743 21.5679
37.2626 21.3365
37.451 21.0323
37.6395 20.8641
37.8281 20.5547
38.0168 20.2292
38.2056 19.9449
38.3945 19.7035
38.5837 19.4803
38.7728 19.174
38.9621 19.0363
39.1514 18.7853
39.3409 18.5189
39.5304 18.2422
39.7201 18.0825
39.9099 17.885
40.0999 17.6376
40.2899 17.3728
40.48 17.1718
40.6703 16.9986
40.8607 16.7583
41.0512 16.5685
41.242 16.3433
41.4327 16.0775
41.6236 15.8402
41.8146 15.6848
42.0057 15.4567
42.1969 15.2117
42.3882 15.0997
42.5797 14.8536
42.7713 14.6735
42.963 14.4623
43.1549 14.2479
43.3468 14.0342
43.5389 13.8229
43.7312 13.6601
43.9237 13.4895
44.1162 13.287
44.3088 13.1024
44.5016 12.9266
44.6945 12.7606
44.8875 12.5631
45.0806 12.3846
45.2739 12.189
45.4673 12.068
45.6609 11.8249
45.8546 11.7223
46.0484 11.5771
46.2424 11.4065
46.4365 11.2321
46.631 11.0309
46.8254 10.871
47.0199 10.6969
47.2146 10.5485
47.4095 10.409
47.6044 10.2733
47.7996 10.0936
47.9948 9.93995
48.1902 9.81582
48.3858 9.65064
48.5815 9.55278
48.7774 9.40911
48.9734 9.2519
49.1696 9.09661
49.3661 8.98106
49.5626 8.82727
49.7592 8.69698
49.956 8.60022
50.153 8.44183
50.3501 8.31355
50.5474 8.19105
50.7448 8.05897
50.9424 7.95149
51.1402 7.82766
51.3381 7.65598
51.5362 7.58159
51.7344 7.42604
51.9328 7.29658
52.1316 7.20431
52.3304 7.12515
52.5293 6.98361
52.7284 6.86278
52.9276 6.71907
53.1271 6.66323
53.3267 6.51894
53.5265 6.3926
53.7264 6.28717
53.9266 6.19046
54.1269 6.04986
54.3274 5.92487
54.528 5.75846
54.7289 5.57965
54.9301 5.41031
55.1314 5.30089
55.3328 5.06785
55.5344 4.9131
55.7361 4.70977

File: Ni3Fe_FD0138.xy
TT I
1.27165 8.17669
1.45013 5.77088
1.62863 5.84302
1.80712 5.41496
1.98562 4.79559
2.16411 4.76439
2.34263 4.10937
2.52115 4.23949
2.69965 5.73393
2.87818 7.86738
3.05672 11.7042
3.23527 15.005
3.4138 18.7718
3.59237 21.4635
3.77094 24.5053
3.9495 28.3136
4.12809 32.6645
4.30669 37.6548
4.4853 44.685
4.6639 53.3551
4.84253 65.5851
5.02118 90.8636
5.19981 567.921
5.37848 471.919
5.55716 107.535
5.73586 95.2476
5.91455 105.785
6.09328 2652.38
6.27201 89.1865
6.45075 66.3224
6.62952 59.7342
6.8083 55.5546
6.98711 53.0056
7.16591 52.5026
7.34475 51.9063
7.5236 56.0164
7.70247 53.7467
7.88135 55.8761
8.06026 60.2482
8.23919 67.4706
8.41812 83.2668
8.59709 864.327
8.77609 117.357
8.9551 84.8281
9.13412 81.1206
9.31318 86.7516
9.49226 82.8901
9.67134 87.9011
9.85047 98.4359
10.0296 550.442
10.2088 998.871
10.388 104.204
10.5672 320.992
10.7465 90.7073
10.9257 75.5224
11.105 69.8245
11.2844 65.7114
11.4637 62.9781
11.6431 61.8644
11.8225 60.7666
12.002 65.6805
12.1814 115.427
12.3609 75.3619
12.5405 62.7048
12.72 64.8505
12.8996 69.3604
13.0792 78.9687
13.2589 200.988
13.4386 216.837
13.6183 188.339
13.7981 157.616
13.9779 75.8164
14.1577 74.0755
14.3376 68.6896
14.5175 67.8893
14.6974 69.6157
14.8774 120.275
15.0574 204.576
15.2374 68.8199
15.4175 65.9274
15.5976 65.3463
15.7778 107.138
15.958 183.005
16.1382 61.666
16.3185 56.7787
16.4988 54.7669
16.6792 53.956
16.8596 53.9564
17.04 55.103
17.2205 64.581
17.401 80.9203
17.5815 58.7459
17.7622 60.9821
17.9428 83.5964
18.1237 112.544
18.3044 87.5994
18.4852 95.22
18.666 60.6285
18.8469 57.9048
19.0278 56.3382
19.2088 61.6098
19.3898 68.3464
19.5709 56.4685
19.752 53.06
19.9332 57.9863
20.1144 66.3475
20.2957 60.5137
20.477 59.2131
20.6586 49.5019
20.84 48.7341
21.0215 48.7926
21.203 49.3853
21.3846 50.3463
21.5662 48.7445
21.7479 53.7103
21.9297 61.5131
22.1115 56.074
22.2933 52.1758
22.4753 48.6866
22.6572 48.7533
22.8393 51.7695
23.0214 56.5923
23.2037 49.7759
23.3859 51.5367
23.5682 53.12
23.7505 53.3053
23.9329 45.438
24.1154 44.2096
24.2979 43.4369
24.4805 42.7337
24.6631 42.9037
24.8458 42.2238
25.0286 42.7995
25.2114 44.3438
25.3943 44.5589
25.5773 41.5765
25.7605 40.5702
25.9436 40.8829
26.1268 41.4628
26.31 40.6989
26.4933 40.766
26.6767 41.7729
26.8601 41.1907
27.0437 39.4201
27.2272 38.8786
27.4109 38.4136
27.5946 38.6137
27.7784 38.3498
27.9623 38.3653
28.1462 39.1403
28.3304 37.8528
28.5145 36.1648
28.6987 35.7997
28.8829 35.4009
29.0673 35.0899
29.2517 34.4068
29.4361 34.0745
29.6207 33.4229
29.8053 32.9752
29.99 32.6829
30.1748 32.4336
30.3597 32.5498
30.5447 32.2488
30.7297 32.2763
30.915 31.9079
31.1002 31.2526
31.2855 30.9938
31.4708 30.7799
31.6563 30.7723
31.8418 30.2783
32.0275 30.0088
32.2132 29.4996
32.399 29.0409
32.5848 28.6133
32.7708 28.2104
32.9569 28.0675
33.143 27.8546
33.3293 27.5323
33.5158 27.2577
33.7022 26.596
33.8887 26.3604
34.0753 26.0983
34.262 25.6546
34.4488 25.3608
34.6357 25.0351
34.8227 24.7196
35.0098 24.624
35.1969 24.329
35.3842 23.9808
35.5716 23.9433
35.759 23.5624
35.9468 23.1892
36.1345 22.9976
36.3222 22.712
36.5101 22.4659
36.6981 22.1614
36.8861 21.9366
37.0743 21.6436
37.2626 21.356
37.451 21.0426
37.6395 20.9127
37.8281 20.4963
38.0168 20.2348
38.2056 19.9957
38.3945 19.7654
38.5837 19.4579
38.7728 19.2324
38.9621 18.9895
39.1514 18.7221
39.3409 18.4857
39.5304 18.3099
39.7201 18.0973
39.9099 17.8729
40.0999 17.5989
40.2899 17.412
40.48 17.1232
40.6703 16.9724
40.8607 16.7565
41.0512 16.5403
41.242 16.2616
41.4327 16.0874
41.6236 15.8475
41.8146 15.7321
42.0057 15.43
42.1969 15.2665
42.3882 15.0383
42.5797 14.8944
42.7713 14.6666
42.963 14.4046
43.1549 14.2116
43.3468 14.0634
43.5389 13.8498
43.7312 13.6565
43.9237 13.4889
44.1162 13.3009
44.3088 13.1031
44.5016 12.9242
44.6945 12.7375
44.8875 12.5689
45.0806 12.3615
45.2739 12.2132
45.4673 12.0157
45.6609 11.889
45.8546 11.7143
46.0484 11.5239
46.2424 11.3646
46.4365 11.2289
46.631 11.0595
46.8254 10.87
47.0199 10.7217
47.2146 10.5577
47.4095 10.4274
47.6044 10.267
47.7996 10.1337
47.9948 9.93582
48.1902 9.81579
48.3858 9.67568
48.5815 9.53101
48.7774 9.39851
48.9734 9.2566
49.1696 9.12191
49.3661 9.00652
49.5626 8.83618
49.7592 8.70293
49.956 8.56406
50.153 8.46834
50.3501 8.34497
50.5474 8.18704
50.7448 8.05795
50.9424 7.92318
51.1402 7.80843
51.3381 7.67639
51.5362 7.54377
51.7344 7.42491
51.9328 7.30467
52.1316 7.17481
52.3304 7.06959
52.5293 6.9862
52.7284 6.84756
52.9276 6.75809
53.1271 6.64058
53.3267 6.53754
53.5265 6.40492
53.7264 6.29562
53.9266 6.18891
54.1269 6.05863
54.3274 5.95354
54.528 5.79193
54.7289 5.57472
54.9301 5.4003
55.1314 5.21589
55.3328 5.02612
55.5344 4.86844
55.7361 4.77233

File: Ni3Fe_FD0139.xy
TT I
1.27165 8.02093
1.45013 6.45159
1.62863 5.96575
1.80712 5.594
1.98562 5.05038
2.16411 4.70602
2.34263 5.09928
2.52115 4.51798
2.69965 5.74195
2.87818 7.71861
3.05672 10.9736
3.23527 14.7582
3.4138 18.6173
3.59237 21.7788
3.77094 24.8785
3.9495 28.6919
4.12809 32.5966
4.30669 37.4953
4.4853 44.3926
4.6639 53.5221
4.84253 65.8888
5.02118 90.3604
5.19981 557.373
5.37848 475.863
5.55716 107.924
5.73586 95.1538
5.91455 105.696
6.09328 2648.49
6.27201 89.7021
6.45075 66.4178
6.62952 59.4443
6.8083 55.1441
6.98711 53.2393
7.16591 51.9829
7.34475 51.738
7.5236 55.7435
7.70247 53.6029
7.88135 55.7418
8.06026 60.3793
8.23919 67.6323
8.41812 83.4462
8.59709 864.298
8.77609 118.099
8.9551 84.4422
9.13412 80.9472
9.31318 86.7302
9.49226 82.8464
9.67134 88.1711
9.85047 98.191
10.0296 547.959
10.2088 1014.13
10.388 104.329
10.5672 320.12
10.7465 90.4173
10.9257 75.397
11.105 69.8311
11.2844 65.587
11.4637 62.8467
11.6431 61.6564
11.8225 61.0163
12.002 65.2597
12.1814 115.526
12.3609 75.089
12.5405 62.8271
12.72 64.8847
12.8996 69.3903
13.0792 78.8957
13.2589 201.64
13.4386 218.917
13.6183 188.467
13.7981 157.76
13.9779 75.4063
14.1577 74.0587
14.3376 68.5326
14.5175 67.9122
14.6974 69.3817
14.8774 120.871
15.0574 204.825
15.2374 68.5506
15.4175 65.8864
15.5976 65.1031
15.7778 107.565
15.958 183.477
16.1382 61.4694
16.3185 56.9772
16.4988 54.8158
16.6792 53.8426
16.8596 53.8709
17.04 54.9886
17.2205 64.6911
17.401 80.9029
17.5815 58.6472
17.7622 61.0619
17.9428 83.5045
18.1237 112.237
18.3044 87.9379
18.4852 95.8303
18.666 60.4965
18.8469 57.9117
19.0278 56.5995
19.2088 61.5212
19.3898 68.3715
19.5709 56.3694
19.752 52.724
19.9332 58.0591
20.1144 66.4795
20.2957 60.7536
20.477 59.2111
20.6586 49.7134
20.84 48.9148
21.0215 48.7536
21.203 49.3577
21.3846 50.3629
21.5662 48.8938
21.7479 53.8838
21.9297 61.4614
22.1115 56.2004
22.2933 52.509
22.4753 48.5008
22.6572 48.8527
22.8393 51.8917
23.0214 56.6957
23.2037 49.8996
23.3859 51.6164
23.5682 53.2052
23.7505 53.5869
23.9329 45.4231
24.1154 44.1673
24.2979 43.5131
24.4805 42.6379
24.6631 42.9566
24.8458 42.3287
25.0286 42.7825
25.2114 44.3521
25.3943 44.5684
25.5773 41.7659
25.7605 40.5015
25.9436 40.7688
26.1268 41.4975
26.31 40.9134
26.4933 40.8733
26.6767 41.7822
26.8601 41.1352
27.0437 39.3724
27.2272 38.7535
27.4109 38.4802
27.5946 38.4988
27.7784 38.3029
27.9623 38.3496
28.1462 39.2665
28.3304 37.8787
28.5145 36.2522
28.6987 35.8293
28.8829 35.3525
29.0673 35.05
29.2517 34.37
29.4361 34.056
29.6207 33.5294
29.8053 32.9493
29.99 32.7272
30.1748 32.4527
30.3597 32.5339
30.5447 32.1882
30.7297 32.2201
30.915 31.9348
31.1002 31.3571
31.2855 31.1066
31.4708 30.8205
31.6563 30.7784
31.8418 30.3456
32.0275 30.0627
32.2132 29.6028
32.399 29.0735
32.5848 28.6549
32.7708 28.1826
32.9569 28.1921
33.143 27.7837
33.3293 27.5985
33.5158 27.2679
33.7022 26.7177
33.8887 26.383
34.0753 26.1772
34.262 25.7512
34.4488 25.4171
34.6357 25.0542
34.8227 24.747
35.0098 24.548
35.1969 24.2962
35.3842 24.0316
35.5716 23.942
35.759 23.6096
35.9468 23.2432
36.1345 23.076
36.3222 22.6691
36.5101 22.528
36.6981 22.2307
36.8861 21.9646
37.0743 21.6744
37.2626 21.3335
37.451 21.0856
37.6395 20.9122
37.8281 20.5993
38.0168 20.3075
38.2056 19.987
38.3945 19.7379
38.5837 19.47
38.7728 19.2949
38.9621 19.0404
39.1514 18.777
39.3409 18.6143
39.5304 18.314
39.7201 18.081
39.9099 17.8845
40.0999 17.6532
40.2899 17.3978
40.48 17.2003
40.6703 16.9659
40.8607 16.8287
41.0512 16.5692
41.242 16.3113
41.4327 16.0347
41.6236 15.8267
41.8146 15.7122
42.0057 15.4549
42.1969 15.2311
42.3882 15.0573
42.5797 14.8922
42.7713 14.6893
42.963 14.4785
43.1549 14.288
43.3468 14.0412
43.5389 13.8588
43.7312 13.6567
43.9237 13.501
44.1162 13.3255
44.3088 13.0784
44.5016 12.9282
44.6945 12.7475
44.8875 12.5796
45.0806 12.4029
45.2739 12.2353
45.4673 12.046
45.6609 11.8886
45.8546 11.7246
46.0484 11.5521
46.2424 11.3321
46.4365 11.2773
46.631 11.0693
46.8254 10.8831
47.0199 10.7327
47.2146 10.564
47.4095 10.4047
47.6044 10.2672
47.7996 10.0984
47.9948 9.97521
48.1902 9.81188
48.3858 9.6749
48.5815 9.53644
48.7774 9.39474
48.9734 9.28164
49.1696 9.12333
49.3661 8.9813
49.5626 8.84335
49.7592 8.696
49.956 8.60807
50.153 8.48648
50.3501 8.33999
50.5474 8.21114
50.7448 8.05963
50.9424 7.98392
51.1402 7.8561
51.3381 7.66707
51.5362 7.61171
51.7344 7.43907
51.9328 7.32297
52.1316 7.18158
52.3304 7.11864
52.5293 6.97313
52.7284 6.86096
52.9276 6.71258
53.1271 6.6333
53.3267 6.54216
53.5265 6.40119
53.7264 6.29263
53.9266 6.20387
54.1269 6.07689
54.3274 5.92527
54.528 5.77929
54.7289 5.6112
54.9301 5.47136
55.1314 5.28118
55.3328 5.07066
55.5344 4.8543
55.7361 4.74766

File: Ni3Fe_FD0140.xy
TT I
1.27165 8.1847
1.45013 6.59831
1.62863 5.0626
1.80712 5.21802
1.98562 5.20378
2.16411 4.35109
2.34263 4.78867
2.52115 4.56685
2.69965 5.08823
2.87818 7.93987
3.05672 11.1418
3.23527 15.1911
3.4138 18.5454
3.59237 22.102
3.77094 24.5144
3.9495 28.6934
4.12809 32.5013
4.30669 37.5007
4.4853 44.5686
4.6639 53.4434
4.84253 65.9083
5.02118 90.8112
5.19981 555.329
5.37848 476.347
5.55716 107.602
5.73586 94.9771
5.91455 105.07
6.09328 2647.06
6.27201 89.184
6.45075 66.1397
6.62952 59.353
6.8083 55.3327
6.98711 53.2152
7.16591 51.9278
7.34475 51.7433
7.5236 56.0001
7.70247 53.7068
7.88135 55.725
8.06026 60.2883
8.23919 67.2933
8.41812 83.0836
8.59709 865.113
8.77609 118.136
8.9551 84.6211
9.13412 81.1379
9.31318 86.5855
9.49226 82.8075
9.67134 87.9972
9.85047 98.3213
10.0296 547.143
10.2088 1027.65
10.388 103.971
10.5672 321.535
10.7465 90.919
10.9257 75.1832
11.105 69.7512
11.2844 65.6592
11.4637 62.9369
11.6431 61.8164
11.8225 60.7669
12.002 65.5529
12.1814 115.657
12.3609 75.5664
12.5405 62.7257
12.72 64.8501
12.8996 69.003
13.0792 78.7927
13.2589 201.78
13.4386 219.43
13.6183 189.454
13.7981 157.465
13.9779 75.4419
14.1577 74.0797
14.3376 68.4304
14.5175 67.9489
14.6974 69.3457
14.8774 120.816
15.0574 204.833
15.2374 68.6065
15.4175 65.5333
15.5976 65.2965
15.7778 107.397
15.958 184.456
16.1382 61.5561
16.3185 56.9108
16.4988 54.7979
16.6792 53.6744
16.8596 54.0571
17.04 54.9462
17.2205 64.612
17.401 81.0679
17.5815 58.7558
17.7622 60.9897
17.9428 83.6867
18.1237 112.45
18.3044 88.1069
18.4852 96.0643
18.666 60.5898
18.8469 58.0693
19.0278 56.5034
19.2088 61.6641
19.3898 68.4394
19.5709 56.4468
19.752 52.9182
19.9332 57.9035
20.1144 66.3179
20.2957 60.795
20.477 59.4055
20.6586 49.6896
20.84 48.8903
21.0215 48.8051
21.203 49.3869
21.3846 50.3563
21.5662 48.5492
21.7479 53.8897
21.9297 61.5296
22.1115 56.2928
22.2933 52.5252
22.4753 48.7106
22.6572 48.8643
22.8393 51.9283
23.0214 56.6869
23.2037 49.829
23.3859 51.7313
23.5682 53.0957
23.7505 53.2911
23.9329 45.3549
24.1154 44.1445
24.2979 43.3931
24.4805 42.8125
24.6631 43.1104
24.8458 42.2955
25.0286 42.8744
25.2114 44.4423
25.3943 44.6597
25.5773 41.6905
25.7605 40.658
25.9436 40.73
26.1268 41.4815
26.31 40.8331
26.4933 40.7279
26.6767 41.8386
26.8601 41.2655
27.0437 39.4577
27.2272 38.7645
27.4109 38.5227
27.5946 38.606
27.7784 38.3729
27.9623 38.3713
28.1462 39.2239
28.3304 37.8979
28.5145 36.2232
28.6987 35.773
28.8829 35.4355
29.0673 34.9592
29.2517 34.4503
29.4361 34.2555
29.6207 33.4931
29.8053 32.9435
29.99 32.6581
30.1748 32.4019
30.3597 32.5103
30.5447 32.3123
30.7297 32.1822
30.915 31.9159
31.1002 31.279
31.2855 31.0599
31.4708 30.8505
31.6563 30.7405
31.8418 30.2086
32.0275 30.0422
32.2132 29.5914
32.399 29.0688
32.5848 28.6333
32.7708 28.2261
32.9569 28.1056
33.143 27.7641
33.3293 27.5661
33.5158 27.2343
33.7022 26.669
33.8887 26.4856
34.0753 26.0964
34.262 25.7527
34.4488 25.3457
34.6357 25.0788
34.8227 24.7268
35.0098 24.5744
35.1969 24.2939
35.3842 24.0554
35.5716 23.8916
35.759 23.6374
35.9468 23.1967
36.1345 23.0541
36.3222 22.7008
36.5101 22.565
36.6981 22.2482
36.8861 21.8849
37.0743 21.5306
37.2626 21.3621
37.451 21.102
37.6395 20.9474
37.8281 20.647
38.0168 20.33
38.2056 20.0089
38.3945 19.744
38.5837 19.4931
38.7728 19.2597
38.9621 19.0453
39.1514 18.7051
39.3409 18.5865
39.5304 18.3255
39.7201 18.0733
39.9099 17.9438
40.0999 17.6831
40.2899 17.3762
40.48 17.1325
40.6703 17.0017
40.8607 16.8093
41.0512 16.5855
41.242 16.357
41.4327 16.1467
41.6236 15.8864
41.8146 15.7621
42.0057 15.4907
42.1969 15.2241
42.3882 15.0764
42.5797 14.8723
42.7713 14.6863
42.963 14.4833
43.1549 14.2742
43.3468 14.0761
43.5389 13.8931
43.7312 13.6961
43.9237 13.4877
44.1162 13.3396
44.3088 13.1335
44.5016 12.9562
44.6945 12.7262
44.8875 12.5844
45.0806 12.4571
45.2739 12.2452
45.4673 12.0969
45.6609 11.8823
45.8546 11.7358
46.0484 11.5398
46.2424 11.3941
46.4365 11.2416
46.631 11.0564
46.8254 10.8686
47.0199 10.7656
47.2146 10.5927
47.4095 10.4421
47.6044 10.2344
47.7996 10.1017
47.9948 9.98691
48.1902 9.83491
48.3858 9.71681
48.5815 9.56348
48.7774 9.42537
48.9734 9.29026
49.1696 9.15317
49.3661 8.95464
49.5626 8.81734
49.7592 8.74824
49.956 8.65179
50.153 8.46193
50.3501 8.34556
50.5474 8.20998
50.7448 8.10957
50.9424 7.9709
51.1402 7.84831
51.3381 7.69971
51.5362 7.57659
51.7344 7.46771
51.9328 7.33376
52.1316 7.2555
52.3304 7.09982
52.5293 6.96396
52.7284 6.85945
52.9276 6.73735
53.1271 6.67626
53.3267 6.56606
53.5265 6.41218
53.7264 6.2961
53.9266 6.18368
54.1269 6.03711
54.3274 5.91558
54.528 5.75799
54.7289 5.61548
54.9301 5.45433
55.1314 5.30229
55.3328 5.01584
55.5344 4.89329
55.7361 4.71893