Folder: NiFe_MOF_catalyst_paper/XRD (part 48)

File: Ni3Fe_FD0245.xy
TT I
1.27165 8.40485
1.45013 6.45773
1.62863 5.27052
1.80712 5.11901
1.98562 4.97364
2.16411 4.99891
2.34263 4.06522
2.52115 5.32158
2.69965 6.73961
2.87818 8.23319
3.05672 11.1459
3.23527 15.1107
3.4138 19.0219
3.59237 22.3951
3.77094 26.028
3.9495 30.4384
4.12809 34.6573
4.30669 40.3621
4.4853 48.3641
4.6639 58.0098
4.84253 71.5723
5.02118 96.2085
5.19981 894.276
5.37848 265.65
5.55716 111.632
5.73586 100.937
5.91455 109.674
6.09328 3733.58
6.27201 88.3122
6.45075 70.9603
6.62952 64.1356
6.8083 60.075
6.98711 57.5811
7.16591 56.6057
7.34475 55.5728
7.5236 55.9058
7.70247 57.9958
7.88135 60.364
8.06026 65.1181
8.23919 72.9803
8.41812 90.4951
8.59709 1084.36
8.77609 109.924
8.9551 90.8162
9.13412 87.2282
9.31318 87.9114
9.49226 89.6431
9.67134 95.7537
9.85047 106.673
10.0296 512.701
10.2088 532.437
10.388 115.128
10.5672 451.895
10.7465 92.2673
10.9257 80.7771
11.105 74.5309
11.2844 70.6457
11.4637 67.7664
11.6431 66.1169
11.8225 65.0505
12.002 68.5965
12.1814 141.914
12.3609 69.776
12.5405 67.2376
12.72 69.4136
12.8996 74.6418
13.0792 86.6557
13.2589 232.144
13.4386 147.546
13.6183 228.775
13.7981 109.039
13.9779 79.8575
14.1577 75.1874
14.3376 72.9006
14.5175 72.4142
14.6974 74.7311
14.8774 120.213
15.0574 167.372
15.2374 72.1668
15.4175 69.8577
15.5976 69.6943
15.7778 103.918
15.958 170.814
16.1382 63.7593
16.3185 60.1481
16.4988 57.9634
16.6792 56.792
16.8596 57.4363
17.04 59.1817
17.2205 69.0084
17.401 76.7643
17.5815 62.1116
17.7622 64.2937
17.9428 82.4163
18.1237 139.547
18.3044 90.2899
18.4852 82.8361
18.666 63.3642
18.8469 60.7524
19.0278 59.7596
19.2088 62.8355
19.3898 76.7143
19.5709 56.7904
19.752 55.8692
19.9332 59.3793
20.1144 72.6699
20.2957 64.5668
20.477 56.3698
20.6586 51.8305
20.84 51.2151
21.0215 51.1027
21.203 52.5365
21.3846 51.5489
21.5662 51.7474
21.7479 55.5146
21.9297 66.7292
22.1115 57.6303
22.2933 52.3866
22.4753 50.7671
22.6572 51.7423
22.8393 54.2156
23.0214 59.9843
23.2037 51.4594
23.3859 52.5055
23.5682 57.5615
23.7505 50.9208
23.9329 47.2552
24.1154 46.0097
24.2979 45.3703
24.4805 44.7823
24.6631 44.7418
24.8458 44.3218
25.0286 44.9462
25.2114 46.4644
25.3943 46.6241
25.5773 42.8667
25.7605 42.479
25.9436 42.5373
26.1268 43.5074
26.31 41.9924
26.4933 42.4174
26.6767 43.851
26.8601 42.2071
27.0437 40.6974
27.2272 40.1979
27.4109 40.0613
27.5946 40.1431
27.7784 39.6002
27.9623 39.938
28.1462 40.468
28.3304 38.8112
28.5145 37.471
28.6987 37.1755
28.8829 36.8056
29.0673 36.2299
29.2517 35.6532
29.4361 35.6428
29.6207 34.6123
29.8053 34.2774
29.99 34.0022
30.1748 33.8163
30.3597 33.7161
30.5447 33.5981
30.7297 33.6062
30.915 33.0127
31.1002 32.5944
31.2855 32.2089
31.4708 32.0558
31.6563 31.7927
31.8418 31.48
32.0275 31.1626
32.2132 30.6977
32.399 30.1658
32.5848 29.7244
32.7708 29.3454
32.9569 29.2415
33.143 29.0226
33.3293 28.6224
33.5158 28.227
33.7022 27.7825
33.8887 27.422
34.0753 27.0985
34.262 26.7772
34.4488 26.3223
34.6357 26.1068
34.8227 25.8203
35.0098 25.6017
35.1969 25.2673
35.3842 25.0087
35.5716 24.8018
35.759 24.5574
35.9468 24.1281
36.1345 23.9069
36.3222 23.6533
36.5101 23.4074
36.6981 23.0439
36.8861 22.7271
37.0743 22.4656
37.2626 22.176
37.451 21.8806
37.6395 21.7175
37.8281 21.3796
38.0168 21.0976
38.2056 20.7967
38.3945 20.5409
38.5837 20.2968
38.7728 20.0629
38.9621 19.838
39.1514 19.4691
39.3409 19.2395
39.5304 19.0531
39.7201 18.802
39.9099 18.6308
40.0999 18.3108
40.2899 18.0741
40.48 17.8536
40.6703 17.6601
40.8607 17.495
41.0512 17.2278
41.242 16.9155
41.4327 16.7359
41.6236 16.4695
41.8146 16.2998
42.0057 16.0833
42.1969 15.8581
42.3882 15.6394
42.5797 15.4227
42.7713 15.2876
42.963 15.0213
43.1549 14.8409
43.3468 14.6287
43.5389 14.4368
43.7312 14.2034
43.9237 14.038
44.1162 13.8447
44.3088 13.6169
44.5016 13.4081
44.6945 13.2554
44.8875 13.0509
45.0806 12.8583
45.2739 12.7085
45.4673 12.5522
45.6609 12.3141
45.8546 12.1682
46.0484 12.0082
46.2424 11.8016
46.4365 11.7052
46.631 11.5013
46.8254 11.2754
47.0199 11.1461
47.2146 10.9676
47.4095 10.8002
47.6044 10.5956
47.7996 10.4933
47.9948 10.3314
48.1902 10.2025
48.3858 10.0644
48.5815 9.90726
48.7774 9.7689
48.9734 9.62518
49.1696 9.48681
49.3661 9.30206
49.5626 9.16902
49.7592 9.03608
49.956 8.92897
50.153 8.75608
50.3501 8.61975
50.5474 8.47937
50.7448 8.33571
50.9424 8.24298
51.1402 8.13082
51.3381 7.97778
51.5362 7.81671
51.7344 7.76486
51.9328 7.56629
52.1316 7.43402
52.3304 7.36352
52.5293 7.22362
52.7284 7.11724
52.9276 7.0329
53.1271 6.89666
53.3267 6.71208
53.5265 6.60768
53.7264 6.49684
53.9266 6.43075
54.1269 6.29842
54.3274 6.17235
54.528 6.02297
54.7289 5.81498
54.9301 5.6673
55.1314 5.55429
55.3328 5.30398
55.5344 5.13408
55.7361 4.98065

File: Ni3Fe_FD0246.xy
TT I
1.27165 8.08571
1.45013 6.52355
1.62863 6.03802
1.80712 4.8525
1.98562 5.33367
2.16411 4.83708
2.34263 4.41975
2.52115 5.21164
2.69965 6.02586
2.87818 7.98095
3.05672 11.0701
3.23527 15.2566
3.4138 18.5393
3.59237 22.2305
3.77094 25.7447
3.9495 30.2396
4.12809 35.7216
4.30669 40.3724
4.4853 48.2921
4.6639 57.8659
4.84253 71.6965
5.02118 96.2799
5.19981 892.271
5.37848 266.31
5.55716 112.201
5.73586 100.648
5.91455 109.786
6.09328 3739.14
6.27201 88.4043
6.45075 71.3482
6.62952 64.1852
6.8083 60.091
6.98711 57.334
7.16591 56.3221
7.34475 55.9579
7.5236 56.1026
7.70247 58.1644
7.88135 60.2907
8.06026 65.2853
8.23919 73.3102
8.41812 90.2512
8.59709 1087.07
8.77609 109.937
8.9551 90.9649
9.13412 86.9447
9.31318 88.4517
9.49226 89.1791
9.67134 95.6631
9.85047 106.681
10.0296 512.141
10.2088 533.847
10.388 115.614
10.5672 452.275
10.7465 92.0796
10.9257 80.7544
11.105 74.8268
11.2844 70.6528
11.4637 67.7719
11.6431 66.233
11.8225 65.1737
12.002 68.7915
12.1814 141.733
12.3609 69.7561
12.5405 67.3537
12.72 69.6057
12.8996 74.5137
13.0792 86.4552
13.2589 232.948
13.4386 147.81
13.6183 228.925
13.7981 109.186
13.9779 79.9742
14.1577 75.1427
14.3376 72.8549
14.5175 72.5144
14.6974 74.3846
14.8774 120.167
15.0574 167.081
15.2374 71.9853
15.4175 69.848
15.5976 69.8873
15.7778 103.876
15.958 170.379
16.1382 63.9373
16.3185 60.164
16.4988 57.9937
16.6792 56.8553
16.8596 57.2788
17.04 59.3975
17.2205 69.2008
17.401 76.8795
17.5815 62.0456
17.7622 64.737
17.9428 82.6275
18.1237 139.494
18.3044 90.5324
18.4852 82.7779
18.666 63.4465
18.8469 60.8321
19.0278 59.5238
19.2088 62.58
19.3898 76.3707
19.5709 56.9698
19.752 56.0898
19.9332 59.6203
20.1144 72.6625
20.2957 64.5091
20.477 56.434
20.6586 52.0874
20.84 51.0013
21.0215 51.3422
21.203 52.5962
21.3846 51.4734
21.5662 51.8741
21.7479 55.4187
21.9297 66.8925
22.1115 57.8253
22.2933 52.3606
22.4753 50.7929
22.6572 51.773
22.8393 54.2379
23.0214 59.9983
23.2037 51.355
23.3859 52.3999
23.5682 57.633
23.7505 51.0116
23.9329 47.2976
24.1154 46.0607
24.2979 45.3504
24.4805 44.7795
24.6631 44.7416
24.8458 44.2873
25.0286 44.8199
25.2114 46.4402
25.3943 46.5475
25.5773 42.8433
25.7605 42.4712
25.9436 42.4838
26.1268 43.4967
26.31 42.0718
26.4933 42.4796
26.6767 43.9139
26.8601 42.1135
27.0437 40.6039
27.2272 40.3426
27.4109 39.9942
27.5946 40.1865
27.7784 39.7312
27.9623 39.9604
28.1462 40.6325
28.3304 38.9679
28.5145 37.4898
28.6987 37.1734
28.8829 36.9013
29.0673 36.2885
29.2517 35.7969
29.4361 35.5425
29.6207 34.6346
29.8053 34.3699
29.99 34.0222
30.1748 33.9285
30.3597 33.7145
30.5447 33.6156
30.7297 33.5007
30.915 33.0217
31.1002 32.4659
31.2855 32.1699
31.4708 32.1582
31.6563 31.6201
31.8418 31.4478
32.0275 31.2557
32.2132 30.6829
32.399 30.1705
32.5848 29.7671
32.7708 29.4828
32.9569 29.2542
33.143 28.9861
33.3293 28.5384
33.5158 28.1721
33.7022 27.7812
33.8887 27.4233
34.0753 27.1473
34.262 26.7195
34.4488 26.4868
34.6357 26.0716
34.8227 25.7752
35.0098 25.5908
35.1969 25.2874
35.3842 25.0208
35.5716 24.8017
35.759 24.5444
35.9468 24.0509
36.1345 23.8623
36.3222 23.7015
36.5101 23.3927
36.6981 23.045
36.8861 22.7256
37.0743 22.4695
37.2626 22.1597
37.451 21.831
37.6395 21.7591
37.8281 21.3373
38.0168 21.0407
38.2056 20.8383
38.3945 20.498
38.5837 20.2722
38.7728 20.0034
38.9621 19.8228
39.1514 19.5026
39.3409 19.2491
39.5304 19.0378
39.7201 18.8295
39.9099 18.5979
40.0999 18.388
40.2899 18.1646
40.48 17.8407
40.6703 17.6693
40.8607 17.4477
41.0512 17.1814
41.242 16.9756
41.4327 16.733
41.6236 16.5336
41.8146 16.2887
42.0057 16.1096
42.1969 15.8805
42.3882 15.6825
42.5797 15.4063
42.7713 15.2583
42.963 15.0334
43.1549 14.8536
43.3468 14.6055
43.5389 14.4319
43.7312 14.148
43.9237 14.0594
44.1162 13.8286
44.3088 13.6191
44.5016 13.465
44.6945 13.2834
44.8875 13.0635
45.0806 12.9277
45.2739 12.6956
45.4673 12.5552
45.6609 12.332
45.8546 12.2046
46.0484 11.9827
46.2424 11.845
46.4365 11.6895
46.631 11.4577
46.8254 11.2587
47.0199 11.1707
47.2146 10.962
47.4095 10.7771
47.6044 10.6299
47.7996 10.5099
47.9948 10.3624
48.1902 10.2109
48.3858 10.0829
48.5815 9.9276
48.7774 9.80308
48.9734 9.63103
49.1696 9.45949
49.3661 9.32695
49.5626 9.18547
49.7592 9.03235
49.956 8.90923
50.153 8.81686
50.3501 8.66135
50.5474 8.50684
50.7448 8.3823
50.9424 8.22225
51.1402 8.12077
51.3381 7.97178
51.5362 7.85392
51.7344 7.71651
51.9328 7.58098
52.1316 7.47051
52.3304 7.31151
52.5293 7.19879
52.7284 7.07195
52.9276 6.95812
53.1271 6.8752
53.3267 6.74654
53.5265 6.65488
53.7264 6.50702
53.9266 6.36171
54.1269 6.29818
54.3274 6.1797
54.528 5.98585
54.7289 5.8108
54.9301 5.69008
55.1314 5.5295
55.3328 5.27488
55.5344 5.09299
55.7361 4.97968

File: Ni3Fe_FD0247.xy
TT I
1.27165 7.73184
1.45013 6.63269
1.62863 5.59663
1.80712 4.98021
1.98562 4.96716
2.16411 4.8742
2.34263 4.30134
2.52115 5.07901
2.69965 6.19509
2.87818 7.85103
3.05672 11.2818
3.23527 14.9566
3.4138 19.1485
3.59237 22.4564
3.77094 25.9371
3.9495 29.9997
4.12809 34.8864
4.30669 40.5086
4.4853 48.6435
4.6639 58.5019
4.84253 71.5212
5.02118 95.9115
5.19981 894.344
5.37848 264.94
5.55716 111.384
5.73586 100.611
5.91455 109.739
6.09328 3734.51
6.27201 88.5246
6.45075 70.8982
6.62952 64.4444
6.8083 60.2754
6.98711 57.5178
7.16591 57.0241
7.34475 55.9815
7.5236 56.2997
7.70247 58.2407
7.88135 59.8769
8.06026 64.8283
8.23919 73.0205
8.41812 89.9119
8.59709 1086.08
8.77609 109.61
8.9551 91.0272
9.13412 86.9948
9.31318 88.0858
9.49226 89.6724
9.67134 95.4214
9.85047 107.234
10.0296 511.384
10.2088 533.392
10.388 115.491
10.5672 451.064
10.7465 91.644
10.9257 81.0297
11.105 74.5524
11.2844 70.8676
11.4637 67.6367
11.6431 66.5189
11.8225 65.2085
12.002 68.7224
12.1814 141.24
12.3609 69.8767
12.5405 67.4554
12.72 69.6789
12.8996 74.7308
13.0792 86.5491
13.2589 232.296
13.4386 147.665
13.6183 228.445
13.7981 109.311
13.9779 79.6216
14.1577 75.157
14.3376 72.7685
14.5175 72.526
14.6974 74.7395
14.8774 120.116
15.0574 167.484
15.2374 72.1225
15.4175 69.7923
15.5976 69.6975
15.7778 103.82
15.958 170.165
16.1382 63.8039
16.3185 59.9977
16.4988 57.9376
16.6792 56.8086
16.8596 57.2608
17.04 59.3895
17.2205 68.9476
17.401 76.9538
17.5815 61.8311
17.7622 64.501
17.9428 82.624
18.1237 139.598
18.3044 90.5462
18.4852 83.0882
18.666 63.0704
18.8469 60.7927
19.0278 59.4814
19.2088 62.7907
19.3898 76.5304
19.5709 56.9253
19.752 56.233
19.9332 59.4698
20.1144 72.5956
20.2957 64.771
20.477 56.4896
20.6586 51.9569
20.84 51.1673
21.0215 51.1722
21.203 52.6336
21.3846 51.5666
21.5662 51.811
21.7479 55.5277
21.9297 66.7457
22.1115 57.7775
22.2933 52.4563
22.4753 50.8609
22.6572 51.921
22.8393 54.2496
23.0214 59.9259
23.2037 51.2981
23.3859 52.3759
23.5682 57.6989
23.7505 51.0495
23.9329 47.3008
24.1154 46.1722
24.2979 45.3726
24.4805 44.8363
24.6631 44.6821
24.8458 44.317
25.0286 44.9305
25.2114 46.5271
25.3943 46.5295
25.5773 42.8225
25.7605 42.386
25.9436 42.667
26.1268 43.5142
26.31 41.9905
26.4933 42.4916
26.6767 43.9465
26.8601 42.3089
27.0437 40.6084
27.2272 40.3351
27.4109 40.1177
27.5946 40.2252
27.7784 39.6244
27.9623 39.9905
28.1462 40.4221
28.3304 38.8961
28.5145 37.4914
28.6987 37.1857
28.8829 36.8595
29.0673 36.3708
29.2517 35.7999
29.4361 35.6089
29.6207 34.5755
29.8053 34.307
29.99 34.0838
30.1748 33.8436
30.3597 33.7426
30.5447 33.5395
30.7297 33.6487
30.915 33.0195
31.1002 32.474
31.2855 32.2553
31.4708 32.1453
31.6563 31.7539
31.8418 31.397
32.0275 31.1638
32.2132 30.6607
32.399 30.2078
32.5848 29.7286
32.7708 29.4331
32.9569 29.2215
33.143 28.9661
33.3293 28.6071
33.5158 28.2304
33.7022 27.7855
33.8887 27.4655
34.0753 27.1686
34.262 26.7463
34.4488 26.3698
34.6357 26.0231
34.8227 25.7651
35.0098 25.5353
35.1969 25.2657
35.3842 25.0611
35.5716 24.8177
35.759 24.474
35.9468 24.1512
36.1345 23.8648
36.3222 23.6023
36.5101 23.4585
36.6981 23.0206
36.8861 22.7612
37.0743 22.4218
37.2626 22.2214
37.451 21.8961
37.6395 21.7561
37.8281 21.4067
38.0168 21.0209
38.2056 20.8867
38.3945 20.4946
38.5837 20.3115
38.7728 20.0018
38.9621 19.7505
39.1514 19.4847
39.3409 19.3157
39.5304 19.0884
39.7201 18.8535
39.9099 18.5968
40.0999 18.3739
40.2899 18.1239
40.48 17.8429
40.6703 17.6519
40.8607 17.4432
41.0512 17.2234
41.242 16.9076
41.4327 16.7464
41.6236 16.5138
41.8146 16.3049
42.0057 16.0808
42.1969 15.8309
42.3882 15.6871
42.5797 15.4378
42.7713 15.2392
42.963 15.01
43.1549 14.8288
43.3468 14.6212
43.5389 14.4055
43.7312 14.189
43.9237 14.041
44.1162 13.8196
44.3088 13.6266
44.5016 13.4403
44.6945 13.2574
44.8875 13.075
45.0806 12.8546
45.2739 12.7119
45.4673 12.5449
45.6609 12.3038
45.8546 12.175
46.0484 12.0551
46.2424 11.7857
46.4365 11.6631
46.631 11.4497
46.8254 11.3313
47.0199 11.1469
47.2146 11.0049
47.4095 10.7924
47.6044 10.6295
47.7996 10.4784
47.9948 10.3637
48.1902 10.2192
48.3858 10.0181
48.5815 9.941
48.7774 9.77033
48.9734 9.62952
49.1696 9.46314
49.3661 9.31865
49.5626 9.14752
49.7592 9.06613
49.956 8.91213
50.153 8.82165
50.3501 8.61143
50.5474 8.52967
50.7448 8.38215
50.9424 8.2569
51.1402 8.12518
51.3381 7.97011
51.5362 7.83331
51.7344 7.71787
51.9328 7.58116
52.1316 7.45379
52.3304 7.32473
52.5293 7.19281
52.7284 7.15879
52.9276 6.96996
53.1271 6.88655
53.3267 6.75953
53.5265 6.66025
53.7264 6.514
53.9266 6.38662
54.1269 6.25858
54.3274 6.15511
54.528 6.0232
54.7289 5.90602
54.9301 5.69201
55.1314 5.54521
55.3328 5.29297
55.5344 5.14869
55.7361 4.96915

File: Ni3Fe_FD0248.xy
TT I
1.27165 7.58588
1.45013 5.98849
1.62863 5.88352
1.80712 4.61627
1.98562 4.86423
2.16411 4.46536
2.34263 5.28357
2.52115 5.53693
2.69965 6.39722
2.87818 7.14387
3.05672 11.0917
3.23527 14.4516
3.4138 18.6813
3.59237 22.2136
3.77094 26.0324
3.9495 30.1218
4.12809 34.5287
4.30669 40.6007
4.4853 48.4737
4.6639 58.2141
4.84253 71.7185
5.02118 96.1465
5.19981 892.394
5.37848 264.208
5.55716 111.719
5.73586 100.267
5.91455 109.279
6.09328 3723.67
6.27201 88.4921
6.45075 71.1971
6.62952 64.0973
6.8083 60.1178
6.98711 57.2952
7.16591 56.8857
7.34475 55.8094
7.5236 56.0139
7.70247 57.9966
7.88135 60.047
8.06026 65.3144
8.23919 73.1281
8.41812 89.9368
8.59709 1086.65
8.77609 109.426
8.9551 90.4056
9.13412 86.643
9.31318 88.225
9.49226 89.4717
9.67134 95.1912
9.85047 106.654
10.0296 510.686
10.2088 526.167
10.388 115.365
10.5672 451.638
10.7465 91.9484
10.9257 80.7203
11.105 74.6724
11.2844 70.5807
11.4637 67.4267
11.6431 66.2247
11.8225 65.0173
12.002 68.9039
12.1814 141.24
12.3609 69.8026
12.5405 67.0129
12.72 69.4182
12.8996 74.4608
13.0792 86.4636
13.2589 231.931
13.4386 147.527
13.6183 228.71
13.7981 109.485
13.9779 79.7632
14.1577 74.9282
14.3376 72.8422
14.5175 72.4751
14.6974 74.4649
14.8774 119.95
15.0574 167.189
15.2374 72.183
15.4175 69.3122
15.5976 69.7054
15.7778 103.716
15.958 170.126
16.1382 63.6329
16.3185 59.929
16.4988 57.8306
16.6792 56.7219
16.8596 57.2974
17.04 59.1716
17.2205 68.9556
17.401 76.9311
17.5815 62.1248
17.7622 64.5748
17.9428 82.4943
18.1237 139.098
18.3044 90.4799
18.4852 82.9299
18.666 63.2619
18.8469 61.0502
19.0278 59.2285
19.2088 62.8496
19.3898 76.5278
19.5709 56.8529
19.752 56.0761
19.9332 59.4524
20.1144 72.451
20.2957 64.4873
20.477 56.3504
20.6586 51.8028
20.84 51.0558
21.0215 51.109
21.203 52.4903
21.3846 51.4875
21.5662 51.6403
21.7479 55.5453
21.9297 66.7345
22.1115 57.6049
22.2933 52.223
22.4753 50.8383
22.6572 51.8019
22.8393 54.0444
23.0214 59.8069
23.2037 51.3186
23.3859 52.562
23.5682 57.721
23.7505 51.0653
23.9329 47.2822
24.1154 46.2331
24.2979 45.4834
24.4805 44.795
24.6631 44.7939
24.8458 44.328
25.0286 44.9612
25.2114 46.3366
25.3943 46.3897
25.5773 42.7205
25.7605 42.3271
25.9436 42.4682
26.1268 43.5169
26.31 42.0716
26.4933 42.4265
26.6767 43.9401
26.8601 42.2885
27.0437 40.6701
27.2272 40.278
27.4109 40.0736
27.5946 40.0266
27.7784 39.5289
27.9623 39.959
28.1462 40.466
28.3304 38.8304
28.5145 37.5125
28.6987 37.1206
28.8829 36.8701
29.0673 36.1717
29.2517 35.7383
29.4361 35.6285
29.6207 34.6303
29.8053 34.3532
29.99 33.9574
30.1748 33.7814
30.3597 33.7756
30.5447 33.5419
30.7297 33.5844
30.915 32.9654
31.1002 32.5708
31.2855 32.1938
31.4708 32.1066
31.6563 31.6855
31.8418 31.304
32.0275 31.2244
32.2132 30.6784
32.399 30.2304
32.5848 29.6935
32.7708 29.4355
32.9569 29.2899
33.143 28.9995
33.3293 28.5579
33.5158 28.1873
33.7022 27.7609
33.8887 27.5067
34.0753 27.0554
34.262 26.7601
34.4488 26.3779
34.6357 26.0655
34.8227 25.7526
35.0098 25.5592
35.1969 25.2071
35.3842 25.021
35.5716 24.8324
35.759 24.5237
35.9468 24.1164
36.1345 23.814
36.3222 23.6306
36.5101 23.2752
36.6981 23.0699
36.8861 22.7375
37.0743 22.4476
37.2626 22.1652
37.451 21.848
37.6395 21.7322
37.8281 21.3199
38.0168 21.0805
38.2056 20.8149
38.3945 20.5251
38.5837 20.2447
38.7728 20.0596
38.9621 19.8037
39.1514 19.4893
39.3409 19.3047
39.5304 19.0401
39.7201 18.8261
39.9099 18.6048
40.0999 18.3291
40.2899 18.0703
40.48 17.8572
40.6703 17.5718
40.8607 17.45
41.0512 17.2296
41.242 16.9901
41.4327 16.7405
41.6236 16.4347
41.8146 16.347
42.0057 16.0476
42.1969 15.8887
42.3882 15.6696
42.5797 15.4601
42.7713 15.274
42.963 15.0156
43.1549 14.8141
43.3468 14.6567
43.5389 14.3824
43.7312 14.1963
43.9237 14.0468
44.1162 13.8247
44.3088 13.652
44.5016 13.4113
44.6945 13.251
44.8875 13.087
45.0806 12.8791
45.2739 12.7018
45.4673 12.5519
45.6609 12.3361
45.8546 12.1461
46.0484 11.9429
46.2424 11.7874
46.4365 11.6553
46.631 11.4623
46.8254 11.2995
47.0199 11.1444
47.2146 10.9942
47.4095 10.7843
47.6044 10.6309
47.7996 10.4959
47.9948 10.3177
48.1902 10.183
48.3858 10.0708
48.5815 9.92811
48.7774 9.77113
48.9734 9.61816
49.1696 9.47758
49.3661 9.32502
49.5626 9.14156
49.7592 9.04449
49.956 8.90673
50.153 8.80607
50.3501 8.62379
50.5474 8.52874
50.7448 8.4001
50.9424 8.24513
51.1402 8.11569
51.3381 7.99835
51.5362 7.86991
51.7344 7.68811
51.9328 7.56538
52.1316 7.46322
52.3304 7.37036
52.5293 7.19551
52.7284 7.09172
52.9276 6.95887
53.1271 6.85795
53.3267 6.77637
53.5265 6.61318
53.7264 6.52627
53.9266 6.39589
54.1269 6.29355
54.3274 6.1542
54.528 6.01045
54.7289 5.86217
54.9301 5.70655
55.1314 5.54436
55.3328 5.29981
55.5344 5.11333
55.7361 4.96124

File: Ni3Fe_FD0250.xy
TT I
1.27165 8.17155
1.45013 6.11977
1.62863 5.27308
1.80712 4.98553
1.98562 4.61051
2.16411 4.86607
2.34263 4.89212
2.52115 5.21298
2.69965 7.21219
2.87818 7.84393
3.05672 10.926
3.23527 15.1126
3.4138 18.6969
3.59237 22.4243
3.77094 26.0169
3.9495 30.2344
4.12809 34.9679
4.30669 40.7675
4.4853 48.3993
4.6639 58.4851
4.84253 71.467
5.02118 96.5912
5.19981 896.214
5.37848 262.05
5.55716 111.605
5.73586 100.88
5.91455 109.522
6.09328 3753.65
6.27201 88.5089
6.45075 70.9146
6.62952 64.363
6.8083 60.1839
6.98711 57.6527
7.16591 56.8867
7.34475 55.9759
7.5236 55.8437
7.70247 58.23
7.88135 60.3029
8.06026 65.4002
8.23919 73.0987
8.41812 90.4249
8.59709 1094.23
8.77609 109.367
8.9551 90.8832
9.13412 87.0771
9.31318 88.029
9.49226 89.7377
9.67134 95.6298
9.85047 106.54
10.0296 513.459
10.2088 515.574
10.388 115.63
10.5672 456.068
10.7465 91.8969
10.9257 80.3129
11.105 74.8922
11.2844 70.7141
11.4637 67.7637
11.6431 66.1114
11.8225 65.1622
12.002 68.6701
12.1814 142.117
12.3609 69.6851
12.5405 67.3251
12.72 69.6492
12.8996 74.882
13.0792 86.971
13.2589 233.09
13.4386 145.983
13.6183 229.349
13.7981 108.963
13.9779 79.8555
14.1577 75.1769
14.3376 72.9147
14.5175 72.477
14.6974 74.4804
14.8774 120.276
15.0574 166.537
15.2374 72.2612
15.4175 69.9194
15.5976 69.7546
15.7778 104.068
15.958 168.917
16.1382 63.542
16.3185 60.1435
16.4988 57.9673
16.6792 56.7939
16.8596 57.2029
17.04 59.2543
17.2205 69.1524
17.401 76.8255
17.5815 62.1426
17.7622 64.487
17.9428 82.6729
18.1237 139.411
18.3044 90.5365
18.4852 82.6095
18.666 63.2447
18.8469 60.8787
19.0278 59.542
19.2088 62.8422
19.3898 76.7304
19.5709 56.7334
19.752 56.1272
19.9332 59.356
20.1144 72.4291
20.2957 64.6748
20.477 56.4168
20.6586 51.9258
20.84 51.1211
21.0215 51.0647
21.203 52.4959
21.3846 51.5481
21.5662 51.8357
21.7479 55.3908
21.9297 66.6367
22.1115 57.6669
22.2933 52.2907
22.4753 50.8865
22.6572 51.8715
22.8393 54.1895
23.0214 59.7248
23.2037 51.269
23.3859 52.6185
23.5682 57.7344
23.7505 50.8206
23.9329 47.2356
24.1154 46.1112
24.2979 45.5052
24.4805 44.8002
24.6631 44.8363
24.8458 44.3029
25.0286 45.0009
25.2114 46.4413
25.3943 46.4201
25.5773 42.7514
25.7605 42.2637
25.9436 42.5785
26.1268 43.5435
26.31 42.0898
26.4933 42.4673
26.6767 43.8643
26.8601 42.2372
27.0437 40.6883
27.2272 40.2402
27.4109 39.9866
27.5946 40.1477
27.7784 39.6019
27.9623 40.0026
28.1462 40.3313
28.3304 38.8198
28.5145 37.4596
28.6987 37.0654
28.8829 36.9139
29.0673 36.1736
29.2517 35.7715
29.4361 35.6769
29.6207 34.6788
29.8053 34.3446
29.99 33.9497
30.1748 33.8023
30.3597 33.7657
30.5447 33.5803
30.7297 33.5897
30.915 33.0125
31.1002 32.5393
31.2855 32.2733
31.4708 32.1466
31.6563 31.7272
31.8418 31.3239
32.0275 31.1832
32.2132 30.7278
32.399 30.162
32.5848 29.785
32.7708 29.3882
32.9569 29.2637
33.143 28.8899
33.3293 28.607
33.5158 28.225
33.7022 27.7119
33.8887 27.4352
34.0753 27.1272
34.262 26.7297
34.4488 26.4409
34.6357 26.0753
34.8227 25.7277
35.0098 25.449
35.1969 25.2866
35.3842 24.98
35.5716 24.8279
35.759 24.4854
35.9468 24.1565
36.1345 23.8222
36.3222 23.6352
36.5101 23.3363
36.6981 23.0731
36.8861 22.7118
37.0743 22.4627
37.2626 22.1945
37.451 21.9252
37.6395 21.667
37.8281 21.3816
38.0168 21.1193
38.2056 20.8599
38.3945 20.5036
38.5837 20.2697
38.7728 19.9762
38.9621 19.6882
39.1514 19.5119
39.3409 19.2726
39.5304 19.0207
39.7201 18.8171
39.9099 18.5722
40.0999 18.3169
40.2899 18.1229
40.48 17.8468
40.6703 17.6609
40.8607 17.4328
41.0512 17.148
41.242 16.9281
41.4327 16.7345
41.6236 16.4983
41.8146 16.2707
42.0057 16.0401
42.1969 15.8294
42.3882 15.6337
42.5797 15.4071
42.7713 15.2332
42.963 15.05
43.1549 14.8057
43.3468 14.5853
43.5389 14.3791
43.7312 14.2014
43.9237 13.9711
44.1162 13.8417
44.3088 13.6025
44.5016 13.4019
44.6945 13.2374
44.8875 13.0594
45.0806 12.8855
45.2739 12.701
45.4673 12.5022
45.6609 12.3932
45.8546 12.1608
46.0484 12.006
46.2424 11.852
46.4365 11.6275
46.631 11.4419
46.8254 11.2817
47.0199 11.1536
47.2146 10.9914
47.4095 10.8455
47.6044 10.6601
47.7996 10.5043
47.9948 10.3705
48.1902 10.192
48.3858 10.0519
48.5815 9.88229
48.7774 9.75111
48.9734 9.61402
49.1696 9.46622
49.3661 9.32518
49.5626 9.16116
49.7592 9.04636
49.956 8.91374
50.153 8.76391
50.3501 8.61239
50.5474 8.50829
50.7448 8.39721
50.9424 8.24749
51.1402 8.07674
51.3381 7.95968
51.5362 7.83294
51.7344 7.70671
51.9328 7.59119
52.1316 7.41449
52.3304 7.30829
52.5293 7.24156
52.7284 7.11757
52.9276 6.98102
53.1271 6.89555
53.3267 6.76619
53.5265 6.62239
53.7264 6.51434
53.9266 6.44596
54.1269 6.29608
54.3274 6.17855
54.528 5.99932
54.7289 5.85921
54.9301 5.68862
55.1314 5.55893
55.3328 5.33836
55.5344 5.12721
55.7361 5.0188