Folder: NiFe_MOF_catalyst_paper/XRD (part 8)

File: Ni3Fe_FD0036.xy
TT I
1.27165 32.6483
1.45013 27.7589
1.62863 23.8712
1.80712 22.1951
1.98562 22.2128
2.16411 23.6544
2.34263 23.4209
2.52115 22.8048
2.69965 26.5789
2.87818 36.3785
3.05672 63.8586
3.23527 71.5209
3.4138 37.6854
3.59237 33.5191
3.77094 31.9705
3.9495 30.3436
4.12809 37.4686
4.30669 67.6909
4.4853 47.7389
4.6639 42.541
4.84253 51.8747
5.02118 88.2472
5.19981 297.496
5.37848 3520.48
5.55716 154.498
5.73586 101.259
5.91455 114.371
6.09328 513.084
6.27201 267.674
6.45075 68.0303
6.62952 51.8327
6.8083 48.3689
6.98711 40.8181
7.16591 42.518
7.34475 61.7365
7.5236 52.885
7.70247 43.787
7.88135 37.296
8.06026 39.2743
8.23919 44.7728
8.41812 57.3043
8.59709 177.544
8.77609 526.206
8.9551 76.2782
9.13412 61.0572
9.31318 292.014
9.49226 55.1411
9.67134 55.1274
9.85047 61.5878
10.0296 108.817
10.2088 591.49
10.388 115.383
10.5672 95.2521
10.7465 235.596
10.9257 49.659
11.105 43.4135
11.2844 41.5549
11.4637 38.5074
11.6431 38.0023
11.8225 37.82
12.002 89.3663
12.1814 48.4849
12.3609 94.3687
12.5405 43.218
12.72 40.8837
12.8996 40.0222
13.0792 44.2176
13.2589 67.9152
13.4386 173.359
13.6183 86.8768
13.7981 179.969
13.9779 57.5805
14.1577 52.3562
14.3376 46.5439
14.5175 39.5717
14.6974 39.8608
14.8774 45.9395
15.0574 66.783
15.2374 74.0938
15.4175 41.5385
15.5976 39.42
15.7778 43.2771
15.958 58.1972
16.1382 97.3444
16.3185 39.0061
16.4988 34.1996
16.6792 32.4159
16.8596 32.6486
17.04 41.825
17.2205 34.4857
17.401 38.1978
17.5815 42.8653
17.7622 36.2946
17.9428 40.3961
18.1237 44.4093
18.3044 92.8765
18.4852 55.1586
18.666 55.567
18.8469 36.5312
19.0278 34.6529
19.2088 34.6492
19.3898 42.9003
19.5709 46.8674
19.752 34.6721
19.9332 32.7563
20.1144 33.2781
20.2957 44.1408
20.477 38.7938
20.6586 35.3758
20.84 33.0781
21.0215 29.876
21.203 29.3782
21.3846 30.1024
21.5662 31.6031
21.7479 30.5529
21.9297 31.7275
22.1115 42.2184
22.2933 39.7877
22.4753 33.1463
22.6572 30.3752
22.8393 31.3129
23.0214 31.5873
23.2037 39.5811
23.3859 32.3383
23.5682 34.2344
23.7505 35.0997
23.9329 35.5818
24.1154 29.3012
24.2979 27.7842
24.4805 27.0461
24.6631 27.1147
24.8458 27.7278
25.0286 26.4826
25.2114 26.7617
25.3943 28.991
25.5773 30.0303
25.7605 27.2197
25.9436 26.8946
26.1268 25.7428
26.31 26.9571
26.4933 26.7308
26.6767 26.03
26.8601 27.5766
27.0437 28.7913
27.2272 25.902
27.4109 24.9028
27.5946 24.8526
27.7784 25.1742
27.9623 24.9729
28.1462 25.6663
28.3304 26.8865
28.5145 25.8644
28.6987 24.3678
28.8829 23.093
29.0673 22.789
29.2517 23.1177
29.4361 22.1698
29.6207 22.1213
29.8053 22.1123
29.99 21.2696
30.1748 21.4094
30.3597 21.0983
30.5447 21.3328
30.7297 20.9498
30.915 21.2158
31.1002 21.9982
31.2855 20.9838
31.4708 20.4952
31.6563 20.5048
31.8418 20.9621
32.0275 20.104
32.2132 20.3864
32.399 20.0927
32.5848 19.3398
32.7708 18.8879
32.9569 18.8026
33.143 18.7032
33.3293 18.3675
33.5158 18.6096
33.7022 18.4211
33.8887 17.7407
34.0753 17.7062
34.262 17.5402
34.4488 17.1215
34.6357 16.9871
34.8227 16.7387
35.0098 16.5502
35.1969 16.3485
35.3842 16.2166
35.5716 16.1432
35.759 16.2644
35.9468 16.1332
36.1345 15.6852
36.3222 15.5088
36.5101 15.475
36.6981 15.2235
36.8861 15.0817
37.0743 14.9373
37.2626 14.5908
37.451 14.4718
37.6395 14.3639
37.8281 14.0572
38.0168 13.9527
38.2056 13.8161
38.3945 13.5952
38.5837 13.3575
38.7728 13.2707
38.9621 13.1335
39.1514 12.9261
39.3409 12.7354
39.5304 12.6126
39.7201 12.4394
39.9099 12.3332
40.0999 12.1906
40.2899 12.1089
40.48 11.871
40.6703 11.7969
40.8607 11.6746
41.0512 11.5383
41.242 11.3946
41.4327 11.2477
41.6236 11.0136
41.8146 10.9347
42.0057 10.8305
42.1969 10.7442
42.3882 10.4848
42.5797 10.3378
42.7713 10.2595
42.963 10.0929
43.1549 9.96098
43.3468 9.8092
43.5389 9.69267
43.7312 9.52302
43.9237 9.45421
44.1162 9.35156
44.3088 9.22973
44.5016 9.08369
44.6945 8.99357
44.8875 8.89278
45.0806 8.73951
45.2739 8.64865
45.4673 8.52496
45.6609 8.38385
45.8546 8.27515
46.0484 8.16168
46.2424 8.04744
46.4365 7.96066
46.631 7.83178
46.8254 7.7052
47.0199 7.60342
47.2146 7.49633
47.4095 7.36439
47.6044 7.26759
47.7996 7.18369
47.9948 7.06638
48.1902 6.97739
48.3858 6.86409
48.5815 6.80457
48.7774 6.70772
48.9734 6.60252
49.1696 6.51306
49.3661 6.39858
49.5626 6.31791
49.7592 6.20155
49.956 6.14194
50.153 6.01494
50.3501 5.93698
50.5474 5.87523
50.7448 5.81009
50.9424 5.70387
51.1402 5.65342
51.3381 5.48616
51.5362 5.48928
51.7344 5.36539
51.9328 5.27797
52.1316 5.16067
52.3304 5.1271
52.5293 5.06341
52.7284 4.96307
52.9276 4.89255
53.1271 4.81881
53.3267 4.73571
53.5265 4.62174
53.7264 4.57466
53.9266 4.4527
54.1269 4.36906
54.3274 4.31003
54.528 4.17062
54.7289 4.03957
54.9301 3.91261
55.1314 3.78783
55.3328 3.67864
55.5344 3.50232
55.7361 3.4621

File: Ni3Fe_FD0037.xy
TT I
1.27165 32.2431
1.45013 27.7692
1.62863 23.9374
1.80712 21.9836
1.98562 21.553
2.16411 22.4199
2.34263 23.1177
2.52115 22.7699
2.69965 27.3319
2.87818 36.7528
3.05672 64.0295
3.23527 70.8414
3.4138 37.7324
3.59237 32.1326
3.77094 30.7292
3.9495 29.5947
4.12809 35.6319
4.30669 61.8022
4.4853 44.878
4.6639 41.7375
4.84253 51.5247
5.02118 88.2592
5.19981 296.67
5.37848 3532.38
5.55716 154.329
5.73586 101.381
5.91455 114.981
6.09328 517.572
6.27201 263.853
6.45075 67.1808
6.62952 50.6616
6.8083 46.9375
6.98711 40.1401
7.16591 40.784
7.34475 57.4397
7.5236 52.1189
7.70247 43.1525
7.88135 37.1321
8.06026 39.0821
8.23919 44.1692
8.41812 56.6041
8.59709 177.831
8.77609 511.639
8.9551 75.961
9.13412 61.2338
9.31318 307.824
9.49226 55.5433
9.67134 54.8004
9.85047 61.5019
10.0296 109.736
10.2088 601.28
10.388 113.471
10.5672 95.4635
10.7465 235.105
10.9257 49.0942
11.105 43.2159
11.2844 41.4887
11.4637 38.1121
11.6431 37.8691
11.8225 37.801
12.002 94.2537
12.1814 48.6247
12.3609 93.9099
12.5405 42.8784
12.72 40.605
12.8996 39.7643
13.0792 44.4221
13.2589 67.7588
13.4386 174.771
13.6183 86.3405
13.7981 180.913
13.9779 57.1243
14.1577 52.7827
14.3376 46.285
14.5175 39.5243
14.6974 39.8118
14.8774 45.939
15.0574 67.3913
15.2374 72.9554
15.4175 41.4236
15.5976 39.3048
15.7778 43.6929
15.958 58.2459
16.1382 96.6576
16.3185 38.6717
16.4988 34.332
16.6792 32.5621
16.8596 32.6415
17.04 42.2829
17.2205 34.6199
17.401 38.4029
17.5815 42.5674
17.7622 36.2676
17.9428 40.4669
18.1237 44.1427
18.3044 92.3151
18.4852 54.8497
18.666 55.0728
18.8469 36.5015
19.0278 34.5793
19.2088 34.5419
19.3898 43.5126
19.5709 46.701
19.752 34.6276
19.9332 32.5959
20.1144 33.3111
20.2957 43.9677
20.477 38.8142
20.6586 34.9475
20.84 33.4011
21.0215 29.9942
21.203 29.4714
21.3846 30.0783
21.5662 31.57
21.7479 30.4705
21.9297 31.7242
22.1115 42.1604
22.2933 39.6405
22.4753 33.0913
22.6572 30.2379
22.8393 31.31
23.0214 31.5046
23.2037 39.3323
23.3859 32.3167
23.5682 34.4865
23.7505 35.1938
23.9329 35.1586
24.1154 29.3119
24.2979 27.8189
24.4805 26.8303
24.6631 27.0203
24.8458 27.7134
25.0286 26.5863
25.2114 26.8071
25.3943 28.982
25.5773 29.9187
25.7605 27.1084
25.9436 26.9607
26.1268 25.8221
26.31 26.8935
26.4933 26.6881
26.6767 25.9597
26.8601 27.6543
27.0437 28.5846
27.2272 25.9408
27.4109 24.8028
27.5946 24.8657
27.7784 25.271
27.9623 24.8294
28.1462 25.7571
28.3304 26.6809
28.5145 25.6926
28.6987 24.239
28.8829 22.9974
29.0673 22.7085
29.2517 23.0117
29.4361 22.0786
29.6207 22.1185
29.8053 22.0389
29.99 21.3101
30.1748 21.5095
30.3597 21.0866
30.5447 21.379
30.7297 20.9563
30.915 21.2575
31.1002 21.8187
31.2855 20.9483
31.4708 20.4807
31.6563 20.5238
31.8418 20.7758
32.0275 20.0556
32.2132 20.2605
32.399 20.0775
32.5848 19.3286
32.7708 18.8811
32.9569 18.7651
33.143 18.6983
33.3293 18.3623
33.5158 18.5834
33.7022 18.3369
33.8887 17.787
34.0753 17.5646
34.262 17.3632
34.4488 17.0985
34.6357 16.9558
34.8227 16.7329
35.0098 16.4657
35.1969 16.2991
35.3842 16.2476
35.5716 16.1201
35.759 16.2631
35.9468 16.032
36.1345 15.6789
36.3222 15.4697
36.5101 15.4256
36.6981 15.2041
36.8861 15.0046
37.0743 14.8704
37.2626 14.5764
37.451 14.3311
37.6395 14.345
37.8281 14.0686
38.0168 13.8617
38.2056 13.7613
38.3945 13.4905
38.5837 13.4153
38.7728 13.2274
38.9621 13.0608
39.1514 12.9192
39.3409 12.6836
39.5304 12.5978
39.7201 12.4346
39.9099 12.292
40.0999 12.146
40.2899 12.0726
40.48 11.9113
40.6703 11.7469
40.8607 11.6134
41.0512 11.487
41.242 11.3514
41.4327 11.2064
41.6236 11.0134
41.8146 10.9543
42.0057 10.8173
42.1969 10.6424
42.3882 10.515
42.5797 10.366
42.7713 10.2546
42.963 10.0794
43.1549 9.928
43.3468 9.76089
43.5389 9.65927
43.7312 9.55952
43.9237 9.42471
44.1162 9.30415
44.3088 9.20452
44.5016 9.0569
44.6945 8.91497
44.8875 8.85792
45.0806 8.71973
45.2739 8.59593
45.4673 8.50421
45.6609 8.37654
45.8546 8.24694
46.0484 8.14739
46.2424 8.01163
46.4365 7.91657
46.631 7.81128
46.8254 7.71377
47.0199 7.60582
47.2146 7.49351
47.4095 7.3488
47.6044 7.25638
47.7996 7.18984
47.9948 7.0861
48.1902 6.98535
48.3858 6.87709
48.5815 6.76042
48.7774 6.67638
48.9734 6.56914
49.1696 6.48126
49.3661 6.42137
49.5626 6.29164
49.7592 6.23092
49.956 6.12811
50.153 6.02934
50.3501 5.95367
50.5474 5.8759
50.7448 5.79625
50.9424 5.72387
51.1402 5.6427
51.3381 5.53995
51.5362 5.44291
51.7344 5.38749
51.9328 5.29118
52.1316 5.18836
52.3304 5.09702
52.5293 5.0582
52.7284 4.91968
52.9276 4.85832
53.1271 4.81805
53.3267 4.74133
53.5265 4.62621
53.7264 4.53636
53.9266 4.53125
54.1269 4.38924
54.3274 4.27812
54.528 4.12566
54.7289 4.0191
54.9301 3.93901
55.1314 3.82219
55.3328 3.60941
55.5344 3.52591
55.7361 3.41626

File: Ni3Fe_FD0039.xy
TT I
1.27165 32.5537
1.45013 27.6938
1.62863 23.8279
1.80712 22.3453
1.98562 21.2933
2.16411 21.3266
2.34263 21.6134
2.52115 23.0428
2.69965 27.2522
2.87818 36.9195
3.05672 63.9559
3.23527 70.4656
3.4138 36.7137
3.59237 30.5362
3.77094 28.7293
3.9495 28.0742
4.12809 33.008
4.30669 54.3801
4.4853 41.5261
4.6639 41.4481
4.84253 51.9025
5.02118 88.5696
5.19981 295.296
5.37848 3536.88
5.55716 153.685
5.73586 101.276
5.91455 115.235
6.09328 521.541
6.27201 257.968
6.45075 66.0038
6.62952 48.9112
6.8083 44.8462
6.98711 39.364
7.16591 40.2322
7.34475 52.2194
7.5236 52.1375
7.70247 43.3223
7.88135 37.2902
8.06026 39.104
8.23919 44.2981
8.41812 56.308
8.59709 177.594
8.77609 495.193
8.9551 75.7227
9.13412 61.8597
9.31318 322.394
9.49226 55.8378
9.67134 55.0087
9.85047 61.1126
10.0296 109.562
10.2088 612.92
10.388 111.3
10.5672 95.2522
10.7465 233.949
10.9257 49.6008
11.105 42.8761
11.2844 40.8596
11.4637 38.0969
11.6431 37.6803
11.8225 37.7029
12.002 99.2018
12.1814 48.6447
12.3609 92.8318
12.5405 42.3966
12.72 40.024
12.8996 39.9893
13.0792 44.34
13.2589 67.6007
13.4386 176.964
13.6183 85.5747
13.7981 182.79
13.9779 56.7273
14.1577 53.8911
14.3376 46.5406
14.5175 39.8576
14.6974 39.812
14.8774 46.1174
15.0574 68.1573
15.2374 71.3435
15.4175 41.1684
15.5976 39.3579
15.7778 43.6718
15.958 58.8405
16.1382 95.3296
16.3185 38.5246
16.4988 34.0563
16.6792 32.5713
16.8596 32.5947
17.04 42.698
17.2205 34.7045
17.401 38.5741
17.5815 42.1161
17.7622 36.3546
17.9428 40.5655
18.1237 44.584
18.3044 91.7314
18.4852 54.8239
18.666 54.514
18.8469 36.5226
19.0278 34.6556
19.2088 34.7983
19.3898 44.1792
19.5709 46.3367
19.752 34.2999
19.9332 32.6581
20.1144 33.4352
20.2957 43.9567
20.477 38.8578
20.6586 34.5192
20.84 33.4803
21.0215 29.829
21.203 29.3967
21.3846 30.2151
21.5662 31.7038
21.7479 30.4714
21.9297 31.8107
22.1115 41.9198
22.2933 39.3055
22.4753 32.7897
22.6572 30.246
22.8393 31.4983
23.0214 31.4463
23.2037 39.2041
23.3859 32.0341
23.5682 34.5221
23.7505 35.1625
23.9329 34.6911
24.1154 29.4273
24.2979 27.5149
24.4805 27.085
24.6631 27.1072
24.8458 27.6146
25.0286 26.4963
25.2114 26.7871
25.3943 29.0503
25.5773 29.9442
25.7605 26.9654
25.9436 26.922
26.1268 25.7561
26.31 26.8619
26.4933 26.5901
26.6767 25.9163
26.8601 27.6252
27.0437 28.6844
27.2272 25.8242
27.4109 24.7462
27.5946 24.9669
27.7784 25.0588
27.9623 24.7412
28.1462 25.7063
28.3304 26.6883
28.5145 25.5507
28.6987 24.1502
28.8829 23.0409
29.0673 22.7012
29.2517 22.9624
29.4361 22.0915
29.6207 22.0667
29.8053 21.8764
29.99 21.2358
30.1748 21.5224
30.3597 21.0661
30.5447 21.3025
30.7297 21.0015
30.915 21.2072
31.1002 21.8492
31.2855 20.8754
31.4708 20.3737
31.6563 20.4822
31.8418 20.78
32.0275 20.0424
32.2132 20.2018
32.399 19.9335
32.5848 19.2656
32.7708 18.8584
32.9569 18.8251
33.143 18.6738
33.3293 18.2905
33.5158 18.593
33.7022 18.3062
33.8887 17.7926
34.0753 17.4947
34.262 17.4024
34.4488 17.0328
34.6357 16.88
34.8227 16.6688
35.0098 16.45
35.1969 16.2879
35.3842 16.2025
35.5716 16.0592
35.759 16.2178
35.9468 15.9338
36.1345 15.6424
36.3222 15.4028
36.5101 15.4304
36.6981 15.1483
36.8861 14.9709
37.0743 14.8079
37.2626 14.5385
37.451 14.3499
37.6395 14.243
37.8281 14.0609
38.0168 13.8857
38.2056 13.7471
38.3945 13.4349
38.5837 13.3072
38.7728 13.2147
38.9621 13.0551
39.1514 12.944
39.3409 12.6898
39.5304 12.5552
39.7201 12.4115
39.9099 12.2919
40.0999 12.1029
40.2899 12.079
40.48 11.8193
40.6703 11.7331
40.8607 11.614
41.0512 11.5061
41.242 11.3293
41.4327 11.1902
41.6236 10.9893
41.8146 10.9137
42.0057 10.8003
42.1969 10.6373
42.3882 10.4816
42.5797 10.286
42.7713 10.217
42.963 10.0323
43.1549 9.91656
43.3468 9.73709
43.5389 9.63784
43.7312 9.54657
43.9237 9.37694
44.1162 9.30226
44.3088 9.16316
44.5016 9.05579
44.6945 8.93299
44.8875 8.81077
45.0806 8.71056
45.2739 8.59228
45.4673 8.45374
45.6609 8.35215
45.8546 8.25744
46.0484 8.15399
46.2424 8.01564
46.4365 7.90644
46.631 7.7975
46.8254 7.68102
47.0199 7.59056
47.2146 7.46467
47.4095 7.32723
47.6044 7.24403
47.7996 7.14074
47.9948 7.01914
48.1902 6.93685
48.3858 6.83152
48.5815 6.76654
48.7774 6.67607
48.9734 6.553
49.1696 6.48143
49.3661 6.33911
49.5626 6.30992
49.7592 6.2156
49.956 6.09681
50.153 6.05106
50.3501 5.94632
50.5474 5.83972
50.7448 5.78413
50.9424 5.70441
51.1402 5.61811
51.3381 5.49923
51.5362 5.41879
51.7344 5.32964
51.9328 5.25816
52.1316 5.15944
52.3304 5.09661
52.5293 5.01439
52.7284 4.95759
52.9276 4.84139
53.1271 4.7819
53.3267 4.7012
53.5265 4.63497
53.7264 4.56424
53.9266 4.45607
54.1269 4.35505
54.3274 4.26037
54.528 4.1403
54.7289 4.04037
54.9301 3.89389
55.1314 3.78701
55.3328 3.66791
55.5344 3.50216
55.7361 3.44711

File: Ni3Fe_FD0040.xy
TT I
1.27165 32.5784
1.45013 27.6149
1.62863 24.1995
1.80712 21.7017
1.98562 21.1934
2.16411 21.7014
2.34263 22.4074
2.52115 22.0202
2.69965 26.6307
2.87818 36.8622
3.05672 63.6289
3.23527 70.1312
3.4138 35.8233
3.59237 30.3505
3.77094 28.5329
3.9495 27.9853
4.12809 32.2224
4.30669 51.7959
4.4853 41.5288
4.6639 41.5631
4.84253 52.3295
5.02118 89.9116
5.19981 296.912
5.37848 3508.49
5.55716 153.149
5.73586 101.19
5.91455 115.198
6.09328 525.205
6.27201 254.548
6.45075 65.8844
6.62952 48.4686
6.8083 44.2926
6.98711 39.5359
7.16591 40.4152
7.34475 50.082
7.5236 52.1786
7.70247 42.9631
7.88135 37.1531
8.06026 38.9425
8.23919 44.1469
8.41812 56.5847
8.59709 178.535
8.77609 483.532
8.9551 75.5059
9.13412 61.9737
9.31318 325.309
9.49226 55.8429
9.67134 55.2881
9.85047 60.9708
10.0296 110.213
10.2088 620.386
10.388 110.052
10.5672 95.8109
10.7465 231.157
10.9257 49.8055
11.105 43.0893
11.2844 40.922
11.4637 38.2401
11.6431 37.87
11.8225 37.7756
12.002 101.285
12.1814 48.8628
12.3609 92.1515
12.5405 42.3714
12.72 39.892
12.8996 39.7943
13.0792 44.7299
13.2589 67.808
13.4386 178.597
13.6183 84.7381
13.7981 183.55
13.9779 56.4843
14.1577 55.0517
14.3376 46.4556
14.5175 40.0889
14.6974 40.0265
14.8774 46.695
15.0574 68.7878
15.2374 70.2977
15.4175 41.358
15.5976 39.4539
15.7778 43.9525
15.958 59.3828
16.1382 94.3284
16.3185 38.5725
16.4988 34.1158
16.6792 32.8223
16.8596 32.7517
17.04 42.9704
17.2205 34.8671
17.401 38.6388
17.5815 41.7742
17.7622 36.5804
17.9428 40.5259
18.1237 44.493
18.3044 91.1582
18.4852 54.8134
18.666 54.0619
18.8469 36.6176
19.0278 34.7428
19.2088 34.8234
19.3898 44.7242
19.5709 46.5079
19.752 34.4165
19.9332 32.648
20.1144 33.4298
20.2957 44.0991
20.477 38.9799
20.6586 34.6387
20.84 33.7469
21.0215 30.024
21.203 29.5348
21.3846 30.3812
21.5662 31.7092
21.7479 30.5895
21.9297 31.865
22.1115 41.9539
22.2933 39.3959
22.4753 32.6878
22.6572 30.1117
22.8393 31.5178
23.0214 31.5158
23.2037 39.0618
23.3859 32.1133
23.5682 34.4793
23.7505 35.1115
23.9329 34.3085
24.1154 29.3485
24.2979 27.7344
24.4805 27.1088
24.6631 27.0827
24.8458 27.6923
25.0286 26.6315
25.2114 26.8481
25.3943 28.9994
25.5773 29.9309
25.7605 26.9689
25.9436 26.9271
26.1268 25.7878
26.31 26.9031
26.4933 26.5189
26.6767 25.9147
26.8601 27.5858
27.0437 28.4979
27.2272 25.8012
27.4109 24.8446
27.5946 24.8146
27.7784 24.9984
27.9623 24.752
28.1462 25.6543
28.3304 26.5733
28.5145 25.6436
28.6987 24.1655
28.8829 22.9733
29.0673 22.6852
29.2517 22.9725
29.4361 22.1172
29.6207 22.0786
29.8053 21.917
29.99 21.404
30.1748 21.4618
30.3597 21.0044
30.5447 21.2449
30.7297 20.8991
30.915 21.2394
31.1002 21.726
31.2855 20.8562
31.4708 20.3472
31.6563 20.5025
31.8418 20.6974
32.0275 20.0313
32.2132 20.2806
32.399 19.9417
32.5848 19.271
32.7708 18.9203
32.9569 18.7979
33.143 18.6225
33.3293 18.331
33.5158 18.5446
33.7022 18.2051
33.8887 17.7527
34.0753 17.5224
34.262 17.3716
34.4488 17.1369
34.6357 16.9161
34.8227 16.6323
35.0098 16.4522
35.1969 16.2509
35.3842 16.1875
35.5716 16.0448
35.759 16.2141
35.9468 15.956
36.1345 15.7178
36.3222 15.5242
36.5101 15.3412
36.6981 15.1487
36.8861 15.0115
37.0743 14.7838
37.2626 14.4777
37.451 14.358
37.6395 14.2533
37.8281 14.0224
38.0168 13.794
38.2056 13.6981
38.3945 13.4435
38.5837 13.3218
38.7728 13.1884
38.9621 12.9756
39.1514 12.8721
39.3409 12.6832
39.5304 12.5174
39.7201 12.3949
39.9099 12.2287
40.0999 12.1718
40.2899 12.0204
40.48 11.8514
40.6703 11.6987
40.8607 11.5955
41.0512 11.4689
41.242 11.2857
41.4327 11.1872
41.6236 11.0142
41.8146 10.8884
42.0057 10.7396
42.1969 10.6041
42.3882 10.4691
42.5797 10.2875
42.7713 10.1904
42.963 10.0687
43.1549 9.88429
43.3468 9.76626
43.5389 9.66471
43.7312 9.50399
43.9237 9.41421
44.1162 9.30517
44.3088 9.17915
44.5016 9.007
44.6945 8.94282
44.8875 8.78473
45.0806 8.66523
45.2739 8.6075
45.4673 8.45312
45.6609 8.31236
45.8546 8.22765
46.0484 8.11517
46.2424 7.9913
46.4365 7.96486
46.631 7.76643
46.8254 7.63986
47.0199 7.55346
47.2146 7.46822
47.4095 7.36578
47.6044 7.19497
47.7996 7.12595
47.9948 7.02664
48.1902 6.91699
48.3858 6.85677
48.5815 6.71829
48.7774 6.63106
48.9734 6.60069
49.1696 6.43839
49.3661 6.37788
49.5626 6.27264
49.7592 6.19526
49.956 6.10409
50.153 6.00775
50.3501 5.94147
50.5474 5.85164
50.7448 5.75027
50.9424 5.66698
51.1402 5.59518
51.3381 5.47942
51.5362 5.44102
51.7344 5.33005
51.9328 5.22149
52.1316 5.13386
52.3304 5.10754
52.5293 5.0317
52.7284 4.96691
52.9276 4.86473
53.1271 4.79944
53.3267 4.71076
53.5265 4.63755
53.7264 4.56225
53.9266 4.45702
54.1269 4.33386
54.3274 4.30564
54.528 4.14161
54.7289 4.03692
54.9301 3.89296
55.1314 3.82308
55.3328 3.64277
55.5344 3.4978
55.7361 3.39939

File: Ni3Fe_FD0041.xy
TT I
1.27165 32.7432
1.45013 27.2717
1.62863 23.8101
1.80712 21.726
1.98562 21.5328
2.16411 21.6351
2.34263 22.3128
2.52115 22.7591
2.69965 26.3221
2.87818 36.9527
3.05672 64.1529
3.23527 69.5698
3.4138 35.5455
3.59237 29.2037
3.77094 28.0484
3.9495 27.4506
4.12809 31.368
4.30669 48.2102
4.4853 40.2621
4.6639 41.3627
4.84253 52.7115
5.02118 90.4707
5.19981 297.804
5.37848 3485.79
5.55716 153.334
5.73586 101.888
5.91455 115.718
6.09328 529.643
6.27201 251.667
6.45075 65.4642
6.62952 48.0857
6.8083 43.7385
6.98711 39.4911
7.16591 40.8714
7.34475 47.9988
7.5236 52.8397
7.70247 43.385
7.88135 37.2963
8.06026 39.414
8.23919 44.4905
8.41812 57.0296
8.59709 178.693
8.77609 473.143
8.9551 75.71
9.13412 62.2401
9.31318 328.184
9.49226 56.8005
9.67134 55.52
9.85047 61.4453
10.0296 110.568
10.2088 628.591
10.388 109.159
10.5672 95.9406
10.7465 228.305
10.9257 49.7354
11.105 43.3533
11.2844 40.9137
11.4637 38.6099
11.6431 37.9105
11.8225 37.9989
12.002 103.546
12.1814 48.956
12.3609 91.9567
12.5405 42.4112
12.72 39.7011
12.8996 40.005
13.0792 45.0621
13.2589 67.8892
13.4386 179.719
13.6183 84.6011
13.7981 184.459
13.9779 56.2551
14.1577 55.7975
14.3376 46.5304
14.5175 40.0061
14.6974 40.1789
14.8774 46.5809
15.0574 69.4959
15.2374 69.3046
15.4175 41.3868
15.5976 39.4668
15.7778 44.0415
15.958 59.8455
16.1382 92.7248
16.3185 38.3091
16.4988 34.0369
16.6792 32.9282
16.8596 32.9489
17.04 42.8674
17.2205 34.9134
17.401 38.9384
17.5815 41.5075
17.7622 36.6502
17.9428 40.6198
18.1237 44.661
18.3044 90.7348
18.4852 55.1928
18.666 53.3725
18.8469 36.6247
19.0278 34.6403
19.2088 34.9552
19.3898 45.0432
19.5709 46.2461
19.752 34.3665
19.9332 32.741
20.1144 33.6497
20.2957 43.9763
20.477 39.0267
20.6586 34.2191
20.84 33.8826
21.0215 29.9792
21.203 29.6319
21.3846 30.4569
21.5662 31.7033
21.7479 30.6172
21.9297 31.8925
22.1115 42.1242
22.2933 39.2698
22.4753 32.5609
22.6572 30.3917
22.8393 31.562
23.0214 31.6301
23.2037 38.9959
23.3859 32.1694
23.5682 34.506
23.7505 35.4009
23.9329 34.0418
24.1154 29.4152
24.2979 27.7818
24.4805 26.927
24.6631 27.1887
24.8458 27.6261
25.0286 26.5254
25.2114 26.7947
25.3943 28.9829
25.5773 29.7379
25.7605 26.9901
25.9436 26.9718
26.1268 25.7492
26.31 26.9477
26.4933 26.4897
26.6767 25.8068
26.8601 27.6225
27.0437 28.3644
27.2272 25.7536
27.4109 24.8767
27.5946 24.8265
27.7784 25.2138
27.9623 24.6869
28.1462 25.6892
28.3304 26.4762
28.5145 25.5084
28.6987 24.1159
28.8829 23.0909
29.0673 22.6448
29.2517 22.908
29.4361 22.16
29.6207 22.2161
29.8053 21.8851
29.99 21.3088
30.1748 21.5493
30.3597 21.0425
30.5447 21.2876
30.7297 20.8776
30.915 21.2086
31.1002 21.6603
31.2855 20.845
31.4708 20.3727
31.6563 20.5293
31.8418 20.6944
32.0275 20.0105
32.2132 20.1088
32.399 19.8758
32.5848 19.2914
32.7708 18.8317
32.9569 18.8223
33.143 18.6781
33.3293 18.3536
33.5158 18.5568
33.7022 18.2624
33.8887 17.7165
34.0753 17.5933
34.262 17.3499
34.4488 17.0615
34.6357 16.8939
34.8227 16.6641
35.0098 16.3532
35.1969 16.3224
35.3842 16.2281
35.5716 16.0859
35.759 16.1839
35.9468 15.8767
36.1345 15.6659
36.3222 15.4949
36.5101 15.3604
36.6981 15.1385
36.8861 14.9428
37.0743 14.7722
37.2626 14.51
37.451 14.303
37.6395 14.2804
37.8281 14.0333
38.0168 13.86
38.2056 13.6331
38.3945 13.4287
38.5837 13.3485
38.7728 13.1711
38.9621 13.0155
39.1514 12.872
39.3409 12.688
39.5304 12.4859
39.7201 12.4141
39.9099 12.1993
40.0999 12.1486
40.2899 12.0044
40.48 11.8188
40.6703 11.7344
40.8607 11.5978
41.0512 11.4522
41.242 11.2443
41.4327 11.1944
41.6236 10.9896
41.8146 10.8729
42.0057 10.7359
42.1969 10.5798
42.3882 10.4815
42.5797 10.317
42.7713 10.163
42.963 10.0272
43.1549 9.86133
43.3468 9.74156
43.5389 9.65201
43.7312 9.50018
43.9237 9.36301
44.1162 9.29204
44.3088 9.12034
44.5016 9.03121
44.6945 8.93979
44.8875 8.7741
45.0806 8.68161
45.2739 8.53826
45.4673 8.42944
45.6609 8.31186
45.8546 8.19955
46.0484 8.1102
46.2424 7.99998
46.4365 7.86651
46.631 7.78886
46.8254 7.65211
47.0199 7.56256
47.2146 7.44515
47.4095 7.3633
47.6044 7.21154
47.7996 7.1071
47.9948 7.02234
48.1902 6.90894
48.3858 6.84449
48.5815 6.74258
48.7774 6.68172
48.9734 6.55064
49.1696 6.46141
49.3661 6.3525
49.5626 6.25365
49.7592 6.19815
49.956 6.11635
50.153 6.00284
50.3501 5.92239
50.5474 5.83872
50.7448 5.74693
50.9424 5.65497
51.1402 5.5892
51.3381 5.51739
51.5362 5.4286
51.7344 5.33076
51.9328 5.25152
52.1316 5.16658
52.3304 5.11296
52.5293 5.00961
52.7284 4.93524
52.9276 4.84154
53.1271 4.80254
53.3267 4.72282
53.5265 4.60581
53.7264 4.54547
53.9266 4.49303
54.1269 4.32532
54.3274 4.26154
54.528 4.13324
54.7289 4.00752
54.9301 3.90768
55.1314 3.76844
55.3328 3.64755
55.5344 3.51858
55.7361 3.43053