Folder: NiFe_MOF_catalyst_paper/XRD (part 195)

File: Ni3Fe_FD1052.xy
TT I
1.27165 7.08817
1.45013 6.21974
1.62863 4.83626
1.80712 4.65567
1.98562 4.20929
2.16411 3.75856
2.34263 5.14231
2.52115 7.25487
2.69965 8.3879
2.87818 9.0626
3.05672 11.2718
3.23527 14.4558
3.4138 18.3108
3.59237 20.9802
3.77094 24.3846
3.9495 28.1837
4.12809 32.717
4.30669 56.6944
4.4853 46.3464
4.6639 52.5952
4.84253 64.2146
5.02118 82.6621
5.19981 233.194
5.37848 211.477
5.55716 97.4341
5.73586 87.4421
5.91455 88.9303
6.09328 4566.78
6.27201 76.0629
6.45075 63.1708
6.62952 58.1415
6.8083 54.4737
6.98711 52.5552
7.16591 51.9674
7.34475 55.5334
7.5236 59.1584
7.70247 53.2467
7.88135 54.8086
8.06026 59.1905
8.23919 65.5607
8.41812 77.9629
8.59709 1092.04
8.77609 94.8402
8.9551 82.2106
9.13412 78.9845
9.31318 89.33
9.49226 81.18
9.67134 86.3579
9.85047 93.4508
10.0296 350.282
10.2088 438.822
10.388 97.9924
10.5672 505.63
10.7465 86.446
10.9257 73.4087
11.105 68.1268
11.2844 64.9695
11.4637 62.0147
11.6431 60.6111
11.8225 59.4973
12.002 66.8139
12.1814 146.391
12.3609 64.8344
12.5405 61.4188
12.72 63.8821
12.8996 67.8592
13.0792 76.9236
13.2589 228.905
13.4386 127.666
13.6183 236.871
13.7981 100.42
13.9779 73.5643
14.1577 75.6412
14.3376 67.263
14.5175 66.6756
14.6974 67.5391
14.8774 110.177
15.0574 160.108
15.2374 66.4407
15.4175 64.1325
15.5976 63.3805
15.7778 94.4468
15.958 168.32
16.1382 59.9042
16.3185 55.5753
16.4988 53.5549
16.6792 52.5942
16.8596 52.8499
17.04 53.7102
17.2205 64.826
17.401 71.7999
17.5815 57.2089
17.7622 60.1936
17.9428 73.222
18.1237 141.844
18.3044 88.8542
18.4852 79.0616
18.666 58.8811
18.8469 56.4753
19.0278 55.0113
19.2088 58.1818
19.3898 76.2846
19.5709 52.9949
19.752 51.8069
19.9332 55.167
20.1144 70.6238
20.2957 63.5385
20.477 52.8664
20.6586 48.3737
20.84 47.9515
21.0215 47.2519
21.203 49.5403
21.3846 47.9506
21.5662 47.539
21.7479 51.8505
21.9297 65.3107
22.1115 55.9545
22.2933 49.0174
22.4753 47.5714
22.6572 47.5813
22.8393 51.1186
23.0214 57.4757
23.2037 47.8335
23.3859 49.3819
23.5682 57.1008
23.7505 48.2064
23.9329 44.3337
24.1154 43.1994
24.2979 42.3801
24.4805 41.9994
24.6631 41.9429
24.8458 41.2831
25.0286 42.0975
25.2114 44.1387
25.3943 44.4351
25.5773 40.2425
25.7605 39.4752
25.9436 39.9212
26.1268 41.2909
26.31 39.3842
26.4933 39.9925
26.6767 41.887
26.8601 40.0406
27.0437 38.4315
27.2272 37.7847
27.4109 37.7863
27.5946 37.8896
27.7784 37.3568
27.9623 37.9131
28.1462 38.6132
28.3304 36.7389
28.5145 35.3616
28.6987 34.9477
28.8829 34.8316
29.0673 34.0287
29.2517 33.7489
29.4361 33.6711
29.6207 32.5732
29.8053 32.2246
29.99 31.9439
30.1748 31.9601
30.3597 31.6567
30.5447 31.8177
30.7297 31.8829
30.915 31.1982
31.1002 30.6884
31.2855 30.4083
31.4708 30.3618
31.6563 29.9639
31.8418 29.7589
32.0275 29.7084
32.2132 28.9984
32.399 28.4859
32.5848 28.0403
32.7708 27.6692
32.9569 27.654
33.143 27.398
33.3293 27.0229
33.5158 26.6341
33.7022 26.1883
33.8887 25.9011
34.0753 25.5776
34.262 25.2321
34.4488 24.9776
34.6357 24.5757
34.8227 24.2637
35.0098 24.0797
35.1969 23.8231
35.3842 23.6167
35.5716 23.5206
35.759 23.0965
35.9468 22.7681
36.1345 22.6254
36.3222 22.3663
36.5101 22.1135
36.6981 21.8292
36.8861 21.54
37.0743 21.1601
37.2626 20.9558
37.451 20.6787
37.6395 20.4952
37.8281 20.1725
38.0168 19.8602
38.2056 19.6151
38.3945 19.3986
38.5837 19.1885
38.7728 18.9119
38.9621 18.6467
39.1514 18.4399
39.3409 18.1486
39.5304 17.9986
39.7201 17.8258
39.9099 17.5006
40.0999 17.3852
40.2899 17.1018
40.48 16.8844
40.6703 16.7018
40.8607 16.5152
41.0512 16.2179
41.242 15.9941
41.4327 15.8345
41.6236 15.6001
41.8146 15.4222
42.0057 15.205
42.1969 14.9707
42.3882 14.7694
42.5797 14.5919
42.7713 14.4117
42.963 14.2285
43.1549 14.0796
43.3468 13.7919
43.5389 13.6345
43.7312 13.4723
43.9237 13.2848
44.1162 13.0582
44.3088 12.8761
44.5016 12.7211
44.6945 12.5305
44.8875 12.3654
45.0806 12.1301
45.2739 11.985
45.4673 11.8246
45.6609 11.647
45.8546 11.538
46.0484 11.3702
46.2424 11.2299
46.4365 11.0412
46.631 10.8475
46.8254 10.6964
47.0199 10.544
47.2146 10.4009
47.4095 10.2021
47.6044 10.0923
47.7996 9.9374
47.9948 9.72655
48.1902 9.63773
48.3858 9.50809
48.5815 9.37355
48.7774 9.27746
48.9734 9.10789
49.1696 8.95146
49.3661 8.82329
49.5626 8.65496
49.7592 8.56323
49.956 8.44035
50.153 8.30619
50.3501 8.15675
50.5474 8.04676
50.7448 7.95111
50.9424 7.77722
51.1402 7.72285
51.3381 7.54348
51.5362 7.45439
51.7344 7.30856
51.9328 7.17533
52.1316 7.07751
52.3304 6.9633
52.5293 6.82969
52.7284 6.72822
52.9276 6.61117
53.1271 6.55144
53.3267 6.40173
53.5265 6.27501
53.7264 6.2132
53.9266 6.09968
54.1269 5.94213
54.3274 5.85096
54.528 5.73764
54.7289 5.53819
54.9301 5.40501
55.1314 5.2268
55.3328 5.07474
55.5344 4.89941
55.7361 4.75464

File: Ni3Fe_FD1053.xy
TT I
1.27165 6.68358
1.45013 5.57038
1.62863 4.70372
1.80712 4.7407
1.98562 4.03422
2.16411 4.02681
2.34263 4.89212
2.52115 6.65466
2.69965 8.51776
2.87818 8.51692
3.05672 11.4103
3.23527 15.0088
3.4138 18.3431
3.59237 21.4772
3.77094 24.6366
3.9495 28.2233
4.12809 32.7411
4.30669 56.2325
4.4853 46.6024
4.6639 52.8596
4.84253 64.1449
5.02118 83.1724
5.19981 232.848
5.37848 211.561
5.55716 97.3515
5.73586 87.9837
5.91455 88.5615
6.09328 4566.45
6.27201 75.7107
6.45075 63.6434
6.62952 57.7124
6.8083 54.4265
6.98711 52.288
7.16591 51.4779
7.34475 56.1506
7.5236 59.0648
7.70247 53.1511
7.88135 54.9864
8.06026 58.8368
8.23919 65.7905
8.41812 77.9665
8.59709 1088.52
8.77609 94.8382
8.9551 82.0166
9.13412 79.237
9.31318 89.3152
9.49226 80.9483
9.67134 86.4307
9.85047 94.081
10.0296 350.6
10.2088 440.189
10.388 97.5142
10.5672 505.32
10.7465 86.5994
10.9257 73.4778
11.105 68.3126
11.2844 64.9512
11.4637 62.0345
11.6431 60.5819
11.8225 59.5736
12.002 66.585
12.1814 146.659
12.3609 64.8623
12.5405 61.4797
12.72 64.0083
12.8996 68.1125
13.0792 76.4409
13.2589 228.877
13.4386 127.631
13.6183 237.201
13.7981 100.588
13.9779 73.5994
14.1577 75.6432
14.3376 67.3536
14.5175 66.3508
14.6974 67.3898
14.8774 110.125
15.0574 160.742
15.2374 66.6952
15.4175 64.0082
15.5976 63.5709
15.7778 94.5162
15.958 168.911
16.1382 59.9333
16.3185 55.6913
16.4988 53.506
16.6792 52.6914
16.8596 52.9831
17.04 53.8488
17.2205 64.9517
17.401 71.9275
17.5815 57.4503
17.7622 60.0424
17.9428 73.1598
18.1237 141.849
18.3044 89.0765
18.4852 79.0755
18.666 58.8396
18.8469 56.588
19.0278 55.2026
19.2088 58.2391
19.3898 76.0852
19.5709 52.8678
19.752 51.7662
19.9332 55.1935
20.1144 70.5646
20.2957 63.6866
20.477 52.7924
20.6586 48.4459
20.84 48.0052
21.0215 47.4227
21.203 49.7292
21.3846 48.0039
21.5662 47.5548
21.7479 51.8463
21.9297 65.4566
22.1115 55.9495
22.2933 48.9361
22.4753 47.6676
22.6572 47.7742
22.8393 51.1921
23.0214 57.6449
23.2037 47.78
23.3859 49.2944
23.5682 57.2467
23.7505 48.0638
23.9329 44.321
24.1154 43.1012
24.2979 42.358
24.4805 41.9097
24.6631 42.0548
24.8458 41.2522
25.0286 41.9574
25.2114 44.2818
25.3943 44.3549
25.5773 40.1923
25.7605 39.6636
25.9436 40.146
26.1268 41.2842
26.31 39.4315
26.4933 40.1131
26.6767 41.8066
26.8601 40.1093
27.0437 38.2819
27.2272 37.8731
27.4109 37.8039
27.5946 37.9623
27.7784 37.2732
27.9623 37.9065
28.1462 38.6725
28.3304 36.7635
28.5145 35.3281
28.6987 35.0683
28.8829 34.8373
29.0673 34.2568
29.2517 33.7866
29.4361 33.6702
29.6207 32.6068
29.8053 32.2722
29.99 32.1186
30.1748 31.8753
30.3597 31.8176
30.5447 31.7394
30.7297 31.7724
30.915 31.2199
31.1002 30.6494
31.2855 30.4015
31.4708 30.4368
31.6563 29.9915
31.8418 29.8063
32.0275 29.5811
32.2132 28.9521
32.399 28.5359
32.5848 28.0963
32.7708 27.6445
32.9569 27.5788
33.143 27.3912
33.3293 26.9698
33.5158 26.7063
33.7022 26.2057
33.8887 25.927
34.0753 25.656
34.262 25.2386
34.4488 24.9564
34.6357 24.5943
34.8227 24.2824
35.0098 24.134
35.1969 23.8171
35.3842 23.6682
35.5716 23.4454
35.759 23.1284
35.9468 22.7957
36.1345 22.5555
36.3222 22.3006
36.5101 22.0952
36.6981 21.8577
36.8861 21.5425
37.0743 21.1991
37.2626 20.9415
37.451 20.6945
37.6395 20.5016
37.8281 20.2248
38.0168 19.9055
38.2056 19.6575
38.3945 19.4835
38.5837 19.1953
38.7728 18.9334
38.9621 18.7044
39.1514 18.3791
39.3409 18.2185
39.5304 17.9913
39.7201 17.8252
39.9099 17.5999
40.0999 17.2892
40.2899 17.1108
40.48 16.8787
40.6703 16.7232
40.8607 16.4976
41.0512 16.2271
41.242 16.0115
41.4327 15.8561
41.6236 15.6392
41.8146 15.4196
42.0057 15.2096
42.1969 14.9551
42.3882 14.8791
42.5797 14.6169
42.7713 14.3965
42.963 14.1881
43.1549 14.0498
43.3468 13.8277
43.5389 13.6135
43.7312 13.4162
43.9237 13.2824
44.1162 13.0972
44.3088 12.9193
44.5016 12.6924
44.6945 12.5707
44.8875 12.3877
45.0806 12.2041
45.2739 12.0497
45.4673 11.8582
45.6609 11.668
45.8546 11.5333
46.0484 11.3741
46.2424 11.1927
46.4365 11.0389
46.631 10.8846
46.8254 10.6791
47.0199 10.5468
47.2146 10.3936
47.4095 10.2394
47.6044 10.1198
47.7996 9.91367
47.9948 9.74288
48.1902 9.64774
48.3858 9.52595
48.5815 9.3619
48.7774 9.24917
48.9734 9.10064
49.1696 8.95792
49.3661 8.80712
49.5626 8.67129
49.7592 8.55983
49.956 8.47908
50.153 8.2951
50.3501 8.17401
50.5474 8.05698
50.7448 7.93218
50.9424 7.7665
51.1402 7.70968
51.3381 7.5442
51.5362 7.43523
51.7344 7.3136
51.9328 7.20087
52.1316 7.08114
52.3304 6.94566
52.5293 6.85007
52.7284 6.73261
52.9276 6.61522
53.1271 6.53151
53.3267 6.40081
53.5265 6.30842
53.7264 6.224
53.9266 6.06953
54.1269 5.99593
54.3274 5.86734
54.528 5.72477
54.7289 5.61352
54.9301 5.42334
55.1314 5.25054
55.3328 5.07958
55.5344 4.86974
55.7361 4.75028

File: Ni3Fe_FD1054.xy
TT I
1.27165 6.8927
1.45013 5.56722
1.62863 4.89362
1.80712 4.923
1.98562 4.41231
2.16411 4.7796
2.34263 4.61921
2.52115 6.45535
2.69965 8.74497
2.87818 8.59934
3.05672 10.785
3.23527 14.7183
3.4138 18.0645
3.59237 21.2622
3.77094 24.6195
3.9495 28.297
4.12809 32.42
4.30669 57.2098
4.4853 46.3172
4.6639 52.5224
4.84253 63.8527
5.02118 82.5201
5.19981 233.124
5.37848 211.672
5.55716 97.3673
5.73586 87.6041
5.91455 88.6024
6.09328 4550.39
6.27201 75.5292
6.45075 63.779
6.62952 58.1317
6.8083 54.4303
6.98711 52.1664
7.16591 51.3359
7.34475 55.4239
7.5236 58.6998
7.70247 53.301
7.88135 54.8119
8.06026 58.9441
8.23919 65.697
8.41812 77.7379
8.59709 1087.28
8.77609 94.6799
8.9551 82.387
9.13412 78.765
9.31318 88.9706
9.49226 81.1826
9.67134 86.8339
9.85047 94.0217
10.0296 350.171
10.2088 438.6
10.388 97.7494
10.5672 508.264
10.7465 86.0142
10.9257 73.4769
11.105 68.4704
11.2844 64.8542
11.4637 61.7684
11.6431 60.8075
11.8225 59.723
12.002 66.5572
12.1814 146.074
12.3609 64.6699
12.5405 61.553
12.72 64.1619
12.8996 67.8367
13.0792 76.3868
13.2589 228.715
13.4386 127.555
13.6183 237.031
13.7981 100.338
13.9779 73.6355
14.1577 75.0035
14.3376 67.338
14.5175 66.5759
14.6974 67.2963
14.8774 110.159
15.0574 160.83
15.2374 66.5019
15.4175 64.0595
15.5976 63.4828
15.7778 94.7207
15.958 168.363
16.1382 59.9386
16.3185 55.4778
16.4988 53.3409
16.6792 52.2488
16.8596 52.9863
17.04 53.9437
17.2205 64.853
17.401 72.0105
17.5815 57.3036
17.7622 59.9994
17.9428 73.3419
18.1237 142.114
18.3044 88.9798
18.4852 79.2176
18.666 58.9573
18.8469 56.3446
19.0278 55.1165
19.2088 58.1556
19.3898 76.0904
19.5709 53.2253
19.752 51.6679
19.9332 55.058
20.1144 70.6348
20.2957 63.5621
20.477 52.8432
20.6586 48.2285
20.84 47.7324
21.0215 47.4744
21.203 49.5258
21.3846 47.8293
21.5662 47.4986
21.7479 51.7747
21.9297 65.4077
22.1115 55.9898
22.2933 49.0954
22.4753 47.3607
22.6572 47.6562
22.8393 51.2242
23.0214 57.4228
23.2037 47.9037
23.3859 49.3239
23.5682 57.223
23.7505 48.2682
23.9329 44.4349
24.1154 43.049
24.2979 42.4587
24.4805 41.9212
24.6631 42.1028
24.8458 41.1995
25.0286 41.9973
25.2114 44.2492
25.3943 44.3972
25.5773 40.2317
25.7605 39.6452
25.9436 40.1014
26.1268 41.2615
26.31 39.3129
26.4933 39.945
26.6767 41.9412
26.8601 40.0698
27.0437 38.2176
27.2272 37.9912
27.4109 37.8607
27.5946 37.8158
27.7784 37.2097
27.9623 37.9974
28.1462 38.6841
28.3304 36.7864
28.5145 35.3822
28.6987 35.0524
28.8829 34.9073
29.0673 34.0703
29.2517 33.7634
29.4361 33.6692
29.6207 32.5514
29.8053 32.2623
29.99 31.9339
30.1748 31.9333
30.3597 31.7049
30.5447 31.6851
30.7297 31.7646
30.915 31.2456
31.1002 30.7564
31.2855 30.4693
31.4708 30.369
31.6563 30.0159
31.8418 29.7376
32.0275 29.5107
32.2132 28.929
32.399 28.4525
32.5848 28.0487
32.7708 27.7457
32.9569 27.5784
33.143 27.4183
33.3293 26.9488
33.5158 26.6416
33.7022 26.1894
33.8887 25.9636
34.0753 25.6086
34.262 25.2549
34.4488 24.9341
34.6357 24.5878
34.8227 24.4181
35.0098 24.1308
35.1969 23.8255
35.3842 23.7005
35.5716 23.3989
35.759 23.166
35.9468 22.7319
36.1345 22.5058
36.3222 22.3717
36.5101 22.0722
36.6981 21.8239
36.8861 21.5199
37.0743 21.2012
37.2626 20.9525
37.451 20.6561
37.6395 20.4796
37.8281 20.1857
38.0168 19.9501
38.2056 19.6882
38.3945 19.4101
38.5837 19.1489
38.7728 18.9725
38.9621 18.6441
39.1514 18.3868
39.3409 18.1785
39.5304 17.9265
39.7201 17.7812
39.9099 17.5699
40.0999 17.3195
40.2899 17.0622
40.48 16.8314
40.6703 16.7307
40.8607 16.4646
41.0512 16.239
41.242 15.9622
41.4327 15.847
41.6236 15.618
41.8146 15.4069
42.0057 15.14
42.1969 15.015
42.3882 14.8191
42.5797 14.6099
42.7713 14.46
42.963 14.2127
43.1549 13.9672
43.3468 13.7927
43.5389 13.6245
43.7312 13.4546
43.9237 13.2742
44.1162 13.0494
44.3088 12.8863
44.5016 12.6871
44.6945 12.5193
44.8875 12.4067
45.0806 12.1898
45.2739 12.0032
45.4673 11.8736
45.6609 11.6538
45.8546 11.5054
46.0484 11.3286
46.2424 11.1579
46.4365 11.0223
46.631 10.8395
46.8254 10.6986
47.0199 10.5412
47.2146 10.4046
47.4095 10.2408
47.6044 10.0607
47.7996 9.93659
47.9948 9.77056
48.1902 9.65729
48.3858 9.51957
48.5815 9.39412
48.7774 9.20958
48.9734 9.10468
49.1696 8.96604
49.3661 8.78584
49.5626 8.67927
49.7592 8.55152
49.956 8.44193
50.153 8.29963
50.3501 8.20557
50.5474 8.06461
50.7448 7.94588
50.9424 7.82527
51.1402 7.66892
51.3381 7.5464
51.5362 7.4487
51.7344 7.34485
51.9328 7.18511
52.1316 7.01139
52.3304 6.95688
52.5293 6.85977
52.7284 6.7572
52.9276 6.62214
53.1271 6.54875
53.3267 6.37465
53.5265 6.30434
53.7264 6.16171
53.9266 6.08757
54.1269 5.92509
54.3274 5.82855
54.528 5.75398
54.7289 5.57123
54.9301 5.36361
55.1314 5.34657
55.3328 5.07716
55.5344 4.9395
55.7361 4.75056

File: Ni3Fe_FD1055.xy
TT I
1.27165 6.8996
1.45013 5.08987
1.62863 4.45915
1.80712 4.12986
1.98562 4.72376
2.16411 4.37469
2.34263 5.04067
2.52115 7.84156
2.69965 8.22061
2.87818 8.0121
3.05672 10.6839
3.23527 14.4287
3.4138 18.0257
3.59237 21.4922
3.77094 24.5839
3.9495 27.9305
4.12809 32.2752
4.30669 56.4361
4.4853 46.3285
4.6639 52.7752
4.84253 64.1069
5.02118 82.9737
5.19981 232.111
5.37848 211.935
5.55716 97.1577
5.73586 88.4986
5.91455 88.4778
6.09328 4545.24
6.27201 75.7229
6.45075 63.7195
6.62952 57.8424
6.8083 54.6824
6.98711 52.6004
7.16591 51.9327
7.34475 56.1193
7.5236 58.5803
7.70247 53.2397
7.88135 55.0825
8.06026 59.1136
8.23919 65.6114
8.41812 77.8536
8.59709 1090.97
8.77609 94.909
8.9551 82.7032
9.13412 78.8242
9.31318 89.1221
9.49226 81.0423
9.67134 86.4518
9.85047 94.3708
10.0296 350.663
10.2088 439.675
10.388 98.1987
10.5672 507.524
10.7465 85.9182
10.9257 73.5962
11.105 68.4176
11.2844 64.8763
11.4637 62.0946
11.6431 60.7569
11.8225 59.7894
12.002 66.7921
12.1814 146.57
12.3609 64.5886
12.5405 61.5716
12.72 64.089
12.8996 67.8996
13.0792 76.7493
13.2589 229.111
13.4386 127.57
13.6183 237.501
13.7981 100.788
13.9779 73.2718
14.1577 75.1727
14.3376 67.2901
14.5175 66.5066
14.6974 67.4186
14.8774 110.23
15.0574 160.881
15.2374 66.5484
15.4175 64.0989
15.5976 63.5432
15.7778 94.6161
15.958 169.08
16.1382 59.9157
16.3185 55.7086
16.4988 53.5248
16.6792 52.7873
16.8596 52.9108
17.04 53.8264
17.2205 64.7325
17.401 72.3217
17.5815 57.4659
17.7622 60.1302
17.9428 73.3258
18.1237 142.164
18.3044 88.9352
18.4852 78.9524
18.666 58.9926
18.8469 56.4732
19.0278 55.263
19.2088 58.1174
19.3898 76.1543
19.5709 53.1237
19.752 51.7894
19.9332 55.1902
20.1144 70.5693
20.2957 63.536
20.477 52.9166
20.6586 48.3589
20.84 47.8654
21.0215 47.4478
21.203 49.6308
21.3846 47.977
21.5662 47.5769
21.7479 51.7518
21.9297 65.3951
22.1115 55.8853
22.2933 49.0031
22.4753 47.4701
22.6572 47.7413
22.8393 51.1783
23.0214 57.3694
23.2037 47.8219
23.3859 49.2233
23.5682 57.1151
23.7505 48.0933
23.9329 44.2854
24.1154 43.1529
24.2979 42.3448
24.4805 41.9568
24.6631 42.0745
24.8458 41.3444
25.0286 42.025
25.2114 44.286
25.3943 44.325
25.5773 40.2584
25.7605 39.5755
25.9436 40.1089
26.1268 41.2425
26.31 39.4385
26.4933 40.0099
26.6767 41.8545
26.8601 40.1067
27.0437 38.2829
27.2272 37.8943
27.4109 37.756
27.5946 37.9324
27.7784 37.1911
27.9623 37.9752
28.1462 38.6863
28.3304 36.8197
28.5145 35.4158
28.6987 35.0428
28.8829 34.9282
29.0673 34.1109
29.2517 33.7219
29.4361 33.689
29.6207 32.57
29.8053 32.299
29.99 32.1339
30.1748 31.8374
30.3597 31.7207
30.5447 31.7358
30.7297 31.8954
30.915 31.1909
31.1002 30.7044
31.2855 30.4204
31.4708 30.4476
31.6563 29.998
31.8418 29.8443
32.0275 29.5379
32.2132 29.0154
32.399 28.5863
32.5848 28.0742
32.7708 27.6688
32.9569 27.6333
33.143 27.4267
33.3293 27.0626
33.5158 26.6208
33.7022 26.1714
33.8887 25.9764
34.0753 25.6733
34.262 25.3011
34.4488 24.948
34.6357 24.5284
34.8227 24.3902
35.0098 24.1693
35.1969 23.8774
35.3842 23.6592
35.5716 23.4782
35.759 23.1235
35.9468 22.8068
36.1345 22.6056
36.3222 22.3144
36.5101 22.1474
36.6981 21.7787
36.8861 21.5127
37.0743 21.1836
37.2626 20.9515
37.451 20.6849
37.6395 20.5517
37.8281 20.1734
38.0168 19.9302
38.2056 19.6613
38.3945 19.4404
38.5837 19.1707
38.7728 18.9393
38.9621 18.6175
39.1514 18.4299
39.3409 18.2613
39.5304 18.0261
39.7201 17.8438
39.9099 17.6508
40.0999 17.3129
40.2899 17.1028
40.48 16.9272
40.6703 16.748
40.8607 16.4645
41.0512 16.2919
41.242 16.0803
41.4327 15.8952
41.6236 15.6275
41.8146 15.4211
42.0057 15.2377
42.1969 14.9916
42.3882 14.8504
42.5797 14.6226
42.7713 14.4235
42.963 14.2432
43.1549 14.0118
43.3468 13.7968
43.5389 13.6452
43.7312 13.4551
43.9237 13.2497
44.1162 13.0615
44.3088 12.9136
44.5016 12.7304
44.6945 12.5545
44.8875 12.4061
45.0806 12.2123
45.2739 12.0482
45.4673 11.8726
45.6609 11.6922
45.8546 11.5213
46.0484 11.3485
46.2424 11.1799
46.4365 11.0363
46.631 10.8197
46.8254 10.7164
47.0199 10.5239
47.2146 10.3704
47.4095 10.2101
47.6044 10.089
47.7996 9.93605
47.9948 9.81233
48.1902 9.64033
48.3858 9.52511
48.5815 9.40934
48.7774 9.23074
48.9734 9.11189
49.1696 9.00028
49.3661 8.84315
49.5626 8.64716
49.7592 8.55088
49.956 8.45281
50.153 8.31184
50.3501 8.1596
50.5474 8.03139
50.7448 7.94011
50.9424 7.78562
51.1402 7.69831
51.3381 7.54813
51.5362 7.41941
51.7344 7.32097
51.9328 7.19725
52.1316 7.05084
52.3304 6.98657
52.5293 6.83487
52.7284 6.75596
52.9276 6.64653
53.1271 6.55761
53.3267 6.43417
53.5265 6.28276
53.7264 6.16454
53.9266 6.07756
54.1269 5.98389
54.3274 5.80911
54.528 5.70849
54.7289 5.59641
54.9301 5.40363
55.1314 5.27327
55.3328 5.05194
55.5344 4.94688
55.7361 4.75004

File: Ni3Fe_FD1056.xy
TT I
1.27165 7.0956
1.45013 5.96189
1.62863 5.34669
1.80712 4.24959
1.98562 4.23325
2.16411 4.26981
2.34263 5.5725
2.52115 6.69329
2.69965 9.30979
2.87818 9.09908
3.05672 10.8179
3.23527 14.7072
3.4138 18.2205
3.59237 20.8065
3.77094 24.6139
3.9495 28.317
4.12809 32.3093
4.30669 55.8533
4.4853 46.6109
4.6639 53.0217
4.84253 64.0518
5.02118 82.9861
5.19981 232.47
5.37848 211.554
5.55716 97.4461
5.73586 87.9045
5.91455 89.1469
6.09328 4550.53
6.27201 76.1388
6.45075 63.6089
6.62952 58.0288
6.8083 54.5717
6.98711 52.5806
7.16591 51.3462
7.34475 55.9733
7.5236 59.0496
7.70247 53.2592
7.88135 54.9669
8.06026 58.904
8.23919 65.7672
8.41812 77.7677
8.59709 1093.17
8.77609 94.7389
8.9551 82.553
9.13412 79.1145
9.31318 89.1852
9.49226 80.9432
9.67134 86.4953
9.85047 94.1525
10.0296 351.18
10.2088 438.664
10.388 98.2453
10.5672 507.439
10.7465 86.3492
10.9257 73.4603
11.105 67.9563
11.2844 64.9755
11.4637 61.8608
11.6431 60.5066
11.8225 59.7395
12.002 66.5685
12.1814 146.213
12.3609 64.6647
12.5405 61.3589
12.72 63.9443
12.8996 67.9845
13.0792 76.8396
13.2589 229.59
13.4386 127.35
13.6183 237.493
13.7981 100.271
13.9779 73.5689
14.1577 75.5321
14.3376 67.3872
14.5175 66.5244
14.6974 67.6731
14.8774 110.57
15.0574 160.566
15.2374 66.7545
15.4175 63.9477
15.5976 63.5907
15.7778 94.7036
15.958 168.581
16.1382 59.8317
16.3185 55.6481
16.4988 53.3987
16.6792 52.633
16.8596 53.0051
17.04 54.0717
17.2205 65.0171
17.401 72.1423
17.5815 57.3818
17.7622 60.0067
17.9428 73.5459
18.1237 142.087
18.3044 88.9977
18.4852 79.117
18.666 58.9509
18.8469 56.5138
19.0278 55.0684
19.2088 58.0431
19.3898 76.1253
19.5709 52.9922
19.752 51.8907
19.9332 55.168
20.1144 70.4341
20.2957 63.3646
20.477 52.7748
20.6586 48.3534
20.84 48.0242
21.0215 47.4016
21.203 49.6779
21.3846 48.0111
21.5662 47.5219
21.7479 51.683
21.9297 65.2707
22.1115 55.9032
22.2933 49.2205
22.4753 47.5524
22.6572 47.752
22.8393 51.1566
23.0214 57.5344
23.2037 47.9403
23.3859 49.3489
23.5682 57.1149
23.7505 48.2577
23.9329 44.3565
24.1154 43.1589
24.2979 42.5461
24.4805 42.0913
24.6631 42.1834
24.8458 41.2801
25.0286 42.0211
25.2114 44.3441
25.3943 44.4228
25.5773 40.2419
25.7605 39.6714
25.9436 40.0153
26.1268 41.2492
26.31 39.357
26.4933 40.1201
26.6767 41.9111
26.8601 40.0265
27.0437 38.301
27.2272 37.859
27.4109 37.9212
27.5946 37.9427
27.7784 37.288
27.9623 38.0515
28.1462 38.6376
28.3304 36.887
28.5145 35.4679
28.6987 35.0029
28.8829 34.8311
29.0673 34.2049
29.2517 33.777
29.4361 33.765
29.6207 32.5903
29.8053 32.4031
29.99 32.1062
30.1748 31.9587
30.3597 31.6999
30.5447 31.6819
30.7297 31.9183
30.915 31.3508
31.1002 30.7041
31.2855 30.4522
31.4708 30.4234
31.6563 30.0047
31.8418 29.721
32.0275 29.5757
32.2132 29.0718
32.399 28.5688
32.5848 27.9737
32.7708 27.7704
32.9569 27.5728
33.143 27.4369
33.3293 27.0436
33.5158 26.693
33.7022 26.228
33.8887 25.9975
34.0753 25.6127
34.262 25.2434
34.4488 24.9622
34.6357 24.6652
34.8227 24.3565
35.0098 24.1755
35.1969 23.8964
35.3842 23.6483
35.5716 23.4561
35.759 23.1472
35.9468 22.7707
36.1345 22.61
36.3222 22.3274
36.5101 22.1249
36.6981 21.8675
36.8861 21.4695
37.0743 21.2038
37.2626 20.9213
37.451 20.6551
37.6395 20.5296
37.8281 20.1798
38.0168 19.9384
38.2056 19.6655
38.3945 19.4138
38.5837 19.1808
38.7728 18.9078
38.9621 18.6641
39.1514 18.4694
39.3409 18.173
39.5304 17.9585
39.7201 17.7955
39.9099 17.6171
40.0999 17.3174
40.2899 17.1588
40.48 16.8792
40.6703 16.6901
40.8607 16.4891
41.0512 16.2758
41.242 15.9857
41.4327 15.808
41.6236 15.5645
41.8146 15.4721
42.0057 15.2156
42.1969 14.9563
42.3882 14.8203
42.5797 14.5895
42.7713 14.4026
42.963 14.2377
43.1549 14.007
43.3468 13.8141
43.5389 13.6105
43.7312 13.4578
43.9237 13.2736
44.1162 13.0366
44.3088 12.9304
44.5016 12.7164
44.6945 12.5858
44.8875 12.3845
45.0806 12.2331
45.2739 11.9853
45.4673 11.8674
45.6609 11.7203
45.8546 11.5156
46.0484 11.3547
46.2424 11.1968
46.4365 11.0525
46.631 10.9232
46.8254 10.7227
47.0199 10.5536
47.2146 10.4276
47.4095 10.2204
47.6044 10.0964
47.7996 9.93847
47.9948 9.77009
48.1902 9.68173
48.3858 9.54216
48.5815 9.39104
48.7774 9.24527
48.9734 9.14888
49.1696 8.98898
49.3661 8.82621
49.5626 8.68073
49.7592 8.56863
49.956 8.42337
50.153 8.33329
50.3501 8.18422
50.5474 8.01391
50.7448 7.93273
50.9424 7.78811
51.1402 7.6663
51.3381 7.57619
51.5362 7.45037
51.7344 7.33868
51.9328 7.18803
52.1316 7.07663
52.3304 6.96152
52.5293 6.86751
52.7284 6.75633
52.9276 6.59729
53.1271 6.52082
53.3267 6.40225
53.5265 6.30405
53.7264 6.1483
53.9266 6.08572
54.1269 5.9703
54.3274 5.85579
54.528 5.74268
54.7289 5.56055
54.9301 5.42702
55.1314 5.29306
55.3328 5.10289
55.5344 4.91633
55.7361 4.74503