Folder: NiFe_MOF_catalyst_paper/XRD (part 144)

File: Ni3Fe_FD0783.xy
TT I
1.27165 7.79041
1.45013 5.90816
1.62863 4.91935
1.80712 4.7318
1.98562 5.0175
2.16411 4.98761
2.34263 5.7146
2.52115 7.7074
2.69965 8.38117
2.87818 9.12167
3.05672 11.4277
3.23527 15.3196
3.4138 18.9417
3.59237 23.645
3.77094 26.2534
3.9495 29.775
4.12809 34.305
4.30669 172.457
4.4853 60.3569
4.6639 54.8672
4.84253 66.6667
5.02118 86.3847
5.19981 339.979
5.37848 176.325
5.55716 101.078
5.73586 91.3973
5.91455 92.8468
6.09328 4537.17
6.27201 80.9371
6.45075 66.5216
6.62952 61.9107
6.8083 57.883
6.98711 55.2006
7.16591 54.8999
7.34475 81.8067
7.5236 53.9276
7.70247 55.6297
7.88135 57.3262
8.06026 61.5699
8.23919 68.3425
8.41812 83.7443
8.59709 1209.23
8.77609 97.0044
8.9551 89.0018
9.13412 81.0211
9.31318 81.8829
9.49226 83.8311
9.67134 95.575
9.85047 98.5609
10.0296 336.332
10.2088 343.929
10.388 103.56
10.5672 534.614
10.7465 85.1916
10.9257 77.2849
11.105 70.7879
11.2844 68.7557
11.4637 63.967
11.6431 63.0716
11.8225 61.5645
12.002 63.2332
12.1814 158.474
12.3609 68.1644
12.5405 63.5677
12.72 68.5704
12.8996 70.1733
13.0792 78.2697
13.2589 241.676
13.4386 116.867
13.6183 253.687
13.7981 92.6831
13.9779 74.8437
14.1577 71.4384
14.3376 70.2019
14.5175 67.9734
14.6974 69.7305
14.8774 109.935
15.0574 145.238
15.2374 69.6586
15.4175 65.6433
15.5976 65.1754
15.7778 93.7023
15.958 148.785
16.1382 61.3047
16.3185 57.6861
16.4988 54.82
16.6792 53.7483
16.8596 54.4803
17.04 55.1766
17.2205 66.2983
17.401 68.5738
17.5815 58.4595
17.7622 60.6688
17.9428 72.7647
18.1237 141.545
18.3044 90.4803
18.4852 74.1725
18.666 59.5668
18.8469 57.3989
19.0278 56.2387
19.2088 58.884
19.3898 76.0542
19.5709 53.5079
19.752 52.7379
19.9332 55.558
20.1144 69.3094
20.2957 63.7275
20.477 52.4456
20.6586 49.1516
20.84 48.2383
21.0215 48.1072
21.203 50.4154
21.3846 48.1307
21.5662 48.3261
21.7479 52.1121
21.9297 64.0395
22.1115 55.6063
22.2933 49.1226
22.4753 48.2785
22.6572 48.3664
22.8393 51.4591
23.0214 56.6896
23.2037 48.17
23.3859 49.1365
23.5682 56.9268
23.7505 47.3141
23.9329 44.7375
24.1154 43.5917
24.2979 42.9692
24.4805 42.4409
24.6631 42.2811
24.8458 41.7161
25.0286 42.379
25.2114 44.2455
25.3943 44.1829
25.5773 40.392
25.7605 40.0721
25.9436 40.3255
26.1268 41.372
26.31 39.5805
26.4933 40.2771
26.6767 41.8438
26.8601 39.8424
27.0437 38.3819
27.2272 38.1554
27.4109 38.0076
27.5946 37.9031
27.7784 37.5062
27.9623 38.0499
28.1462 38.4056
28.3304 36.619
28.5145 35.4722
28.6987 35.3666
28.8829 35.0816
29.0673 34.2513
29.2517 33.9474
29.4361 33.7482
29.6207 32.6962
29.8053 32.5479
29.99 32.1175
30.1748 32.0954
30.3597 31.8685
30.5447 31.7597
30.7297 31.9452
30.915 31.327
31.1002 30.7709
31.2855 30.4885
31.4708 30.5219
31.6563 30.0494
31.8418 29.8139
32.0275 29.5541
32.2132 29.0093
32.399 28.6882
32.5848 28.146
32.7708 27.7275
32.9569 27.7753
33.143 27.4423
33.3293 27.007
33.5158 26.782
33.7022 26.2842
33.8887 26.0115
34.0753 25.6923
34.262 25.3425
34.4488 25.0492
34.6357 24.6903
34.8227 24.3334
35.0098 24.2259
35.1969 23.9352
35.3842 23.7685
35.5716 23.501
35.759 23.1646
35.9468 22.8565
36.1345 22.6037
36.3222 22.4656
36.5101 22.1623
36.6981 21.8434
36.8861 21.5664
37.0743 21.246
37.2626 21.0149
37.451 20.7812
37.6395 20.6168
37.8281 20.3098
38.0168 19.9658
38.2056 19.7178
38.3945 19.4718
38.5837 19.2215
38.7728 19.0125
38.9621 18.7921
39.1514 18.513
39.3409 18.303
39.5304 18.0309
39.7201 17.8879
39.9099 17.6498
40.0999 17.3738
40.2899 17.1351
40.48 16.9358
40.6703 16.7292
40.8607 16.5569
41.0512 16.441
41.242 16.0419
41.4327 15.9201
41.6236 15.6869
41.8146 15.4891
42.0057 15.3148
42.1969 15.0594
42.3882 14.8465
42.5797 14.6849
42.7713 14.5117
42.963 14.2735
43.1549 14.0628
43.3468 13.8856
43.5389 13.6777
43.7312 13.4837
43.9237 13.2896
44.1162 13.1153
44.3088 12.9753
44.5016 12.7532
44.6945 12.6016
44.8875 12.4274
45.0806 12.2688
45.2739 12.0971
45.4673 11.905
45.6609 11.6753
45.8546 11.5635
46.0484 11.4014
46.2424 11.2389
46.4365 11.0715
46.631 10.9017
46.8254 10.7388
47.0199 10.5964
47.2146 10.4727
47.4095 10.2975
47.6044 10.1339
47.7996 9.97704
47.9948 9.83148
48.1902 9.67016
48.3858 9.57053
48.5815 9.42788
48.7774 9.3087
48.9734 9.16487
49.1696 9.02581
49.3661 8.8764
49.5626 8.71862
49.7592 8.57771
49.956 8.46117
50.153 8.33186
50.3501 8.23889
50.5474 8.08761
50.7448 7.99144
50.9424 7.84155
51.1402 7.72106
51.3381 7.61468
51.5362 7.47581
51.7344 7.35753
51.9328 7.23674
52.1316 7.08646
52.3304 6.98271
52.5293 6.85503
52.7284 6.7606
52.9276 6.65329
53.1271 6.56167
53.3267 6.41695
53.5265 6.33132
53.7264 6.18672
53.9266 6.10057
54.1269 5.99382
54.3274 5.86338
54.528 5.75641
54.7289 5.57231
54.9301 5.38513
55.1314 5.36888
55.3328 5.10198
55.5344 4.86529
55.7361 4.73341

File: Ni3Fe_FD0784.xy
TT I
1.27165 7.1344
1.45013 5.55775
1.62863 4.97495
1.80712 4.93947
1.98562 4.56196
2.16411 4.90117
2.34263 5.59628
2.52115 7.17164
2.69965 8.52998
2.87818 8.98003
3.05672 11.1192
3.23527 14.8626
3.4138 18.4425
3.59237 23.6103
3.77094 25.6672
3.9495 29.5155
4.12809 34.2727
4.30669 168.408
4.4853 60.1881
4.6639 54.7673
4.84253 67.0443
5.02118 85.7732
5.19981 343.618
5.37848 175.704
5.55716 100.83
5.73586 91.6354
5.91455 93.3485
6.09328 4518.75
6.27201 80.8859
6.45075 66.7339
6.62952 61.7791
6.8083 57.7185
6.98711 55.2784
7.16591 54.591
7.34475 80.743
7.5236 53.9128
7.70247 55.3705
7.88135 57.6537
8.06026 61.6486
8.23919 68.7178
8.41812 83.6592
8.59709 1206.57
8.77609 96.8545
8.9551 89.3034
9.13412 80.9166
9.31318 82.1238
9.49226 83.6983
9.67134 95.3639
9.85047 98.6382
10.0296 338.616
10.2088 341.495
10.388 102.967
10.5672 534.086
10.7465 84.9636
10.9257 76.9382
11.105 71.0935
11.2844 68.8793
11.4637 64.3807
11.6431 62.6502
11.8225 61.8674
12.002 62.8703
12.1814 156.507
12.3609 67.9677
12.5405 63.7734
12.72 68.3903
12.8996 70.2025
13.0792 78.5115
13.2589 243.503
13.4386 116.746
13.6183 254.636
13.7981 92.5787
13.9779 74.7627
14.1577 71.4117
14.3376 70.1866
14.5175 68.2105
14.6974 69.6513
14.8774 110.197
15.0574 143.351
15.2374 69.3549
15.4175 65.6299
15.5976 64.9551
15.7778 93.9122
15.958 149.199
16.1382 61.4846
16.3185 57.5731
16.4988 54.8459
16.6792 53.7433
16.8596 54.4229
17.04 55.0228
17.2205 66.4918
17.401 68.8454
17.5815 58.3663
17.7622 60.5937
17.9428 72.8874
18.1237 141.567
18.3044 90.4584
18.4852 74.1782
18.666 59.6978
18.8469 57.4124
19.0278 56.1775
19.2088 58.7342
19.3898 76.0231
19.5709 53.4846
19.752 52.5172
19.9332 55.6878
20.1144 69.8646
20.2957 63.8597
20.477 52.3619
20.6586 49.1703
20.84 48.1424
21.0215 47.9721
21.203 50.489
21.3846 48.4041
21.5662 48.4122
21.7479 52.0899
21.9297 64.1005
22.1115 55.7368
22.2933 49.1489
22.4753 48.2378
22.6572 48.5151
22.8393 51.6597
23.0214 56.6262
23.2037 48.0972
23.3859 49.301
23.5682 56.988
23.7505 47.3645
23.9329 44.5969
24.1154 43.5018
24.2979 42.9557
24.4805 42.5175
24.6631 42.3125
24.8458 41.8185
25.0286 42.5291
25.2114 44.1696
25.3943 44.1527
25.5773 40.4758
25.7605 40.0256
25.9436 40.3957
26.1268 41.3077
26.31 39.6103
26.4933 40.407
26.6767 41.7054
26.8601 40.0078
27.0437 38.4314
27.2272 38.0673
27.4109 38.0252
27.5946 37.8932
27.7784 37.4485
27.9623 38.0407
28.1462 38.3723
28.3304 36.7079
28.5145 35.6
28.6987 35.189
28.8829 35.1571
29.0673 34.2358
29.2517 33.9787
29.4361 33.821
29.6207 32.7281
29.8053 32.5136
29.99 32.2208
30.1748 32.1459
30.3597 31.9353
30.5447 31.8889
30.7297 31.8916
30.915 31.1765
31.1002 30.7606
31.2855 30.5894
31.4708 30.5501
31.6563 30.0207
31.8418 29.8828
32.0275 29.5823
32.2132 29.0719
32.399 28.6647
32.5848 28.2579
32.7708 27.8081
32.9569 27.6116
33.143 27.4963
33.3293 27.0992
33.5158 26.7647
33.7022 26.2614
33.8887 26.1004
34.0753 25.7446
34.262 25.3828
34.4488 25.0177
34.6357 24.6929
34.8227 24.5112
35.0098 24.2176
35.1969 23.9692
35.3842 23.7395
35.5716 23.5983
35.759 23.2163
35.9468 22.8445
36.1345 22.6591
36.3222 22.405
36.5101 22.1865
36.6981 21.8664
36.8861 21.5778
37.0743 21.2496
37.2626 20.9819
37.451 20.7381
37.6395 20.5612
37.8281 20.338
38.0168 20.0073
38.2056 19.6915
38.3945 19.4788
38.5837 19.2324
38.7728 18.9894
38.9621 18.7401
39.1514 18.4485
39.3409 18.335
39.5304 17.9979
39.7201 17.8623
39.9099 17.6283
40.0999 17.3934
40.2899 17.1272
40.48 16.9224
40.6703 16.7331
40.8607 16.56
41.0512 16.3462
41.242 16.0415
41.4327 15.8595
41.6236 15.6335
41.8146 15.4817
42.0057 15.249
42.1969 15.0368
42.3882 14.8576
42.5797 14.6417
42.7713 14.5069
42.963 14.2333
43.1549 14.0913
43.3468 13.8228
43.5389 13.6957
43.7312 13.4996
43.9237 13.3083
44.1162 13.1281
44.3088 12.9662
44.5016 12.7869
44.6945 12.5984
44.8875 12.4086
45.0806 12.2698
45.2739 12.1087
45.4673 11.9419
45.6609 11.7393
45.8546 11.5935
46.0484 11.4621
46.2424 11.2522
46.4365 11.0849
46.631 10.8692
46.8254 10.7536
47.0199 10.6031
47.2146 10.4658
47.4095 10.3015
47.6044 10.136
47.7996 9.98145
47.9948 9.83425
48.1902 9.66071
48.3858 9.5579
48.5815 9.44146
48.7774 9.27582
48.9734 9.13636
49.1696 9.00606
49.3661 8.8706
49.5626 8.70309
49.7592 8.61504
49.956 8.48158
50.153 8.32382
50.3501 8.20999
50.5474 8.07138
50.7448 7.93539
50.9424 7.82714
51.1402 7.7232
51.3381 7.57292
51.5362 7.48837
51.7344 7.31302
51.9328 7.23336
52.1316 7.07925
52.3304 6.98008
52.5293 6.87797
52.7284 6.72822
52.9276 6.65103
53.1271 6.54947
53.3267 6.41479
53.5265 6.31116
53.7264 6.20387
53.9266 6.07242
54.1269 6.01878
54.3274 5.88323
54.528 5.7367
54.7289 5.56281
54.9301 5.40218
55.1314 5.27446
55.3328 5.0925
55.5344 4.89467
55.7361 4.73839

File: Ni3Fe_FD0785.xy
TT I
1.27165 7.12469
1.45013 6.19169
1.62863 5.59827
1.80712 5.0756
1.98562 4.83798
2.16411 4.5472
2.34263 5.40625
2.52115 7.37674
2.69965 7.94688
2.87818 8.80256
3.05672 11.4943
3.23527 14.6752
3.4138 18.9474
3.59237 23.5179
3.77094 26.0298
3.9495 29.5889
4.12809 34.7488
4.30669 164.731
4.4853 59.649
4.6639 55.2035
4.84253 66.9325
5.02118 86.3063
5.19981 347.653
5.37848 175.542
5.55716 101.276
5.73586 91.5762
5.91455 93.4044
6.09328 4516.64
6.27201 80.7296
6.45075 66.4159
6.62952 61.6335
6.8083 57.9364
6.98711 55.251
7.16591 54.4638
7.34475 80.2656
7.5236 54.1476
7.70247 55.3308
7.88135 57.2743
8.06026 61.4793
8.23919 69.0729
8.41812 83.8486
8.59709 1205.28
8.77609 97.0478
8.9551 89.0319
9.13412 80.9578
9.31318 81.7765
9.49226 83.6504
9.67134 95.0957
9.85047 98.8223
10.0296 339.814
10.2088 343.075
10.388 103.208
10.5672 533.655
10.7465 85.2708
10.9257 77.0533
11.105 70.8484
11.2844 68.9252
11.4637 64.461
11.6431 63.0206
11.8225 61.7263
12.002 62.8723
12.1814 156.824
12.3609 67.5573
12.5405 63.5458
12.72 68.3573
12.8996 70.268
13.0792 78.7843
13.2589 244.27
13.4386 116.941
13.6183 254.004
13.7981 92.4197
13.9779 75.071
14.1577 71.1867
14.3376 70.2793
14.5175 67.96
14.6974 69.7346
14.8774 110.291
15.0574 142.589
15.2374 69.4951
15.4175 65.5547
15.5976 65.0926
15.7778 93.9331
15.958 148.565
16.1382 61.4869
16.3185 57.716
16.4988 54.7576
16.6792 53.8954
16.8596 54.586
17.04 55.3723
17.2205 66.3688
17.401 68.9147
17.5815 58.6104
17.7622 60.739
17.9428 72.9746
18.1237 141.363
18.3044 90.7778
18.4852 74.3982
18.666 59.7145
18.8469 57.3567
19.0278 56.1976
19.2088 58.864
19.3898 76.0222
19.5709 53.3999
19.752 52.8005
19.9332 55.7406
20.1144 69.5281
20.2957 64.0974
20.477 52.5312
20.6586 49.0366
20.84 48.3423
21.0215 48.0371
21.203 50.6512
21.3846 48.3037
21.5662 48.3302
21.7479 52.1243
21.9297 64.1028
22.1115 55.6418
22.2933 49.2032
22.4753 48.2445
22.6572 48.3991
22.8393 51.3748
23.0214 56.2976
23.2037 48.2507
23.3859 49.1723
23.5682 57.0007
23.7505 47.4393
23.9329 44.7806
24.1154 43.5708
24.2979 42.9456
24.4805 42.4454
24.6631 42.3855
24.8458 41.8665
25.0286 42.3697
25.2114 44.4432
25.3943 44.1608
25.5773 40.4398
25.7605 39.9819
25.9436 40.4248
26.1268 41.4101
26.31 39.7751
26.4933 40.3654
26.6767 41.7321
26.8601 39.9854
27.0437 38.4567
27.2272 38.0608
27.4109 37.9975
27.5946 37.906
27.7784 37.4489
27.9623 38.1452
28.1462 38.3188
28.3304 36.6494
28.5145 35.597
28.6987 35.241
28.8829 35.0817
29.0673 34.2677
29.2517 34.0322
29.4361 33.8127
29.6207 32.7089
29.8053 32.6242
29.99 32.2353
30.1748 32.2361
30.3597 31.9186
30.5447 31.8755
30.7297 31.8879
30.915 31.3751
31.1002 30.8694
31.2855 30.551
31.4708 30.6257
31.6563 29.9653
31.8418 29.9627
32.0275 29.566
32.2132 29.0596
32.399 28.5975
32.5848 28.1985
32.7708 27.8615
32.9569 27.7463
33.143 27.5579
33.3293 27.1189
33.5158 26.7114
33.7022 26.2891
33.8887 25.9646
34.0753 25.7561
34.262 25.3966
34.4488 24.9829
34.6357 24.7329
34.8227 24.4267
35.0098 24.247
35.1969 23.986
35.3842 23.6616
35.5716 23.5403
35.759 23.2335
35.9468 22.8889
36.1345 22.6255
36.3222 22.4337
36.5101 22.1794
36.6981 21.8788
36.8861 21.6294
37.0743 21.2753
37.2626 21.0636
37.451 20.6904
37.6395 20.6048
37.8281 20.2744
38.0168 19.9494
38.2056 19.7094
38.3945 19.4874
38.5837 19.2317
38.7728 19.0153
38.9621 18.791
39.1514 18.5196
39.3409 18.2486
39.5304 18.0925
39.7201 17.8389
39.9099 17.6558
40.0999 17.3958
40.2899 17.1897
40.48 16.9297
40.6703 16.6849
40.8607 16.5781
41.0512 16.3469
41.242 16.0835
41.4327 15.9539
41.6236 15.6525
41.8146 15.5471
42.0057 15.3069
42.1969 15.0562
42.3882 14.905
42.5797 14.6829
42.7713 14.4853
42.963 14.2479
43.1549 14.0876
43.3468 13.8573
43.5389 13.7205
43.7312 13.4835
43.9237 13.3049
44.1162 13.129
44.3088 12.9721
44.5016 12.783
44.6945 12.6136
44.8875 12.4364
45.0806 12.2423
45.2739 12.0798
45.4673 11.9589
45.6609 11.7546
45.8546 11.5969
46.0484 11.4235
46.2424 11.2702
46.4365 11.0671
46.631 10.9169
46.8254 10.7888
47.0199 10.5986
47.2146 10.4541
47.4095 10.282
47.6044 10.1675
47.7996 9.97994
47.9948 9.84223
48.1902 9.67735
48.3858 9.52737
48.5815 9.43925
48.7774 9.27612
48.9734 9.17076
49.1696 9.01728
49.3661 8.81913
49.5626 8.70902
49.7592 8.6308
49.956 8.46249
50.153 8.33897
50.3501 8.23215
50.5474 8.08762
50.7448 7.96902
50.9424 7.86956
51.1402 7.76659
51.3381 7.57567
51.5362 7.47258
51.7344 7.37978
51.9328 7.2228
52.1316 7.09411
52.3304 6.99835
52.5293 6.87575
52.7284 6.71411
52.9276 6.64881
53.1271 6.55233
53.3267 6.39038
53.5265 6.36682
53.7264 6.23745
53.9266 6.11475
54.1269 5.99448
54.3274 5.84514
54.528 5.78811
54.7289 5.56155
54.9301 5.4284
55.1314 5.29231
55.3328 5.0841
55.5344 4.89937
55.7361 4.78203

File: Ni3Fe_FD0786.xy
TT I
1.27165 7.07224
1.45013 5.91219
1.62863 5.4914
1.80712 4.62135
1.98562 4.69617
2.16411 4.88237
2.34263 5.40618
2.52115 7.6834
2.69965 7.97635
2.87818 9.21158
3.05672 11.7803
3.23527 15.0914
3.4138 18.7007
3.59237 23.5904
3.77094 26.0041
3.9495 29.2162
4.12809 34.3633
4.30669 162.634
4.4853 59.7141
4.6639 54.7394
4.84253 66.5336
5.02118 86.1688
5.19981 350.504
5.37848 175.506
5.55716 101.108
5.73586 91.632
5.91455 93.2413
6.09328 4537.77
6.27201 80.4526
6.45075 66.6157
6.62952 62.2313
6.8083 57.795
6.98711 54.9906
7.16591 54.6956
7.34475 79.6425
7.5236 54.027
7.70247 55.569
7.88135 57.1509
8.06026 61.4883
8.23919 68.7572
8.41812 83.9421
8.59709 1208.24
8.77609 96.7728
8.9551 89.0241
9.13412 81.6406
9.31318 81.916
9.49226 83.3857
9.67134 94.9563
9.85047 98.8481
10.0296 340.553
10.2088 345.019
10.388 103.171
10.5672 534.591
10.7465 85.2184
10.9257 77.0312
11.105 70.7237
11.2844 68.8004
11.4637 64.2489
11.6431 62.8408
11.8225 61.5789
12.002 63.3023
12.1814 157.75
12.3609 67.9197
12.5405 63.5454
12.72 68.6383
12.8996 70.1611
13.0792 78.553
13.2589 243.74
13.4386 117.024
13.6183 254.426
13.7981 92.4345
13.9779 74.8616
14.1577 71.4058
14.3376 70.1257
14.5175 68.1559
14.6974 69.832
14.8774 110.362
15.0574 142.309
15.2374 69.4706
15.4175 65.3785
15.5976 65.0748
15.7778 93.8337
15.958 148.102
16.1382 61.253
16.3185 57.6072
16.4988 54.7832
16.6792 53.8333
16.8596 54.3984
17.04 55.3184
17.2205 66.5331
17.401 68.9106
17.5815 58.4738
17.7622 60.587
17.9428 72.8221
18.1237 141.736
18.3044 90.753
18.4852 74.2543
18.666 59.5176
18.8469 57.3952
19.0278 56.258
19.2088 58.6906
19.3898 75.9751
19.5709 53.3419
19.752 52.8176
19.9332 55.5715
20.1144 69.7728
20.2957 64.1568
20.477 52.4461
20.6586 49.0606
20.84 48.2469
21.0215 48.1083
21.203 50.4855
21.3846 48.2536
21.5662 48.2847
21.7479 52.1243
21.9297 64.2598
22.1115 55.7177
22.2933 49.0215
22.4753 48.3016
22.6572 48.3069
22.8393 51.5757
23.0214 56.6629
23.2037 48.213
23.3859 49.3381
23.5682 56.9449
23.7505 47.5585
23.9329 44.8393
24.1154 43.5056
24.2979 42.9074
24.4805 42.5163
24.6631 42.2891
24.8458 41.8804
25.0286 42.5397
25.2114 44.1272
25.3943 44.1934
25.5773 40.5834
25.7605 40.0157
25.9436 40.4922
26.1268 41.4359
26.31 39.603
26.4933 40.2987
26.6767 41.7929
26.8601 39.9541
27.0437 38.3944
27.2272 38.0855
27.4109 38.0085
27.5946 38.0696
27.7784 37.4643
27.9623 37.9963
28.1462 38.3751
28.3304 36.6392
28.5145 35.6517
28.6987 35.1609
28.8829 34.9576
29.0673 34.3456
29.2517 34.0755
29.4361 33.7872
29.6207 32.8588
29.8053 32.5234
29.99 32.2857
30.1748 32.0921
30.3597 31.8447
30.5447 31.845
30.7297 31.9122
30.915 31.2284
31.1002 30.8508
31.2855 30.5344
31.4708 30.6265
31.6563 29.9426
31.8418 29.7848
32.0275 29.5503
32.2132 29.0748
32.399 28.6608
32.5848 28.242
32.7708 27.8349
32.9569 27.7633
33.143 27.5395
33.3293 27.1039
33.5158 26.7771
33.7022 26.3292
33.8887 26.0627
34.0753 25.7465
34.262 25.3861
34.4488 24.9868
34.6357 24.8038
34.8227 24.3971
35.0098 24.2439
35.1969 23.9513
35.3842 23.7542
35.5716 23.4959
35.759 23.2107
35.9468 22.8843
36.1345 22.647
36.3222 22.4155
36.5101 22.2093
36.6981 21.821
36.8861 21.5438
37.0743 21.2793
37.2626 21.0558
37.451 20.8312
37.6395 20.6255
37.8281 20.2212
38.0168 19.984
38.2056 19.8009
38.3945 19.4632
38.5837 19.2255
38.7728 18.9648
38.9621 18.8067
39.1514 18.5053
39.3409 18.2136
39.5304 18.0776
39.7201 17.8581
39.9099 17.6256
40.0999 17.3928
40.2899 17.2176
40.48 16.9489
40.6703 16.7684
40.8607 16.5744
41.0512 16.3326
41.242 16.0622
41.4327 15.8942
41.6236 15.6599
41.8146 15.4567
42.0057 15.236
42.1969 15.07
42.3882 14.8849
42.5797 14.6734
42.7713 14.4761
42.963 14.2746
43.1549 14.0758
43.3468 13.8585
43.5389 13.7199
43.7312 13.4969
43.9237 13.2925
44.1162 13.101
44.3088 12.9719
44.5016 12.773
44.6945 12.5686
44.8875 12.4263
45.0806 12.2577
45.2739 12.0533
45.4673 11.9264
45.6609 11.8014
45.8546 11.5583
46.0484 11.3988
46.2424 11.2573
46.4365 11.1122
46.631 10.933
46.8254 10.7695
47.0199 10.6085
47.2146 10.4717
47.4095 10.2793
47.6044 10.142
47.7996 10.0066
47.9948 9.80317
48.1902 9.7071
48.3858 9.52785
48.5815 9.40232
48.7774 9.32289
48.9734 9.18105
49.1696 9.03269
49.3661 8.86052
49.5626 8.72333
49.7592 8.58273
49.956 8.48475
50.153 8.34727
50.3501 8.24094
50.5474 8.11946
50.7448 7.96485
50.9424 7.862
51.1402 7.75853
51.3381 7.58409
51.5362 7.47556
51.7344 7.36254
51.9328 7.23336
52.1316 7.09609
52.3304 6.99751
52.5293 6.89188
52.7284 6.7608
52.9276 6.68681
53.1271 6.56192
53.3267 6.413
53.5265 6.2766
53.7264 6.18121
53.9266 6.10247
54.1269 5.97647
54.3274 5.88135
54.528 5.73666
54.7289 5.6121
54.9301 5.41426
55.1314 5.31811
55.3328 5.15314
55.5344 4.89267
55.7361 4.76135

File: Ni3Fe_FD0787.xy
TT I
1.27165 7.39846
1.45013 6.08031
1.62863 5.60715
1.80712 4.56884
1.98562 4.87759
2.16411 5.00822
2.34263 5.47474
2.52115 6.82115
2.69965 8.52615
2.87818 8.69037
3.05672 11.1962
3.23527 14.9785
3.4138 18.9353
3.59237 23.2258
3.77094 26.0278
3.9495 29.4179
4.12809 34.2462
4.30669 158.731
4.4853 59.2514
4.6639 54.9716
4.84253 66.9245
5.02118 86.2801
5.19981 354.03
5.37848 176.719
5.55716 100.996
5.73586 91.6484
5.91455 93.6428
6.09328 4544.98
6.27201 80.4801
6.45075 66.9264
6.62952 62.0149
6.8083 57.8947
6.98711 55.1404
7.16591 54.8152
7.34475 79.227
7.5236 53.9393
7.70247 55.7004
7.88135 57.6433
8.06026 61.8286
8.23919 68.899
8.41812 83.8038
8.59709 1211.41
8.77609 96.8964
8.9551 88.695
9.13412 81.2416
9.31318 81.938
9.49226 84.0549
9.67134 95.3566
9.85047 99.2915
10.0296 341.779
10.2088 343.069
10.388 103.515
10.5672 532.38
10.7465 85.1313
10.9257 76.8861
11.105 70.8319
11.2844 68.9468
11.4637 63.8839
11.6431 62.932
11.8225 61.7803
12.002 63.3282
12.1814 157.89
12.3609 67.7544
12.5405 63.7701
12.72 68.1309
12.8996 70.1546
13.0792 78.5772
13.2589 244.674
13.4386 117.096
13.6183 254.858
13.7981 92.6144
13.9779 74.905
14.1577 71.3916
14.3376 70.1995
14.5175 68.2756
14.6974 69.8118
14.8774 110.389
15.0574 141.671
15.2374 69.668
15.4175 65.4375
15.5976 65.3343
15.7778 94.3074
15.958 147.801
16.1382 61.3121
16.3185 57.6256
16.4988 54.971
16.6792 53.8272
16.8596 54.5431
17.04 55.361
17.2205 66.6632
17.401 68.897
17.5815 58.6136
17.7622 60.4083
17.9428 73.1299
18.1237 141.62
18.3044 91.0088
18.4852 74.5457
18.666 59.6144
18.8469 57.3348
19.0278 56.3265
19.2088 58.6139
19.3898 75.8877
19.5709 53.3766
19.752 52.7098
19.9332 55.7046
20.1144 69.6774
20.2957 63.9766
20.477 52.473
20.6586 48.9431
20.84 48.445
21.0215 48.041
21.203 50.4429
21.3846 48.1845
21.5662 48.3203
21.7479 52.0675
21.9297 64.0471
22.1115 55.7232
22.2933 49.0764
22.4753 48.2921
22.6572 48.3555
22.8393 51.5648
23.0214 56.527
23.2037 48.1511
23.3859 49.2882
23.5682 57.0998
23.7505 47.3186
23.9329 44.7639
24.1154 43.7169
24.2979 43.0572
24.4805 42.3481
24.6631 42.4073
24.8458 41.7354
25.0286 42.3391
25.2114 44.2424
25.3943 44.0392
25.5773 40.4018
25.7605 40.0226
25.9436 40.5731
26.1268 41.277
26.31 39.6521
26.4933 40.3368
26.6767 41.6962
26.8601 40.0265
27.0437 38.4788
27.2272 38.1463
27.4109 37.9469
27.5946 37.8995
27.7784 37.4391
27.9623 38.0647
28.1462 38.3764
28.3304 36.6863
28.5145 35.543
28.6987 35.2167
28.8829 35.073
29.0673 34.2784
29.2517 34.0422
29.4361 33.8289
29.6207 32.7742
29.8053 32.5724
29.99 32.2242
30.1748 32.0534
30.3597 31.8926
30.5447 31.9177
30.7297 31.8969
30.915 31.2483
31.1002 30.85
31.2855 30.4642
31.4708 30.5096
31.6563 29.9953
31.8418 29.8991
32.0275 29.5874
32.2132 29.0719
32.399 28.6382
32.5848 28.1471
32.7708 27.803
32.9569 27.7437
33.143 27.4714
33.3293 27.137
33.5158 26.7696
33.7022 26.2975
33.8887 26.0281
34.0753 25.6983
34.262 25.3643
34.4488 24.9943
34.6357 24.734
34.8227 24.4545
35.0098 24.2555
35.1969 23.8982
35.3842 23.7369
35.5716 23.5097
35.759 23.2262
35.9468 22.8036
36.1345 22.7299
36.3222 22.3494
36.5101 22.1928
36.6981 21.9883
36.8861 21.5331
37.0743 21.2847
37.2626 20.9774
37.451 20.7832
37.6395 20.6187
37.8281 20.2842
38.0168 19.983
38.2056 19.6802
38.3945 19.5156
38.5837 19.2517
38.7728 19.0049
38.9621 18.7984
39.1514 18.5544
39.3409 18.2973
39.5304 18.0392
39.7201 17.8287
39.9099 17.6706
40.0999 17.3648
40.2899 17.1555
40.48 16.9843
40.6703 16.7519
40.8607 16.5785
41.0512 16.3558
41.242 16.0193
41.4327 15.9263
41.6236 15.6661
41.8146 15.4912
42.0057 15.3228
42.1969 15.0481
42.3882 14.8843
42.5797 14.7116
42.7713 14.4275
42.963 14.2519
43.1549 14.0866
43.3468 13.8477
43.5389 13.7132
43.7312 13.5271
43.9237 13.3778
44.1162 13.1484
44.3088 12.9299
44.5016 12.773
44.6945 12.5801
44.8875 12.4226
45.0806 12.2317
45.2739 12.0842
45.4673 11.9421
45.6609 11.7386
45.8546 11.5738
46.0484 11.4607
46.2424 11.2373
46.4365 11.0947
46.631 10.9358
46.8254 10.7449
47.0199 10.5759
47.2146 10.4615
47.4095 10.2921
47.6044 10.1562
47.7996 9.97042
47.9948 9.85719
48.1902 9.72046
48.3858 9.56668
48.5815 9.40783
48.7774 9.30424
48.9734 9.17969
49.1696 8.99032
49.3661 8.87734
49.5626 8.68798
49.7592 8.62784
49.956 8.47327
50.153 8.31416
50.3501 8.23795
50.5474 8.11425
50.7448 7.97189
50.9424 7.83071
51.1402 7.72266
51.3381 7.57976
51.5362 7.47661
51.7344 7.32593
51.9328 7.17191
52.1316 7.08303
52.3304 7.01732
52.5293 6.89928
52.7284 6.79732
52.9276 6.67154
53.1271 6.534
53.3267 6.43017
53.5265 6.28285
53.7264 6.1846
53.9266 6.08646
54.1269 6.01735
54.3274 5.88716
54.528 5.67145
54.7289 5.60035
54.9301 5.39102
55.1314 5.28645
55.3328 5.11032
55.5344 4.87472
55.7361 4.71642