Folder: NiFe_MOF_catalyst_paper/XRD (part 160)

File: Ni3Fe_FD0868.xy
TT I
1.27165 7.17829
1.45013 6.1026
1.62863 5.33886
1.80712 4.79097
1.98562 4.14205
2.16411 4.81813
2.34263 6.37694
2.52115 7.06931
2.69965 8.6962
2.87818 8.61283
3.05672 11.6228
3.23527 14.9646
3.4138 18.9349
3.59237 24.3455
3.77094 26.578
3.9495 29.7871
4.12809 35.1667
4.30669 240.321
4.4853 67.2021
4.6639 54.8908
4.84253 66.0985
5.02118 84.976
5.19981 292.124
5.37848 177.284
5.55716 100.392
5.73586 90.7043
5.91455 91.1495
6.09328 4327.55
6.27201 81.3822
6.45075 66.2808
6.62952 62.5274
6.8083 57.879
6.98711 55.3463
7.16591 55.1006
7.34475 95.6005
7.5236 54.4136
7.70247 55.7337
7.88135 57.3093
8.06026 61.4518
8.23919 68.216
8.41812 83.495
8.59709 1124.63
8.77609 97.4892
8.9551 91.4591
9.13412 80.953
9.31318 81.4512
9.49226 83.2962
9.67134 97.9255
9.85047 97.8631
10.0296 300.562
10.2088 402.002
10.388 102.721
10.5672 517.848
10.7465 85.3559
10.9257 77.4435
11.105 70.8805
11.2844 70.1221
11.4637 64.1728
11.6431 62.8277
11.8225 61.6939
12.002 62.5758
12.1814 149.792
12.3609 70.2863
12.5405 63.5542
12.72 69.6811
12.8996 69.8092
13.0792 77.4916
13.2589 228.472
13.4386 122.872
13.6183 243.097
13.7981 95.7493
13.9779 74.346
14.1577 71.2666
14.3376 70.8217
14.5175 67.876
14.6974 69.1961
14.8774 105.341
15.0574 146.203
15.2374 70.3076
15.4175 65.5134
15.5976 64.6228
15.7778 90.1407
15.958 155.621
16.1382 62.1816
16.3185 57.9509
16.4988 54.8537
16.6792 53.8485
16.8596 54.5781
17.04 54.8559
17.2205 65.1718
17.401 69.996
17.5815 58.108
17.7622 60.2303
17.9428 70.9872
18.1237 138.917
18.3044 89.0988
18.4852 76.6955
18.666 59.5519
18.8469 57.1049
19.0278 56.2789
19.2088 58.2182
19.3898 76.0541
19.5709 53.508
19.752 52.5517
19.9332 55.2006
20.1144 69.0753
20.2957 63.4113
20.477 52.9661
20.6586 49.0418
20.84 48.165
21.0215 47.9985
21.203 50.2758
21.3846 48.2897
21.5662 48.0356
21.7479 51.7103
21.9297 63.9618
22.1115 55.5754
22.2933 49.1092
22.4753 48.1203
22.6572 48.0439
22.8393 50.8796
23.0214 56.7232
23.2037 48.1488
23.3859 48.9225
23.5682 56.5431
23.7505 47.7781
23.9329 44.6876
24.1154 43.6325
24.2979 42.8517
24.4805 42.3308
24.6631 42.1321
24.8458 41.6774
25.0286 42.1506
25.2114 44.0925
25.3943 44.1496
25.5773 40.4855
25.7605 39.9728
25.9436 40.2759
26.1268 41.2481
26.31 39.5155
26.4933 39.9734
26.6767 41.5708
26.8601 39.9523
27.0437 38.3076
27.2272 38.0498
27.4109 37.8359
27.5946 37.8443
27.7784 37.3701
27.9623 37.8649
28.1462 38.3574
28.3304 36.7565
28.5145 35.6307
28.6987 35.1505
28.8829 34.9853
29.0673 34.2082
29.2517 33.8237
29.4361 33.7557
29.6207 32.7429
29.8053 32.4
29.99 32.1357
30.1748 32.151
30.3597 31.7334
30.5447 31.7111
30.7297 31.8608
30.915 31.1953
31.1002 30.7247
31.2855 30.5477
31.4708 30.4332
31.6563 29.906
31.8418 29.7316
32.0275 29.5558
32.2132 29.0231
32.399 28.5148
32.5848 28.175
32.7708 27.893
32.9569 27.6143
33.143 27.4111
33.3293 27.0128
33.5158 26.7226
33.7022 26.196
33.8887 26.0809
34.0753 25.6202
34.262 25.357
34.4488 25.0051
34.6357 24.6539
34.8227 24.3989
35.0098 24.1777
35.1969 23.9422
35.3842 23.8059
35.5716 23.4559
35.759 23.1674
35.9468 22.9128
36.1345 22.5978
36.3222 22.3696
36.5101 22.173
36.6981 21.8983
36.8861 21.5761
37.0743 21.2482
37.2626 21.0596
37.451 20.7174
37.6395 20.5631
37.8281 20.2325
38.0168 19.9433
38.2056 19.7072
38.3945 19.4578
38.5837 19.2421
38.7728 19.0317
38.9621 18.7847
39.1514 18.4692
39.3409 18.3084
39.5304 18.0424
39.7201 17.8337
39.9099 17.6319
40.0999 17.4199
40.2899 17.1896
40.48 16.8873
40.6703 16.7691
40.8607 16.5391
41.0512 16.4263
41.242 16.0112
41.4327 15.8373
41.6236 15.6526
41.8146 15.4468
42.0057 15.2321
42.1969 15.0438
42.3882 14.8753
42.5797 14.6508
42.7713 14.4448
42.963 14.2451
43.1549 14.046
43.3468 13.8374
43.5389 13.6567
43.7312 13.4559
43.9237 13.314
44.1162 13.0831
44.3088 12.933
44.5016 12.7563
44.6945 12.5676
44.8875 12.4336
45.0806 12.242
45.2739 12.091
45.4673 11.9035
45.6609 11.7131
45.8546 11.5473
46.0484 11.4016
46.2424 11.2338
46.4365 11.0554
46.631 10.9089
46.8254 10.7533
47.0199 10.568
47.2146 10.4549
47.4095 10.2548
47.6044 10.1352
47.7996 9.94795
47.9948 9.84158
48.1902 9.67091
48.3858 9.54263
48.5815 9.37226
48.7774 9.29907
48.9734 9.12459
49.1696 8.98417
49.3661 8.81816
49.5626 8.68917
49.7592 8.592
49.956 8.46971
50.153 8.31614
50.3501 8.20577
50.5474 8.0636
50.7448 7.93073
50.9424 7.86276
51.1402 7.71744
51.3381 7.60445
51.5362 7.49983
51.7344 7.33792
51.9328 7.23323
52.1316 7.08102
52.3304 7.00966
52.5293 6.89682
52.7284 6.75683
52.9276 6.64319
53.1271 6.53954
53.3267 6.42916
53.5265 6.29968
53.7264 6.20229
53.9266 6.10197
54.1269 5.98036
54.3274 5.84952
54.528 5.71338
54.7289 5.59716
54.9301 5.44305
55.1314 5.29038
55.3328 5.14581
55.5344 4.96693
55.7361 4.78669

File: Ni3Fe_FD0869.xy
TT I
1.27165 7.58726
1.45013 6.25044
1.62863 5.17935
1.80712 4.82535
1.98562 4.60194
2.16411 5.06424
2.34263 5.84849
2.52115 6.77983
2.69965 8.49477
2.87818 8.68555
3.05672 11.5325
3.23527 15.1472
3.4138 19.2811
3.59237 23.5334
3.77094 26.0618
3.9495 29.5014
4.12809 34.9147
4.30669 240.174
4.4853 67.5027
4.6639 54.7358
4.84253 66.1114
5.02118 85.0476
5.19981 292.171
5.37848 176.964
5.55716 100.394
5.73586 90.3581
5.91455 91.0097
6.09328 4335.76
6.27201 81.8145
6.45075 66.7755
6.62952 62.0036
6.8083 58.1696
6.98711 55.1826
7.16591 55.0594
7.34475 94.8785
7.5236 54.3303
7.70247 55.7144
7.88135 57.3344
8.06026 61.5498
8.23919 68.6733
8.41812 83.9709
8.59709 1126.75
8.77609 97.6165
8.9551 91.0771
9.13412 80.9562
9.31318 81.2898
9.49226 83.2225
9.67134 97.9162
9.85047 98.3911
10.0296 301.154
10.2088 396.63
10.388 102.649
10.5672 519.694
10.7465 85.2981
10.9257 77.9557
11.105 71.1317
11.2844 69.9242
11.4637 64.2944
11.6431 62.8479
11.8225 61.6931
12.002 62.3046
12.1814 149.858
12.3609 70.1958
12.5405 63.5208
12.72 69.5272
12.8996 69.9014
13.0792 77.3458
13.2589 228.649
13.4386 122.217
13.6183 243.112
13.7981 95.6173
13.9779 74.5605
14.1577 71.3397
14.3376 70.9292
14.5175 67.7171
14.6974 69.5807
14.8774 104.927
15.0574 145.46
15.2374 70.248
15.4175 65.486
15.5976 64.7448
15.7778 90.2326
15.958 154.214
16.1382 62.1017
16.3185 58.0713
16.4988 54.8543
16.6792 53.883
16.8596 54.6925
17.04 54.8782
17.2205 64.956
17.401 69.6817
17.5815 58.3348
17.7622 60.4644
17.9428 71.1153
18.1237 138.549
18.3044 89.069
18.4852 76.4781
18.666 59.4644
18.8469 57.1744
19.0278 56.0368
19.2088 58.213
19.3898 76.125
19.5709 53.4612
19.752 52.5255
19.9332 55.2435
20.1144 69.0899
20.2957 63.5596
20.477 53.069
20.6586 48.9393
20.84 48.1749
21.0215 47.9689
21.203 50.2138
21.3846 48.3307
21.5662 47.9795
21.7479 51.5582
21.9297 63.6669
22.1115 55.3998
22.2933 49.1868
22.4753 48.1907
22.6572 48.0199
22.8393 50.8158
23.0214 56.6938
23.2037 48.1992
23.3859 48.7803
23.5682 56.4357
23.7505 47.6809
23.9329 44.7023
24.1154 43.6581
24.2979 42.8945
24.4805 42.2901
24.6631 42.4371
24.8458 41.6708
25.0286 42.1386
25.2114 43.967
25.3943 43.9891
25.5773 40.3544
25.7605 39.9583
25.9436 40.1882
26.1268 41.3177
26.31 39.4376
26.4933 40.0958
26.6767 41.5303
26.8601 39.9503
27.0437 38.3635
27.2272 37.9663
27.4109 37.9254
27.5946 37.9283
27.7784 37.2784
27.9623 37.9011
28.1462 38.3151
28.3304 36.6915
28.5145 35.47
28.6987 35.0842
28.8829 34.9256
29.0673 34.1473
29.2517 33.8382
29.4361 33.803
29.6207 32.7328
29.8053 32.4454
29.99 32.0914
30.1748 31.9413
30.3597 31.7702
30.5447 31.6525
30.7297 31.7557
30.915 31.1333
31.1002 30.7116
31.2855 30.4554
31.4708 30.4714
31.6563 29.9679
31.8418 29.7097
32.0275 29.542
32.2132 28.9966
32.399 28.5251
32.5848 28.048
32.7708 27.7059
32.9569 27.5984
33.143 27.5158
33.3293 27.0293
33.5158 26.712
33.7022 26.2096
33.8887 25.9662
34.0753 25.6492
34.262 25.3664
34.4488 24.908
34.6357 24.5765
34.8227 24.4428
35.0098 24.093
35.1969 23.8965
35.3842 23.6868
35.5716 23.4287
35.759 23.2104
35.9468 22.8476
36.1345 22.5857
36.3222 22.3585
36.5101 22.1586
36.6981 21.8721
36.8861 21.5185
37.0743 21.2521
37.2626 21.0021
37.451 20.6755
37.6395 20.5765
37.8281 20.2802
38.0168 19.9401
38.2056 19.7221
38.3945 19.4065
38.5837 19.1539
38.7728 18.985
38.9621 18.8012
39.1514 18.5209
39.3409 18.2624
39.5304 17.9986
39.7201 17.8383
39.9099 17.6154
40.0999 17.3593
40.2899 17.1746
40.48 16.9508
40.6703 16.7272
40.8607 16.5427
41.0512 16.3606
41.242 16.03
41.4327 15.841
41.6236 15.6135
41.8146 15.4495
42.0057 15.2853
42.1969 14.9919
42.3882 14.8684
42.5797 14.6352
42.7713 14.4706
42.963 14.2841
43.1549 14.0834
43.3468 13.799
43.5389 13.7158
43.7312 13.4622
43.9237 13.2993
44.1162 13.1347
44.3088 12.8881
44.5016 12.7539
44.6945 12.6192
44.8875 12.4468
45.0806 12.2314
45.2739 12.0645
45.4673 11.9333
45.6609 11.6802
45.8546 11.5679
46.0484 11.4446
46.2424 11.2216
46.4365 11.0924
46.631 10.8942
46.8254 10.7312
47.0199 10.5535
47.2146 10.4467
47.4095 10.2858
47.6044 10.1154
47.7996 9.96066
47.9948 9.83275
48.1902 9.70537
48.3858 9.51967
48.5815 9.3874
48.7774 9.31644
48.9734 9.13568
49.1696 9.02701
49.3661 8.86361
49.5626 8.68926
49.7592 8.59137
49.956 8.4678
50.153 8.3081
50.3501 8.20997
50.5474 8.08667
50.7448 7.91777
50.9424 7.8463
51.1402 7.7399
51.3381 7.57897
51.5362 7.47006
51.7344 7.32155
51.9328 7.19743
52.1316 7.07896
52.3304 7.00678
52.5293 6.88906
52.7284 6.76104
52.9276 6.67185
53.1271 6.56245
53.3267 6.37774
53.5265 6.30731
53.7264 6.19511
53.9266 6.11157
54.1269 6.00393
54.3274 5.88731
54.528 5.73289
54.7289 5.55087
54.9301 5.41368
55.1314 5.28273
55.3328 5.06287
55.5344 4.88969
55.7361 4.78226

File: Ni3Fe_FD0870.xy
TT I
1.27165 7.8189
1.45013 5.76483
1.62863 5.01687
1.80712 5.39763
1.98562 4.7284
2.16411 5.20428
2.34263 5.91084
2.52115 7.72569
2.69965 8.70866
2.87818 8.90069
3.05672 11.5786
3.23527 14.8834
3.4138 18.7135
3.59237 23.8105
3.77094 26.1861
3.9495 29.7234
4.12809 34.7184
4.30669 245.099
4.4853 67.7287
4.6639 54.7901
4.84253 66.2258
5.02118 85.1027
5.19981 290.025
5.37848 179.115
5.55716 99.9893
5.73586 90.6174
5.91455 90.9083
6.09328 4330.52
6.27201 81.7677
6.45075 66.3468
6.62952 62.1405
6.8083 57.9617
6.98711 55.5898
7.16591 54.9547
7.34475 96.5478
7.5236 54.2141
7.70247 55.7236
7.88135 57.3255
8.06026 61.3851
8.23919 68.547
8.41812 83.562
8.59709 1110.77
8.77609 97.3192
8.9551 91.079
9.13412 80.4564
9.31318 81.4507
9.49226 82.9722
9.67134 98.3197
9.85047 97.7067
10.0296 294.556
10.2088 407.803
10.388 102.841
10.5672 522.138
10.7465 85.388
10.9257 77.5392
11.105 70.9555
11.2844 69.6864
11.4637 64.083
11.6431 62.7307
11.8225 61.8592
12.002 62.5193
12.1814 150.447
12.3609 70.4224
12.5405 63.6109
12.72 69.5271
12.8996 69.8058
13.0792 77.2338
13.2589 226.078
13.4386 123.585
13.6183 241.471
13.7981 96.2663
13.9779 74.5954
14.1577 71.5231
14.3376 70.9214
14.5175 67.9233
14.6974 69.1768
14.8774 104.185
15.0574 146.409
15.2374 70.404
15.4175 65.1381
15.5976 64.4167
15.7778 89.9647
15.958 156.42
16.1382 61.9888
16.3185 58.0296
16.4988 54.776
16.6792 53.6409
16.8596 54.3871
17.04 54.6984
17.2205 65.0894
17.401 70.0495
17.5815 58.1877
17.7622 60.2657
17.9428 71.0644
18.1237 139.018
18.3044 89.0445
18.4852 76.7967
18.666 59.7713
18.8469 56.9963
19.0278 56.0208
19.2088 58.335
19.3898 76.3019
19.5709 53.2818
19.752 52.5155
19.9332 55.0879
20.1144 69.3383
20.2957 63.4241
20.477 53.0274
20.6586 49.0779
20.84 47.9851
21.0215 47.8968
21.203 50.2637
21.3846 48.3463
21.5662 47.8871
21.7479 51.4896
21.9297 63.6902
22.1115 55.3136
22.2933 49.025
22.4753 48.3131
22.6572 48.0239
22.8393 50.999
23.0214 56.8127
23.2037 48.1399
23.3859 48.9363
23.5682 56.4794
23.7505 47.6728
23.9329 44.6326
24.1154 43.4949
24.2979 42.7342
24.4805 42.3751
24.6631 42.1917
24.8458 41.6212
25.0286 42.1933
25.2114 43.9702
25.3943 44.1659
25.5773 40.3435
25.7605 39.8065
25.9436 40.2066
26.1268 41.3083
26.31 39.4439
26.4933 40.229
26.6767 41.6625
26.8601 39.9029
27.0437 38.3398
27.2272 37.9726
27.4109 37.9214
27.5946 37.7932
27.7784 37.3069
27.9623 37.8463
28.1462 38.3366
28.3304 36.706
28.5145 35.5612
28.6987 35.041
28.8829 35.0751
29.0673 34.2148
29.2517 33.7905
29.4361 33.6256
29.6207 32.733
29.8053 32.6049
29.99 32.2312
30.1748 31.999
30.3597 31.8825
30.5447 31.7514
30.7297 31.8399
30.915 31.1476
31.1002 30.7508
31.2855 30.5085
31.4708 30.3522
31.6563 29.905
31.8418 29.7016
32.0275 29.4845
32.2132 29.0405
32.399 28.5567
32.5848 28.1381
32.7708 27.7846
32.9569 27.6478
33.143 27.3807
33.3293 27.0623
33.5158 26.6954
33.7022 26.259
33.8887 26.0912
34.0753 25.6221
34.262 25.3645
34.4488 25.0098
34.6357 24.6536
34.8227 24.3881
35.0098 24.1947
35.1969 23.9028
35.3842 23.5817
35.5716 23.4049
35.759 23.2081
35.9468 22.8327
36.1345 22.6572
36.3222 22.3281
36.5101 22.1597
36.6981 21.8461
36.8861 21.5413
37.0743 21.2173
37.2626 21.0406
37.451 20.6915
37.6395 20.5698
37.8281 20.2314
38.0168 19.9296
38.2056 19.693
38.3945 19.4777
38.5837 19.2456
38.7728 18.9277
38.9621 18.7377
39.1514 18.4444
39.3409 18.2272
39.5304 18.0078
39.7201 17.8673
39.9099 17.6933
40.0999 17.4158
40.2899 17.1142
40.48 16.9213
40.6703 16.6925
40.8607 16.5415
41.0512 16.2753
41.242 16.0516
41.4327 15.8882
41.6236 15.6383
41.8146 15.4467
42.0057 15.2294
42.1969 14.9818
42.3882 14.8206
42.5797 14.6236
42.7713 14.4572
42.963 14.1857
43.1549 14.0717
43.3468 13.8462
43.5389 13.6719
43.7312 13.4336
43.9237 13.3171
44.1162 13.1731
44.3088 12.9467
44.5016 12.7018
44.6945 12.6055
44.8875 12.426
45.0806 12.2465
45.2739 12.0468
45.4673 11.8818
45.6609 11.7221
45.8546 11.5769
46.0484 11.3633
46.2424 11.2509
46.4365 11.0952
46.631 10.8564
46.8254 10.7202
47.0199 10.583
47.2146 10.4571
47.4095 10.3185
47.6044 10.0888
47.7996 9.95161
47.9948 9.82464
48.1902 9.66837
48.3858 9.52805
48.5815 9.40417
48.7774 9.26385
48.9734 9.12588
49.1696 8.99119
49.3661 8.84863
49.5626 8.68703
49.7592 8.57061
49.956 8.4767
50.153 8.31189
50.3501 8.21988
50.5474 8.07396
50.7448 7.98963
50.9424 7.8212
51.1402 7.7318
51.3381 7.59595
51.5362 7.4189
51.7344 7.32405
51.9328 7.19063
52.1316 7.08907
52.3304 7.01042
52.5293 6.87089
52.7284 6.79793
52.9276 6.63471
53.1271 6.55246
53.3267 6.43953
53.5265 6.33601
53.7264 6.19415
53.9266 6.12914
54.1269 5.98971
54.3274 5.88683
54.528 5.71944
54.7289 5.59058
54.9301 5.42816
55.1314 5.31091
55.3328 5.04995
55.5344 4.88962
55.7361 4.7264

File: Ni3Fe_FD0871.xy
TT I
1.27165 7.37577
1.45013 5.96935
1.62863 4.70249
1.80712 4.72241
1.98562 4.76932
2.16411 5.08728
2.34263 5.84323
2.52115 7.60857
2.69965 8.68633
2.87818 8.92505
3.05672 11.3952
3.23527 15.191
3.4138 19.1265
3.59237 24.2054
3.77094 26.297
3.9495 29.6514
4.12809 34.8819
4.30669 244.204
4.4853 67.6106
4.6639 54.8024
4.84253 66.1354
5.02118 84.7497
5.19981 290.0
5.37848 179.23
5.55716 100.3
5.73586 89.9875
5.91455 90.7442
6.09328 4354.43
6.27201 81.6588
6.45075 66.312
6.62952 62.0821
6.8083 58.3808
6.98711 55.5982
7.16591 54.9266
7.34475 97.0397
7.5236 54.3342
7.70247 55.4905
7.88135 57.2768
8.06026 61.2466
8.23919 68.5903
8.41812 83.6071
8.59709 1113.98
8.77609 97.741
8.9551 91.1958
9.13412 80.4752
9.31318 81.1479
9.49226 83.3865
9.67134 98.3136
9.85047 97.8787
10.0296 296.14
10.2088 405.485
10.388 102.968
10.5672 528.456
10.7465 85.4427
10.9257 77.7698
11.105 70.7865
11.2844 70.0433
11.4637 63.9842
11.6431 62.7311
11.8225 61.6722
12.002 62.1671
12.1814 149.864
12.3609 70.447
12.5405 63.7368
12.72 69.574
12.8996 69.8185
13.0792 77.0429
13.2589 226.225
13.4386 123.699
13.6183 241.011
13.7981 96.1185
13.9779 74.6745
14.1577 71.3946
14.3376 70.6485
14.5175 67.7381
14.6974 68.9873
14.8774 104.659
15.0574 146.056
15.2374 70.3502
15.4175 65.1402
15.5976 64.7008
15.7778 89.843
15.958 157.273
16.1382 62.2569
16.3185 58.0856
16.4988 54.6046
16.6792 53.6817
16.8596 54.4789
17.04 54.6973
17.2205 64.9079
17.401 69.6564
17.5815 58.2935
17.7622 60.1977
17.9428 70.6133
18.1237 138.967
18.3044 88.8062
18.4852 76.5322
18.666 59.54
18.8469 57.0548
19.0278 55.9668
19.2088 58.3098
19.3898 76.4478
19.5709 53.4919
19.752 52.4966
19.9332 55.0477
20.1144 69.1615
20.2957 63.2155
20.477 53.213
20.6586 48.9472
20.84 47.9751
21.0215 47.825
21.203 50.1123
21.3846 48.2021
21.5662 47.9314
21.7479 51.5418
21.9297 63.9027
22.1115 55.2738
22.2933 49.2261
22.4753 48.2416
22.6572 47.9592
22.8393 50.9241
23.0214 56.631
23.2037 48.0559
23.3859 48.8064
23.5682 56.3781
23.7505 47.6412
23.9329 44.5873
24.1154 43.5573
24.2979 42.9003
24.4805 42.2424
24.6631 42.1798
24.8458 41.5501
25.0286 42.385
25.2114 44.0632
25.3943 43.9422
25.5773 40.4147
25.7605 39.838
25.9436 40.2963
26.1268 41.2381
26.31 39.3361
26.4933 40.1916
26.6767 41.4723
26.8601 39.8825
27.0437 38.3491
27.2272 37.8986
27.4109 37.8458
27.5946 37.8175
27.7784 37.4031
27.9623 37.8744
28.1462 38.3054
28.3304 36.5495
28.5145 35.463
28.6987 35.1193
28.8829 35.0147
29.0673 34.3489
29.2517 33.8375
29.4361 33.7092
29.6207 32.7953
29.8053 32.5457
29.99 32.1505
30.1748 32.0724
30.3597 31.8498
30.5447 31.809
30.7297 31.7054
30.915 31.1473
31.1002 30.5949
31.2855 30.473
31.4708 30.4438
31.6563 29.8962
31.8418 29.6903
32.0275 29.5111
32.2132 28.9222
32.399 28.531
32.5848 28.1372
32.7708 27.7986
32.9569 27.5864
33.143 27.3784
33.3293 27.0355
33.5158 26.7087
33.7022 26.2664
33.8887 25.9417
34.0753 25.6653
34.262 25.316
34.4488 24.9192
34.6357 24.6487
34.8227 24.3331
35.0098 24.0879
35.1969 23.8958
35.3842 23.7366
35.5716 23.4455
35.759 23.1918
35.9468 22.8608
36.1345 22.6793
36.3222 22.3083
36.5101 22.2071
36.6981 21.7363
36.8861 21.5669
37.0743 21.2582
37.2626 20.934
37.451 20.778
37.6395 20.5576
37.8281 20.188
38.0168 19.8801
38.2056 19.6933
38.3945 19.4079
38.5837 19.2009
38.7728 18.9996
38.9621 18.725
39.1514 18.5109
39.3409 18.2207
39.5304 18.0331
39.7201 17.8212
39.9099 17.6209
40.0999 17.3954
40.2899 17.1093
40.48 16.8967
40.6703 16.6844
40.8607 16.531
41.0512 16.3215
41.242 16.0783
41.4327 15.8499
41.6236 15.5953
41.8146 15.433
42.0057 15.2642
42.1969 15.0308
42.3882 14.8167
42.5797 14.6144
42.7713 14.4271
42.963 14.2347
43.1549 14.0579
43.3468 13.8442
43.5389 13.6441
43.7312 13.4773
43.9237 13.275
44.1162 13.1288
44.3088 12.8845
44.5016 12.7733
44.6945 12.5576
44.8875 12.3755
45.0806 12.1892
45.2739 12.0732
45.4673 11.919
45.6609 11.7107
45.8546 11.5813
46.0484 11.389
46.2424 11.2272
46.4365 11.0552
46.631 10.8895
46.8254 10.7368
47.0199 10.5656
47.2146 10.4762
47.4095 10.23
47.6044 10.084
47.7996 9.94889
47.9948 9.79948
48.1902 9.66221
48.3858 9.50546
48.5815 9.4387
48.7774 9.26486
48.9734 9.14566
49.1696 8.96665
49.3661 8.85067
49.5626 8.71223
49.7592 8.58427
49.956 8.4734
50.153 8.32041
50.3501 8.1812
50.5474 8.08767
50.7448 7.95109
50.9424 7.84795
51.1402 7.6865
51.3381 7.57004
51.5362 7.50354
51.7344 7.32941
51.9328 7.19454
52.1316 7.10195
52.3304 6.9908
52.5293 6.88245
52.7284 6.76832
52.9276 6.604
53.1271 6.57716
53.3267 6.42903
53.5265 6.28609
53.7264 6.16219
53.9266 6.06518
54.1269 5.99198
54.3274 5.88115
54.528 5.74638
54.7289 5.60647
54.9301 5.39657
55.1314 5.27723
55.3328 5.10882
55.5344 4.94692
55.7361 4.75734

File: Ni3Fe_FD0872.xy
TT I
1.27165 6.97211
1.45013 5.80611
1.62863 5.1753
1.80712 4.8129
1.98562 5.25049
2.16411 4.81366
2.34263 5.41206
2.52115 7.60364
2.69965 8.28542
2.87818 8.83105
3.05672 11.9026
3.23527 15.5375
3.4138 19.0193
3.59237 24.3975
3.77094 26.55
3.9495 29.6395
4.12809 34.9411
4.30669 247.086
4.4853 67.0907
4.6639 54.6006
4.84253 66.383
5.02118 84.2622
5.19981 290.127
5.37848 179.007
5.55716 100.153
5.73586 90.4706
5.91455 91.2395
6.09328 4348.03
6.27201 81.6381
6.45075 66.5405
6.62952 62.4756
6.8083 58.2876
6.98711 55.349
7.16591 55.1748
7.34475 96.9891
7.5236 54.462
7.70247 55.7103
7.88135 57.1195
8.06026 61.6849
8.23919 68.5709
8.41812 83.5737
8.59709 1112.3
8.77609 97.4677
8.9551 91.1879
9.13412 80.9185
9.31318 80.9582
9.49226 83.1286
9.67134 98.625
9.85047 97.9408
10.0296 296.155
10.2088 403.881
10.388 102.796
10.5672 527.619
10.7465 85.2678
10.9257 77.9394
11.105 70.7074
11.2844 70.1042
11.4637 64.1715
11.6431 62.6191
11.8225 61.7108
12.002 62.2161
12.1814 150.173
12.3609 70.4914
12.5405 63.6448
12.72 69.7172
12.8996 69.8947
13.0792 77.0693
13.2589 225.172
13.4386 123.363
13.6183 240.672
13.7981 95.6184
13.9779 74.6545
14.1577 71.6629
14.3376 70.7216
14.5175 67.681
14.6974 69.2879
14.8774 104.464
15.0574 145.721
15.2374 70.2368
15.4175 65.3075
15.5976 64.4787
15.7778 89.8474
15.958 157.296
16.1382 62.234
16.3185 58.0137
16.4988 54.7014
16.6792 53.7537
16.8596 54.5577
17.04 54.8167
17.2205 65.2986
17.401 69.8633
17.5815 58.2017
17.7622 60.2393
17.9428 70.923
18.1237 138.611
18.3044 88.8514
18.4852 76.569
18.666 59.5964
18.8469 57.029
19.0278 56.2296
19.2088 58.1917
19.3898 76.3553
19.5709 53.6502
19.752 52.4501
19.9332 55.1609
20.1144 69.0857
20.2957 63.3631
20.477 52.9804
20.6586 48.9588
20.84 48.0457
21.0215 47.8171
21.203 50.2099
21.3846 48.2134
21.5662 48.0428
21.7479 51.4702
21.9297 64.039
22.1115 55.3916
22.2933 49.2076
22.4753 48.3173
22.6572 48.011
22.8393 50.8433
23.0214 56.8705
23.2037 48.0176
23.3859 48.7522
23.5682 56.5595
23.7505 47.7471
23.9329 44.6279
24.1154 43.4836
24.2979 42.8147
24.4805 42.3139
24.6631 42.2841
24.8458 41.685
25.0286 42.1539
25.2114 44.0001
25.3943 44.0412
25.5773 40.5257
25.7605 39.8066
25.9436 40.3315
26.1268 41.001
26.31 39.6544
26.4933 40.236
26.6767 41.5939
26.8601 39.88
27.0437 38.2348
27.2272 37.9046
27.4109 37.8138
27.5946 37.9709
27.7784 37.3255
27.9623 37.8451
28.1462 38.3591
28.3304 36.6508
28.5145 35.4875
28.6987 35.1279
28.8829 34.982
29.0673 34.2152
29.2517 33.8881
29.4361 33.669
29.6207 32.7491
29.8053 32.4699
29.99 32.1505
30.1748 32.0151
30.3597 31.769
30.5447 31.7423
30.7297 31.9684
30.915 31.087
31.1002 30.7074
31.2855 30.5318
31.4708 30.3969
31.6563 30.0241
31.8418 29.8195
32.0275 29.4989
32.2132 29.0118
32.399 28.5849
32.5848 28.1325
32.7708 27.7928
32.9569 27.7101
33.143 27.4872
33.3293 27.0597
33.5158 26.7094
33.7022 26.2667
33.8887 26.0096
34.0753 25.6997
34.262 25.2702
34.4488 24.8969
34.6357 24.613
34.8227 24.4483
35.0098 24.175
35.1969 23.8681
35.3842 23.648
35.5716 23.4811
35.759 23.1698
35.9468 22.7674
36.1345 22.566
36.3222 22.4397
36.5101 22.1353
36.6981 21.8142
36.8861 21.5358
37.0743 21.2786
37.2626 21.0322
37.451 20.8021
37.6395 20.5452
37.8281 20.3625
38.0168 19.9202
38.2056 19.7061
38.3945 19.4186
38.5837 19.2173
38.7728 18.9718
38.9621 18.7121
39.1514 18.3971
39.3409 18.2435
39.5304 17.9737
39.7201 17.8102
39.9099 17.6211
40.0999 17.3478
40.2899 17.1309
40.48 16.9229
40.6703 16.6823
40.8607 16.5292
41.0512 16.3712
41.242 16.0054
41.4327 15.9178
41.6236 15.5697
41.8146 15.5121
42.0057 15.2654
42.1969 15.0312
42.3882 14.8866
42.5797 14.6178
42.7713 14.4155
42.963 14.2691
43.1549 14.0523
43.3468 13.8684
43.5389 13.6679
43.7312 13.4913
43.9237 13.2801
44.1162 13.0912
44.3088 12.9173
44.5016 12.7507
44.6945 12.5293
44.8875 12.4287
45.0806 12.2166
45.2739 12.0241
45.4673 11.8637
45.6609 11.6729
45.8546 11.5673
46.0484 11.3612
46.2424 11.2095
46.4365 11.0475
46.631 10.8756
46.8254 10.7028
47.0199 10.5897
47.2146 10.4359
47.4095 10.2708
47.6044 10.1281
47.7996 9.96492
47.9948 9.79713
48.1902 9.66971
48.3858 9.5656
48.5815 9.42472
48.7774 9.29615
48.9734 9.12511
49.1696 9.00385
49.3661 8.82877
49.5626 8.73772
49.7592 8.57843
49.956 8.47989
50.153 8.33987
50.3501 8.22027
50.5474 8.09403
50.7448 7.96903
50.9424 7.86275
51.1402 7.69065
51.3381 7.57609
51.5362 7.49091
51.7344 7.32356
51.9328 7.19837
52.1316 7.1165
52.3304 7.00378
52.5293 6.84001
52.7284 6.76347
52.9276 6.63423
53.1271 6.55959
53.3267 6.44653
53.5265 6.30568
53.7264 6.21414
53.9266 6.11356
54.1269 5.9712
54.3274 5.89471
54.528 5.76799
54.7289 5.5556
54.9301 5.4382
55.1314 5.27105
55.3328 5.07492
55.5344 4.88064
55.7361 4.77284