Folder: NiFe_MOF_catalyst_paper/XRD (part 17)

File: Ni3Fe_FD0085.xy
TT I
1.27165 9.7676
1.45013 8.27628
1.62863 6.82787
1.80712 6.25616
1.98562 6.12878
2.16411 5.22911
2.34263 4.30449
2.52115 3.98997
2.69965 5.43127
2.87818 8.07002
3.05672 11.0934
3.23527 14.7022
3.4138 18.9081
3.59237 21.176
3.77094 24.6567
3.9495 28.2979
4.12809 32.5534
4.30669 37.8588
4.4853 44.4246
4.6639 53.5278
4.84253 67.0416
5.02118 98.3001
5.19981 759.522
5.37848 1065.91
5.55716 118.766
5.73586 101.144
5.91455 120.508
6.09328 1674.2
6.27201 106.5
6.45075 67.5815
6.62952 59.249
6.8083 55.0714
6.98711 52.6083
7.16591 51.354
7.34475 51.2734
7.5236 66.6597
7.70247 53.2263
7.88135 55.0246
8.06026 59.5138
8.23919 67.008
8.41812 85.5234
8.59709 636.098
8.77609 149.897
8.9551 86.0338
9.13412 81.6037
9.31318 119.672
9.49226 82.4642
9.67134 87.5733
9.85047 98.4125
10.0296 600.737
10.2088 1406.53
10.388 107.242
10.5672 203.511
10.7465 105.792
10.9257 74.7378
11.105 68.7303
11.2844 64.5687
11.4637 61.9817
11.6431 60.7997
11.8225 59.9594
12.002 80.0086
12.1814 92.4556
12.3609 89.8795
12.5405 61.5429
12.72 63.6018
12.8996 67.7341
13.0792 79.6423
13.2589 165.822
13.4386 301.331
13.6183 147.711
13.7981 220.894
13.9779 75.2538
14.1577 84.305
14.3376 67.7029
14.5175 66.7644
14.6974 68.3712
14.8774 117.078
15.0574 205.247
15.2374 68.6207
15.4175 64.5487
15.5976 64.1139
15.7778 106.337
15.958 161.913
16.1382 64.3099
16.3185 56.3
16.4988 53.6442
16.6792 52.5052
16.8596 53.0482
17.04 54.5003
17.2205 61.3056
17.401 80.1639
17.5815 57.5084
17.7622 60.7846
17.9428 84.9038
18.1237 86.8917
18.3044 89.0091
18.4852 103.344
18.666 60.1362
18.8469 56.5962
19.0278 55.3286
19.2088 60.8843
19.3898 62.4067
19.5709 58.5335
19.752 52.1641
19.9332 57.0694
20.1144 59.9234
20.2957 58.8494
20.477 62.7603
20.6586 48.6931
20.84 48.5236
21.0215 47.849
21.203 47.4062
21.3846 50.2573
21.5662 47.7243
21.7479 52.4996
21.9297 55.2262
22.1115 56.5904
22.2933 53.5373
22.4753 47.5625
22.6572 47.9283
22.8393 49.8723
23.0214 51.9308
23.2037 50.0864
23.3859 50.9405
23.5682 49.0004
23.7505 56.164
23.9329 44.6701
24.1154 43.325
24.2979 42.7059
24.4805 41.9581
24.6631 41.8949
24.8458 41.4544
25.0286 41.7686
25.2114 42.3775
25.3943 42.6591
25.5773 41.5646
25.7605 39.855
25.9436 39.8071
26.1268 39.8169
26.31 40.443
26.4933 39.5886
26.6767 39.8796
26.8601 40.6513
27.0437 38.8792
27.2272 38.0041
27.4109 37.4948
27.5946 37.4137
27.7784 37.7881
27.9623 37.2727
28.1462 37.922
28.3304 36.9776
28.5145 35.5035
28.6987 35.0034
28.8829 34.3818
29.0673 34.3168
29.2517 33.5871
29.4361 33.1361
29.6207 32.9233
29.8053 32.1897
29.99 31.8653
30.1748 31.5477
30.3597 31.5972
30.5447 31.3805
30.7297 31.1759
30.915 31.282
31.1002 30.6323
31.2855 30.2148
31.4708 29.9791
31.6563 30.0925
31.8418 29.4448
32.0275 29.2036
32.2132 28.9677
32.399 28.3115
32.5848 27.9478
32.7708 27.5863
32.9569 27.412
33.143 27.0236
33.3293 26.7744
33.5158 26.6661
33.7022 26.0118
33.8887 25.6838
34.0753 25.4138
34.262 25.1292
34.4488 24.7656
34.6357 24.4071
34.8227 24.1507
35.0098 23.9515
35.1969 23.6298
35.3842 23.3659
35.5716 23.217
35.759 23.0489
35.9468 22.6204
36.1345 22.3547
36.3222 22.206
36.5101 21.949
36.6981 21.6564
36.8861 21.3463
37.0743 21.0185
37.2626 20.8318
37.451 20.4979
37.6395 20.4157
37.8281 20.0644
38.0168 19.7701
38.2056 19.5626
38.3945 19.2825
38.5837 19.0111
38.7728 18.7663
38.9621 18.5449
39.1514 18.3528
39.3409 18.0199
39.5304 17.8698
39.7201 17.6849
39.9099 17.4685
40.0999 17.2259
40.2899 16.9838
40.48 16.7229
40.6703 16.5899
40.8607 16.3364
41.0512 16.2043
41.242 15.97
41.4327 15.7574
41.6236 15.418
41.8146 15.3285
42.0057 15.1388
42.1969 14.9289
42.3882 14.7373
42.5797 14.6095
42.7713 14.3141
42.963 14.1346
43.1549 13.9938
43.3468 13.7196
43.5389 13.5536
43.7312 13.3603
43.9237 13.1928
44.1162 12.9685
44.3088 12.7897
44.5016 12.6171
44.6945 12.4418
44.8875 12.3399
45.0806 12.1389
45.2739 11.9747
45.4673 11.8003
45.6609 11.6302
45.8546 11.4861
46.0484 11.32
46.2424 11.116
46.4365 11.0065
46.631 10.8479
46.8254 10.6339
47.0199 10.5092
47.2146 10.3356
47.4095 10.1783
47.6044 10.0314
47.7996 9.89019
47.9948 9.71874
48.1902 9.6128
48.3858 9.45284
48.5815 9.36772
48.7774 9.24401
48.9734 9.09618
49.1696 8.90955
49.3661 8.81287
49.5626 8.6607
49.7592 8.54955
49.956 8.41504
50.153 8.2719
50.3501 8.17345
50.5474 8.00819
50.7448 7.92654
50.9424 7.77522
51.1402 7.65908
51.3381 7.52522
51.5362 7.38005
51.7344 7.28401
51.9328 7.18482
52.1316 7.0378
52.3304 6.98474
52.5293 6.85125
52.7284 6.70738
52.9276 6.61845
53.1271 6.49447
53.3267 6.38897
53.5265 6.26016
53.7264 6.1655
53.9266 6.04119
54.1269 5.92864
54.3274 5.83825
54.528 5.61004
54.7289 5.41831
54.9301 5.25661
55.1314 5.12172
55.3328 4.89819
55.5344 4.72802
55.7361 4.64634

File: Ni3Fe_FD0086.xy
TT I
1.27165 8.99907
1.45013 7.53545
1.62863 6.49045
1.80712 5.81309
1.98562 5.91525
2.16411 5.01878
2.34263 4.94389
2.52115 4.24441
2.69965 4.90788
2.87818 7.52262
3.05672 11.2935
3.23527 14.7954
3.4138 18.6181
3.59237 21.507
3.77094 24.8444
3.9495 28.1102
4.12809 32.3693
4.30669 37.4688
4.4853 44.3015
4.6639 53.9006
4.84253 66.632
5.02118 97.7375
5.19981 762.52
5.37848 1005.72
5.55716 118.426
5.73586 101.612
5.91455 119.292
6.09328 1718.69
6.27201 105.182
6.45075 67.7707
6.62952 59.3929
6.8083 54.8485
6.98711 52.7329
7.16591 51.2993
7.34475 51.1388
7.5236 65.6524
7.70247 53.5266
7.88135 55.0856
8.06026 59.9634
8.23919 66.9673
8.41812 85.5785
8.59709 646.59
8.77609 147.332
8.9551 85.7895
9.13412 81.5484
9.31318 115.703
9.49226 82.6627
9.67134 87.4345
9.85047 98.6482
10.0296 605.432
10.2088 1382.17
10.388 107.236
10.5672 209.199
10.7465 104.126
10.9257 74.7639
11.105 69.0881
11.2844 64.627
11.4637 61.9674
11.6431 60.7645
11.8225 60.0756
12.002 78.2476
12.1814 93.7437
12.3609 88.9203
12.5405 61.6333
12.72 63.6245
12.8996 67.8501
13.0792 79.2946
13.2589 167.111
13.4386 294.383
13.6183 149.012
13.7981 217.942
13.9779 75.1843
14.1577 83.3826
14.3376 67.7768
14.5175 66.7019
14.6974 68.1783
14.8774 117.219
15.0574 205.497
15.2374 68.5867
15.4175 64.8218
15.5976 64.3151
15.7778 106.449
15.958 163.83
16.1382 64.0662
16.3185 56.1287
16.4988 53.7941
16.6792 52.5759
16.8596 53.1142
17.04 54.5657
17.2205 61.3676
17.401 80.2459
17.5815 57.5329
17.7622 60.6924
17.9428 85.3707
18.1237 88.3279
18.3044 88.3028
18.4852 102.578
18.666 60.2557
18.8469 56.8166
19.0278 55.4252
19.2088 61.2296
19.3898 62.4942
19.5709 58.4165
19.752 52.0333
19.9332 57.1368
20.1144 60.3018
20.2957 58.6277
20.477 62.1681
20.6586 48.6478
20.84 48.3579
21.0215 47.8899
21.203 47.5915
21.3846 50.2708
21.5662 47.595
21.7479 52.4294
21.9297 55.5285
22.1115 56.2686
22.2933 53.351
22.4753 47.5414
22.6572 47.9197
22.8393 50.0898
23.0214 52.1878
23.2037 49.8207
23.3859 51.037
23.5682 49.1454
23.7505 55.8033
23.9329 44.6895
24.1154 43.3367
24.2979 42.5301
24.4805 41.91
24.6631 42.1008
24.8458 41.6045
25.0286 41.8056
25.2114 42.5081
25.3943 42.9365
25.5773 41.585
25.7605 39.8516
25.9436 39.898
26.1268 40.0095
26.31 40.5613
26.4933 39.6388
26.6767 40.0781
26.8601 40.6851
27.0437 38.9478
27.2272 38.0201
27.4109 37.5692
27.5946 37.4264
27.7784 37.7727
27.9623 37.3419
28.1462 37.9281
28.3304 37.0772
28.5145 35.6028
28.6987 34.968
28.8829 34.5854
29.0673 34.3968
29.2517 33.6076
29.4361 33.1281
29.6207 32.905
29.8053 32.1972
29.99 31.95
30.1748 31.659
30.3597 31.7088
30.5447 31.4433
30.7297 31.1402
30.915 31.4584
31.1002 30.7122
31.2855 30.2715
31.4708 29.9198
31.6563 30.1333
31.8418 29.4779
32.0275 29.2185
32.2132 29.0841
32.399 28.5005
32.5848 27.9377
32.7708 27.5304
32.9569 27.5143
33.143 27.1196
33.3293 26.8675
33.5158 26.6867
33.7022 26.0137
33.8887 25.7091
34.0753 25.4598
34.262 25.0348
34.4488 24.7914
34.6357 24.4138
34.8227 24.14
35.0098 23.9862
35.1969 23.6465
35.3842 23.3833
35.5716 23.2328
35.759 23.0121
35.9468 22.6091
36.1345 22.4616
36.3222 22.1435
36.5101 21.918
36.6981 21.6283
36.8861 21.426
37.0743 21.06
37.2626 20.8037
37.451 20.5741
37.6395 20.3801
37.8281 20.0867
38.0168 19.8386
38.2056 19.5832
38.3945 19.2973
38.5837 19.0218
38.7728 18.7957
38.9621 18.6149
39.1514 18.3027
39.3409 18.0612
39.5304 17.9107
39.7201 17.679
39.9099 17.5233
40.0999 17.2382
40.2899 17.0174
40.48 16.7738
40.6703 16.6094
40.8607 16.3821
41.0512 16.1399
41.242 15.9613
41.4327 15.7595
41.6236 15.538
41.8146 15.3224
42.0057 15.1006
42.1969 14.921
42.3882 14.7551
42.5797 14.5395
42.7713 14.324
42.963 14.1312
43.1549 13.9479
43.3468 13.7988
43.5389 13.572
43.7312 13.3474
43.9237 13.2084
44.1162 13.0228
44.3088 12.8142
44.5016 12.6442
44.6945 12.4735
44.8875 12.2758
45.0806 12.1035
45.2739 11.9583
45.4673 11.8397
45.6609 11.6154
45.8546 11.474
46.0484 11.3664
46.2424 11.1607
46.4365 10.9779
46.631 10.7981
46.8254 10.665
47.0199 10.5252
47.2146 10.3196
47.4095 10.1793
47.6044 10.0493
47.7996 9.85842
47.9948 9.73923
48.1902 9.60167
48.3858 9.49396
48.5815 9.38286
48.7774 9.22489
48.9734 9.07986
49.1696 8.97623
49.3661 8.79901
49.5626 8.66084
49.7592 8.55524
49.956 8.43361
50.153 8.32492
50.3501 8.13991
50.5474 8.03894
50.7448 7.95413
50.9424 7.84712
51.1402 7.69208
51.3381 7.54056
51.5362 7.46111
51.7344 7.33293
51.9328 7.18189
52.1316 7.06314
52.3304 6.96627
52.5293 6.84662
52.7284 6.75018
52.9276 6.61278
53.1271 6.53506
53.3267 6.38469
53.5265 6.28553
53.7264 6.12043
53.9266 6.06347
54.1269 5.92163
54.3274 5.81999
54.528 5.61544
54.7289 5.45518
54.9301 5.28126
55.1314 5.10366
55.3328 4.92129
55.5344 4.71929
55.7361 4.58741

File: Ni3Fe_FD0087.xy
TT I
1.27165 9.11465
1.45013 7.30239
1.62863 6.78446
1.80712 5.71865
1.98562 5.37581
2.16411 5.16563
2.34263 4.69367
2.52115 4.23518
2.69965 4.84345
2.87818 7.20834
3.05672 11.0096
3.23527 14.5031
3.4138 18.2937
3.59237 21.3917
3.77094 24.4115
3.9495 27.8431
4.12809 32.3378
4.30669 37.1367
4.4853 44.8877
4.6639 53.3812
4.84253 66.0956
5.02118 97.015
5.19981 745.041
5.37848 978.039
5.55716 116.966
5.73586 101.157
5.91455 118.426
6.09328 1745.4
6.27201 104.54
6.45075 67.3241
6.62952 59.0133
6.8083 54.7498
6.98711 52.5067
7.16591 51.4346
7.34475 51.1719
7.5236 64.6792
7.70247 53.2074
7.88135 55.0901
8.06026 59.2936
8.23919 66.4403
8.41812 85.1923
8.59709 659.175
8.77609 146.246
8.9551 85.7129
9.13412 81.2438
9.31318 112.566
9.49226 82.1328
9.67134 87.2693
9.85047 98.5109
10.0296 605.297
10.2088 1382.56
10.388 106.752
10.5672 212.692
10.7465 103.019
10.9257 74.397
11.105 68.4735
11.2844 64.7708
11.4637 61.9877
11.6431 60.461
11.8225 59.9323
12.002 77.4413
12.1814 94.5537
12.3609 88.94
12.5405 61.5786
12.72 63.518
12.8996 67.8873
13.0792 79.2356
13.2589 169.675
13.4386 293.15
13.6183 150.94
13.7981 216.411
13.9779 75.2133
14.1577 82.2447
14.3376 67.713
14.5175 66.7379
14.6974 68.5465
14.8774 118.16
15.0574 206.531
15.2374 68.5678
15.4175 64.7358
15.5976 64.3493
15.7778 107.137
15.958 164.347
16.1382 63.8636
16.3185 56.2813
16.4988 53.9207
16.6792 52.669
16.8596 52.9526
17.04 54.4977
17.2205 61.7924
17.401 80.4837
17.5815 57.4994
17.7622 60.6479
17.9428 85.3864
18.1237 89.1505
18.3044 88.9372
18.4852 102.766
18.666 60.0659
18.8469 56.8363
19.0278 55.4993
19.2088 61.1762
19.3898 62.5808
19.5709 58.2335
19.752 51.8437
19.9332 57.2681
20.1144 60.828
20.2957 58.9232
20.477 62.3626
20.6586 48.8002
20.84 48.3421
21.0215 47.8858
21.203 47.6589
21.3846 50.0418
21.5662 47.6795
21.7479 52.6661
21.9297 55.8087
22.1115 56.5917
22.2933 53.6102
22.4753 47.7654
22.6572 47.9237
22.8393 50.2224
23.0214 52.5713
23.2037 49.8476
23.3859 51.0762
23.5682 49.3373
23.7505 56.0103
23.9329 44.7331
24.1154 43.3959
24.2979 42.6647
24.4805 42.006
24.6631 42.1512
24.8458 41.6009
25.0286 41.8135
25.2114 42.5037
25.3943 42.8972
25.5773 41.6248
25.7605 39.8399
25.9436 39.8753
26.1268 39.8742
26.31 40.6481
26.4933 39.7467
26.6767 40.0042
26.8601 40.8152
27.0437 38.8855
27.2272 38.077
27.4109 37.6225
27.5946 37.6244
27.7784 37.7919
27.9623 37.3992
28.1462 37.8723
28.3304 37.1894
28.5145 35.5321
28.6987 35.045
28.8829 34.4785
29.0673 34.5147
29.2517 33.6732
29.4361 33.2015
29.6207 32.9904
29.8053 32.2665
29.99 31.9152
30.1748 31.7295
30.3597 31.7491
30.5447 31.3734
30.7297 31.1916
30.915 31.4094
31.1002 30.7186
31.2855 30.2006
31.4708 30.0491
31.6563 30.0937
31.8418 29.507
32.0275 29.158
32.2132 29.0095
32.399 28.4219
32.5848 27.944
32.7708 27.6437
32.9569 27.5564
33.143 27.1499
33.3293 26.8788
33.5158 26.6743
33.7022 26.084
33.8887 25.73
34.0753 25.575
34.262 25.0751
34.4488 24.8433
34.6357 24.5054
34.8227 24.2424
35.0098 24.0162
35.1969 23.698
35.3842 23.4671
35.5716 23.2652
35.759 23.1081
35.9468 22.6691
36.1345 22.4238
36.3222 22.2056
36.5101 21.9406
36.6981 21.6791
36.8861 21.3919
37.0743 21.0528
37.2626 20.9034
37.451 20.5434
37.6395 20.3692
37.8281 20.102
38.0168 19.8708
38.2056 19.5345
38.3945 19.2772
38.5837 19.0739
38.7728 18.829
38.9621 18.5846
39.1514 18.3112
39.3409 18.0861
39.5304 17.8736
39.7201 17.6685
39.9099 17.4638
40.0999 17.2501
40.2899 17.0541
40.48 16.8135
40.6703 16.5812
40.8607 16.4351
41.0512 16.1694
41.242 15.9723
41.4327 15.7374
41.6236 15.5567
41.8146 15.3683
42.0057 15.1849
42.1969 14.9511
42.3882 14.7537
42.5797 14.5802
42.7713 14.3814
42.963 14.1731
43.1549 13.9693
43.3468 13.7777
43.5389 13.5665
43.7312 13.3427
43.9237 13.1792
44.1162 12.9842
44.3088 12.8058
44.5016 12.6554
44.6945 12.5068
44.8875 12.3335
45.0806 12.0948
45.2739 11.9811
45.4673 11.8366
45.6609 11.6278
45.8546 11.4671
46.0484 11.3206
46.2424 11.1543
46.4365 11.0388
46.631 10.8231
46.8254 10.615
47.0199 10.4676
47.2146 10.3406
47.4095 10.2272
47.6044 10.0423
47.7996 9.92167
47.9948 9.77568
48.1902 9.6236
48.3858 9.50305
48.5815 9.3671
48.7774 9.20971
48.9734 9.12107
49.1696 8.9636
49.3661 8.80567
49.5626 8.6485
49.7592 8.55312
49.956 8.43516
50.153 8.27903
50.3501 8.13507
50.5474 8.05407
50.7448 7.9116
50.9424 7.79001
51.1402 7.67861
51.3381 7.58255
51.5362 7.4407
51.7344 7.30618
51.9328 7.19825
52.1316 7.05187
52.3304 6.92316
52.5293 6.85397
52.7284 6.74556
52.9276 6.59113
53.1271 6.51706
53.3267 6.41097
53.5265 6.28922
53.7264 6.16856
53.9266 6.0568
54.1269 5.92412
54.3274 5.83669
54.528 5.63426
54.7289 5.47228
54.9301 5.32028
55.1314 5.12419
55.3328 4.91438
55.5344 4.70809
55.7361 4.64502

File: Ni3Fe_FD0088.xy
TT I
1.27165 9.01442
1.45013 7.44492
1.62863 6.38935
1.80712 6.22658
1.98562 5.78993
2.16411 5.06566
2.34263 4.45902
2.52115 3.49202
2.69965 4.93748
2.87818 8.2357
3.05672 10.7669
3.23527 15.283
3.4138 18.3981
3.59237 21.3195
3.77094 24.9107
3.9495 28.3256
4.12809 31.7228
4.30669 37.1025
4.4853 44.1746
4.6639 53.4584
4.84253 66.0468
5.02118 96.7578
5.19981 746.202
5.37848 938.448
5.55716 117.405
5.73586 100.963
5.91455 117.913
6.09328 1792.18
6.27201 103.793
6.45075 67.5423
6.62952 59.288
6.8083 55.0809
6.98711 52.1984
7.16591 51.6729
7.34475 51.4119
7.5236 64.0301
7.70247 53.4627
7.88135 55.4046
8.06026 59.7867
8.23919 67.1795
8.41812 85.2435
8.59709 668.14
8.77609 143.434
8.9551 85.9025
9.13412 81.4299
9.31318 110.582
9.49226 82.3244
9.67134 87.6665
9.85047 98.4721
10.0296 608.611
10.2088 1346.46
10.388 107.04
10.5672 218.939
10.7465 102.102
10.9257 74.9435
11.105 68.736
11.2844 64.9058
11.4637 62.3476
11.6431 60.954
11.8225 60.234
12.002 76.2297
12.1814 95.4308
12.3609 87.2316
12.5405 61.879
12.72 63.7038
12.8996 68.2533
13.0792 79.6485
13.2589 171.046
13.4386 288.411
13.6183 152.601
13.7981 210.727
13.9779 75.2756
14.1577 81.785
14.3376 67.9406
14.5175 67.0226
14.6974 68.5877
14.8774 118.621
15.0574 207.486
15.2374 68.4976
15.4175 64.6106
15.5976 64.3472
15.7778 107.349
15.958 166.211
16.1382 63.595
16.3185 56.343
16.4988 53.8127
16.6792 52.8821
16.8596 53.0947
17.04 54.5491
17.2205 62.0167
17.401 80.6623
17.5815 57.7211
17.7622 60.7926
17.9428 85.7437
18.1237 90.5144
18.3044 88.5697
18.4852 102.661
18.666 60.2276
18.8469 57.1645
19.0278 55.6675
19.2088 61.246
19.3898 62.8528
19.5709 58.2831
19.752 52.3341
19.9332 57.5098
20.1144 60.9308
20.2957 58.92
20.477 62.2123
20.6586 48.7158
20.84 48.4581
21.0215 48.1074
21.203 47.9525
21.3846 50.2133
21.5662 47.8746
21.7479 52.8853
21.9297 55.9546
22.1115 56.3885
22.2933 53.4985
22.4753 47.8144
22.6572 48.0136
22.8393 50.3185
23.0214 52.8279
23.2037 50.0409
23.3859 51.2481
23.5682 49.5296
23.7505 55.88
23.9329 44.8473
24.1154 43.5045
24.2979 42.7275
24.4805 41.9118
24.6631 42.2539
24.8458 41.7118
25.0286 41.9631
25.2114 42.6922
25.3943 43.0388
25.5773 41.6699
25.7605 39.9148
25.9436 40.0041
26.1268 40.002
26.31 40.562
26.4933 39.9122
26.6767 40.198
26.8601 40.7618
27.0437 38.9716
27.2272 38.248
27.4109 37.7673
27.5946 37.5971
27.7784 37.9316
27.9623 37.4727
28.1462 38.0087
28.3304 37.2424
28.5145 35.6832
28.6987 35.0237
28.8829 34.6552
29.0673 34.4666
29.2517 33.6516
29.4361 33.3135
29.6207 33.0149
29.8053 32.3081
29.99 32.0615
30.1748 31.7047
30.3597 31.9536
30.5447 31.6081
30.7297 31.3813
30.915 31.456
31.1002 30.8485
31.2855 30.3485
31.4708 30.0917
31.6563 30.2137
31.8418 29.6001
32.0275 29.2832
32.2132 29.099
32.399 28.5822
32.5848 27.9613
32.7708 27.7227
32.9569 27.5723
33.143 27.3056
33.3293 26.8509
33.5158 26.7721
33.7022 26.1357
33.8887 25.8084
34.0753 25.614
34.262 25.1397
34.4488 24.8011
34.6357 24.5556
34.8227 24.2323
35.0098 24.0346
35.1969 23.7238
35.3842 23.4487
35.5716 23.339
35.759 23.1321
35.9468 22.7327
36.1345 22.4856
36.3222 22.3106
36.5101 22.0327
36.6981 21.7972
36.8861 21.4604
37.0743 21.081
37.2626 20.8761
37.451 20.6032
37.6395 20.4171
37.8281 20.1079
38.0168 19.8429
38.2056 19.5643
38.3945 19.3838
38.5837 19.1163
38.7728 18.8632
38.9621 18.5985
39.1514 18.3436
39.3409 18.1035
39.5304 17.9309
39.7201 17.8041
39.9099 17.5564
40.0999 17.2818
40.2899 17.0858
40.48 16.7882
40.6703 16.6236
40.8607 16.4264
41.0512 16.2305
41.242 15.978
41.4327 15.8018
41.6236 15.5205
41.8146 15.4205
42.0057 15.1963
42.1969 14.9846
42.3882 14.7975
42.5797 14.5557
42.7713 14.3874
42.963 14.1697
43.1549 13.9577
43.3468 13.7565
43.5389 13.5809
43.7312 13.3973
43.9237 13.1928
44.1162 13.0269
44.3088 12.8797
44.5016 12.6244
44.6945 12.5102
44.8875 12.3681
45.0806 12.1561
45.2739 11.9866
45.4673 11.8417
45.6609 11.6346
45.8546 11.5314
46.0484 11.3164
46.2424 11.1558
46.4365 11.025
46.631 10.8524
46.8254 10.6532
47.0199 10.5027
47.2146 10.4185
47.4095 10.2018
47.6044 10.0421
47.7996 9.93561
47.9948 9.77825
48.1902 9.61478
48.3858 9.48457
48.5815 9.35467
48.7774 9.26155
48.9734 9.11019
49.1696 8.9665
49.3661 8.83679
49.5626 8.68859
49.7592 8.56843
49.956 8.41707
50.153 8.2953
50.3501 8.17206
50.5474 8.06184
50.7448 7.96624
50.9424 7.81561
51.1402 7.69827
51.3381 7.54617
51.5362 7.45247
51.7344 7.30724
51.9328 7.19388
52.1316 7.09248
52.3304 6.97459
52.5293 6.86347
52.7284 6.78258
52.9276 6.62645
53.1271 6.51709
53.3267 6.39021
53.5265 6.30303
53.7264 6.2154
53.9266 6.08034
54.1269 5.92711
54.3274 5.7879
54.528 5.66761
54.7289 5.51832
54.9301 5.30159
55.1314 5.15665
55.3328 4.92558
55.5344 4.80429
55.7361 4.68904

File: Ni3Fe_FD0089.xy
TT I
1.27165 9.2696
1.45013 7.60835
1.62863 6.60815
1.80712 5.74467
1.98562 5.56931
2.16411 5.4083
2.34263 4.38239
2.52115 3.17141
2.69965 5.59442
2.87818 7.81773
3.05672 11.2162
3.23527 14.5497
3.4138 18.4696
3.59237 21.4099
3.77094 24.7801
3.9495 28.347
4.12809 32.5108
4.30669 37.5365
4.4853 44.1905
4.6639 53.3682
4.84253 66.27
5.02118 96.673
5.19981 736.497
5.37848 909.378
5.55716 116.231
5.73586 100.772
5.91455 117.445
6.09328 1832.01
6.27201 102.626
6.45075 67.5376
6.62952 59.5345
6.8083 54.6831
6.98711 52.6741
7.16591 51.9452
7.34475 51.2841
7.5236 63.5181
7.70247 53.5182
7.88135 55.3171
8.06026 59.7564
8.23919 67.0372
8.41812 85.2668
8.59709 680.792
8.77609 141.961
8.9551 85.7901
9.13412 81.3427
9.31318 108.572
9.49226 82.6989
9.67134 87.3857
9.85047 98.2732
10.0296 607.223
10.2088 1349.85
10.388 106.787
10.5672 222.751
10.7465 101.509
10.9257 74.7137
11.105 68.9373
11.2844 64.7822
11.4637 62.137
11.6431 61.0888
11.8225 60.0841
12.002 75.202
12.1814 96.4054
12.3609 87.3727
12.5405 62.0953
12.72 63.6662
12.8996 68.0738
13.0792 79.1875
13.2589 172.784
13.4386 287.101
13.6183 154.559
13.7981 208.958
13.9779 75.3356
14.1577 81.2098
14.3376 67.8281
14.5175 67.1281
14.6974 68.4296
14.8774 119.071
15.0574 206.691
15.2374 68.6281
15.4175 65.0234
15.5976 64.4585
15.7778 107.783
15.958 167.368
16.1382 63.583
16.3185 56.5082
16.4988 54.0171
16.6792 52.8441
16.8596 53.2107
17.04 54.4934
17.2205 62.2228
17.401 80.9778
17.5815 57.6978
17.7622 60.5017
17.9428 85.531
18.1237 91.5675
18.3044 88.8617
18.4852 102.509
18.666 60.3444
18.8469 56.9464
19.0278 55.7097
19.2088 61.4396
19.3898 63.0272
19.5709 58.1553
19.752 52.3121
19.9332 57.4915
20.1144 61.3057
20.2957 58.9067
20.477 62.2334
20.6586 48.7032
20.84 48.5662
21.0215 48.1951
21.203 47.864
21.3846 50.2369
21.5662 47.9216
21.7479 53.1323
21.9297 56.4198
22.1115 56.2877
22.2933 53.3958
22.4753 48.0
22.6572 47.9938
22.8393 50.4923
23.0214 52.9449
23.2037 50.0331
23.3859 51.3871
23.5682 49.7962
23.7505 55.9363
23.9329 44.9118
24.1154 43.5433
24.2979 42.7415
24.4805 42.0898
24.6631 42.3489
24.8458 41.8218
25.0286 42.1089
25.2114 42.7391
25.3943 43.0742
25.5773 41.6496
25.7605 39.9816
25.9436 40.0037
26.1268 40.1835
26.31 40.654
26.4933 40.0025
26.6767 40.3535
26.8601 40.7972
27.0437 39.022
27.2272 38.2268
27.4109 37.7467
27.5946 37.6895
27.7784 37.9914
27.9623 37.4979
28.1462 38.0735
28.3304 37.4484
28.5145 35.6938
28.6987 35.2368
28.8829 34.6744
29.0673 34.5173
29.2517 33.8191
29.4361 33.3534
29.6207 33.0865
29.8053 32.3815
29.99 32.0917
30.1748 31.879
30.3597 32.0027
30.5447 31.6068
30.7297 31.4675
30.915 31.5402
31.1002 30.8724
31.2855 30.4889
31.4708 30.1652
31.6563 30.3222
31.8418 29.693
32.0275 29.3375
32.2132 29.1179
32.399 28.5413
32.5848 28.0919
32.7708 27.7353
32.9569 27.5847
33.143 27.2479
33.3293 26.9941
33.5158 26.8278
33.7022 26.1209
33.8887 25.9545
34.0753 25.6731
34.262 25.1971
34.4488 24.8441
34.6357 24.5309
34.8227 24.317
35.0098 24.0714
35.1969 23.8022
35.3842 23.5209
35.5716 23.3992
35.759 23.1561
35.9468 22.6964
36.1345 22.5542
36.3222 22.2876
36.5101 22.0699
36.6981 21.7959
36.8861 21.4468
37.0743 21.1759
37.2626 20.8535
37.451 20.6793
37.6395 20.5209
37.8281 20.1875
38.0168 19.9098
38.2056 19.5968
38.3945 19.3675
38.5837 19.1337
38.7728 18.9058
38.9621 18.6426
39.1514 18.4229
39.3409 18.1993
39.5304 17.944
39.7201 17.775
39.9099 17.5663
40.0999 17.2934
40.2899 17.1629
40.48 16.8441
40.6703 16.6726
40.8607 16.4532
41.0512 16.2579
41.242 15.9728
41.4327 15.8109
41.6236 15.6413
41.8146 15.4292
42.0057 15.1893
42.1969 14.9556
42.3882 14.8415
42.5797 14.6231
42.7713 14.4051
42.963 14.2185
43.1549 14.0015
43.3468 13.8027
43.5389 13.6438
43.7312 13.4164
43.9237 13.2864
44.1162 13.0455
44.3088 12.8619
44.5016 12.7186
44.6945 12.5345
44.8875 12.388
45.0806 12.1778
45.2739 12.0587
45.4673 11.845
45.6609 11.6604
45.8546 11.5707
46.0484 11.384
46.2424 11.2036
46.4365 11.034
46.631 10.8678
46.8254 10.6996
47.0199 10.5586
47.2146 10.4267
47.4095 10.2719
47.6044 10.1181
47.7996 9.9785
47.9948 9.7806
48.1902 9.65819
48.3858 9.49862
48.5815 9.41834
48.7774 9.24508
48.9734 9.12881
49.1696 9.01557
49.3661 8.85683
49.5626 8.702
49.7592 8.58886
49.956 8.45606
50.153 8.38015
50.3501 8.16282
50.5474 8.08071
50.7448 7.96948
50.9424 7.80421
51.1402 7.711
51.3381 7.56491
51.5362 7.48744
51.7344 7.37909
51.9328 7.22248
52.1316 7.12691
52.3304 6.97631
52.5293 6.87662
52.7284 6.74666
52.9276 6.64191
53.1271 6.49689
53.3267 6.43223
53.5265 6.29809
53.7264 6.23402
53.9266 6.09431
54.1269 5.9675
54.3274 5.81527
54.528 5.64168
54.7289 5.43982
54.9301 5.32438
55.1314 5.17913
55.3328 4.94002
55.5344 4.75732
55.7361 4.64483