Folder: NiFe_MOF_catalyst_paper/XRD (part 86)

File: Ni3Fe_FD0462.xy
TT I
1.27165 7.52836
1.45013 6.38389
1.62863 5.90178
1.80712 5.26021
1.98562 4.64662
2.16411 5.0951
2.34263 5.74303
2.52115 6.85976
2.69965 7.8222
2.87818 9.13214
3.05672 11.4098
3.23527 15.279
3.4138 19.2509
3.59237 23.4438
3.77094 25.9625
3.9495 30.0756
4.12809 34.7349
4.30669 131.567
4.4853 57.3122
4.6639 56.518
4.84253 68.9426
5.02118 89.853
5.19981 523.668
5.37848 206.002
5.55716 105.081
5.73586 95.1378
5.91455 98.6741
6.09328 4229.66
6.27201 83.5811
6.45075 68.9736
6.62952 63.1861
6.8083 59.2276
6.98711 56.2285
7.16591 55.8019
7.34475 74.9738
7.5236 54.7926
7.70247 57.0091
7.88135 58.9011
8.06026 63.442
8.23919 70.5787
8.41812 86.9513
8.59709 1217.17
8.77609 101.84
8.9551 90.9579
9.13412 83.5511
9.31318 84.7965
9.49226 86.1442
9.67134 96.703
9.85047 102.433
10.0296 410.273
10.2088 411.758
10.388 108.334
10.5672 491.067
10.7465 88.0055
10.9257 78.8657
11.105 72.6901
11.2844 70.2057
11.4637 65.9533
11.6431 64.4904
11.8225 63.326
12.002 65.5579
12.1814 155.669
12.3609 69.654
12.5405 65.6956
12.72 69.7512
12.8996 72.1979
13.0792 82.0474
13.2589 250.522
13.4386 124.838
13.6183 253.374
13.7981 97.3654
13.9779 77.1368
14.1577 73.1923
14.3376 71.9842
14.5175 70.2328
14.6974 71.9573
14.8774 118.042
15.0574 148.203
15.2374 71.2177
15.4175 67.5502
15.5976 67.2622
15.7778 100.734
15.958 155.303
16.1382 62.917
16.3185 59.0339
16.4988 56.4916
16.6792 55.3542
16.8596 55.9013
17.04 57.0678
17.2205 68.4433
17.401 71.8921
17.5815 60.0978
17.7622 62.6031
17.9428 77.0924
18.1237 139.666
18.3044 91.9692
18.4852 77.9659
18.666 61.3306
18.8469 59.0655
19.0278 57.6651
19.2088 60.9182
19.3898 76.4932
19.5709 55.3057
19.752 54.2867
19.9332 57.7658
20.1144 70.4675
20.2957 64.46
20.477 54.2822
20.6586 50.4562
20.84 49.6379
21.0215 49.6572
21.203 51.3676
21.3846 49.5588
21.5662 49.887
21.7479 53.9836
21.9297 65.4866
22.1115 56.7613
22.2933 50.5532
22.4753 49.5662
22.6572 49.7298
22.8393 53.0889
23.0214 57.981
23.2037 49.7702
23.3859 50.7833
23.5682 57.4618
23.7505 48.8518
23.9329 45.9009
24.1154 44.8446
24.2979 44.1243
24.4805 43.5679
24.6631 43.436
24.8458 42.9918
25.0286 43.6697
25.2114 45.464
25.3943 45.2337
25.5773 41.6312
25.7605 41.1783
25.9436 41.61
26.1268 42.3392
26.31 40.7703
26.4933 41.6323
26.6767 42.8134
26.8601 41.0795
27.0437 39.6017
27.2272 39.1751
27.4109 39.0792
27.5946 39.036
27.7784 38.5331
27.9623 39.0276
28.1462 39.5229
28.3304 37.7164
28.5145 36.6049
28.6987 36.1408
28.8829 35.9709
29.0673 35.2947
29.2517 34.9668
29.4361 34.7258
29.6207 33.6154
29.8053 33.4121
29.99 33.1211
30.1748 32.9406
30.3597 32.809
30.5447 32.7245
30.7297 32.7939
30.915 32.215
31.1002 31.6485
31.2855 31.4402
31.4708 31.3541
31.6563 30.8601
31.8418 30.6064
32.0275 30.3589
32.2132 29.8988
32.399 29.39
32.5848 28.9604
32.7708 28.5738
32.9569 28.4483
33.143 28.248
33.3293 27.8554
33.5158 27.3938
33.7022 27.1425
33.8887 26.8208
34.0753 26.4607
34.262 26.0814
34.4488 25.6939
34.6357 25.3335
34.8227 25.1347
35.0098 24.8787
35.1969 24.5916
35.3842 24.4059
35.5716 24.2203
35.759 23.8668
35.9468 23.5333
36.1345 23.2765
36.3222 22.9986
36.5101 22.8061
36.6981 22.5142
36.8861 22.1655
37.0743 21.8336
37.2626 21.5817
37.451 21.3074
37.6395 21.2019
37.8281 20.8697
38.0168 20.5504
38.2056 20.2423
38.3945 19.9399
38.5837 19.738
38.7728 19.5362
38.9621 19.2797
39.1514 18.9801
39.3409 18.7407
39.5304 18.5797
39.7201 18.3062
39.9099 18.0794
40.0999 17.8311
40.2899 17.6166
40.48 17.3875
40.6703 17.1828
40.8607 16.9663
41.0512 16.725
41.242 16.4577
41.4327 16.2867
41.6236 16.0671
41.8146 15.8952
42.0057 15.624
42.1969 15.4591
42.3882 15.2907
42.5797 15.0549
42.7713 14.8138
42.963 14.6171
43.1549 14.4197
43.3468 14.2352
43.5389 14.0379
43.7312 13.839
43.9237 13.6867
44.1162 13.4628
44.3088 13.33
44.5016 13.0823
44.6945 12.9371
44.8875 12.7755
45.0806 12.542
45.2739 12.4322
45.4673 12.1935
45.6609 12.0092
45.8546 11.8509
46.0484 11.7004
46.2424 11.5092
46.4365 11.3711
46.631 11.1735
46.8254 11.0509
47.0199 10.8899
47.2146 10.7013
47.4095 10.5079
47.6044 10.3953
47.7996 10.2616
47.9948 10.0844
48.1902 9.94601
48.3858 9.80742
48.5815 9.68164
48.7774 9.53704
48.9734 9.38142
49.1696 9.25704
49.3661 9.10612
49.5626 8.96533
49.7592 8.83703
49.956 8.71008
50.153 8.56573
50.3501 8.42048
50.5474 8.2843
50.7448 8.18902
50.9424 8.04756
51.1402 7.91039
51.3381 7.76665
51.5362 7.6556
51.7344 7.53739
51.9328 7.4156
52.1316 7.27739
52.3304 7.15617
52.5293 7.02678
52.7284 6.94857
52.9276 6.82927
53.1271 6.74426
53.3267 6.5903
53.5265 6.52422
53.7264 6.31143
53.9266 6.25848
54.1269 6.13567
54.3274 6.00546
54.528 5.87065
54.7289 5.71904
54.9301 5.52905
55.1314 5.45471
55.3328 5.21659
55.5344 5.06131
55.7361 4.8909

File: Ni3Fe_FD0463.xy
TT I
1.27165 7.16973
1.45013 6.3756
1.62863 5.60916
1.80712 5.01007
1.98562 4.73429
2.16411 5.0251
2.34263 4.54391
2.52115 6.43504
2.69965 6.79987
2.87818 8.60964
3.05672 10.786
3.23527 15.1132
3.4138 18.9101
3.59237 23.2897
3.77094 25.8985
3.9495 29.8531
4.12809 34.8836
4.30669 130.183
4.4853 57.1114
4.6639 56.5401
4.84253 68.8437
5.02118 90.08
5.19981 526.363
5.37848 205.434
5.55716 104.357
5.73586 95.4209
5.91455 98.8999
6.09328 4230.44
6.27201 83.9465
6.45075 68.7837
6.62952 62.9796
6.8083 59.2676
6.98711 56.5493
7.16591 55.8114
7.34475 74.6565
7.5236 55.4016
7.70247 57.3196
7.88135 58.691
8.06026 63.2832
8.23919 70.4189
8.41812 86.7224
8.59709 1217.73
8.77609 101.896
8.9551 90.5751
9.13412 83.8436
9.31318 84.8539
9.49226 86.048
9.67134 96.6865
9.85047 102.448
10.0296 409.833
10.2088 409.698
10.388 108.083
10.5672 494.561
10.7465 87.9832
10.9257 78.9662
11.105 72.6271
11.2844 70.1373
11.4637 65.9461
11.6431 64.5649
11.8225 63.4928
12.002 65.6199
12.1814 156.234
12.3609 69.3007
12.5405 65.5822
12.72 69.5969
12.8996 72.2127
13.0792 81.8697
13.2589 250.584
13.4386 124.707
13.6183 253.806
13.7981 97.7265
13.9779 76.9301
14.1577 73.1986
14.3376 71.7958
14.5175 70.2052
14.6974 71.85
14.8774 117.913
15.0574 147.316
15.2374 71.046
15.4175 67.5132
15.5976 67.1414
15.7778 101.229
15.958 155.682
16.1382 62.7299
16.3185 59.0755
16.4988 56.2132
16.6792 55.3287
16.8596 55.8114
17.04 57.0294
17.2205 68.6286
17.401 71.7675
17.5815 60.2668
17.7622 62.4383
17.9428 77.1771
18.1237 139.856
18.3044 91.9614
18.4852 78.0023
18.666 61.3353
18.8469 58.9318
19.0278 57.8973
19.2088 60.8969
19.3898 76.5673
19.5709 54.9527
19.752 54.3363
19.9332 57.8015
20.1144 70.3257
20.2957 64.4404
20.477 54.1994
20.6586 50.2756
20.84 49.5657
21.0215 49.4705
21.203 51.5897
21.3846 49.6977
21.5662 50.0833
21.7479 54.0599
21.9297 65.4336
22.1115 56.5275
22.2933 50.6604
22.4753 49.4761
22.6572 49.9084
22.8393 53.0435
23.0214 58.0131
23.2037 49.7772
23.3859 50.7346
23.5682 57.3014
23.7505 48.8418
23.9329 45.856
24.1154 44.6969
24.2979 44.002
24.4805 43.6393
24.6631 43.2632
24.8458 43.1276
25.0286 43.7128
25.2114 45.4263
25.3943 45.3403
25.5773 41.4477
25.7605 41.0685
25.9436 41.4606
26.1268 42.3298
26.31 40.7581
26.4933 41.4914
26.6767 42.7162
26.8601 41.0158
27.0437 39.5786
27.2272 39.168
27.4109 39.1038
27.5946 39.0043
27.7784 38.4971
27.9623 39.0978
28.1462 39.368
28.3304 37.73
28.5145 36.4389
28.6987 36.2434
28.8829 35.9689
29.0673 35.1411
29.2517 34.9487
29.4361 34.5664
29.6207 33.6407
29.8053 33.4683
29.99 33.1424
30.1748 32.9168
30.3597 32.8223
30.5447 32.6023
30.7297 32.7474
30.915 32.0296
31.1002 31.705
31.2855 31.3546
31.4708 31.2701
31.6563 30.863
31.8418 30.589
32.0275 30.4195
32.2132 29.7642
32.399 29.33
32.5848 28.9222
32.7708 28.6128
32.9569 28.4895
33.143 28.1325
33.3293 27.7628
33.5158 27.4095
33.7022 27.0248
33.8887 26.7637
34.0753 26.3804
34.262 26.0488
34.4488 25.7872
34.6357 25.3012
34.8227 25.0583
35.0098 24.8951
35.1969 24.5758
35.3842 24.3461
35.5716 24.1533
35.759 23.8676
35.9468 23.5157
36.1345 23.2023
36.3222 22.9724
36.5101 22.8183
36.6981 22.5176
36.8861 22.1631
37.0743 21.7844
37.2626 21.52
37.451 21.2779
37.6395 21.1446
37.8281 20.7263
38.0168 20.5338
38.2056 20.207
38.3945 19.9573
38.5837 19.712
38.7728 19.4993
38.9621 19.246
39.1514 18.9036
39.3409 18.8022
39.5304 18.5788
39.7201 18.3316
39.9099 18.141
40.0999 17.8558
40.2899 17.6262
40.48 17.3623
40.6703 17.1378
40.8607 17.0449
41.0512 16.7493
41.242 16.5142
41.4327 16.3185
41.6236 16.0789
41.8146 15.8955
42.0057 15.6622
42.1969 15.4546
42.3882 15.3071
42.5797 15.0609
42.7713 14.8253
42.963 14.6101
43.1549 14.4122
43.3468 14.259
43.5389 14.0277
43.7312 13.8102
43.9237 13.612
44.1162 13.4804
44.3088 13.2617
44.5016 13.0869
44.6945 12.8951
44.8875 12.6846
45.0806 12.5335
45.2739 12.3462
45.4673 12.1568
45.6609 12.0111
45.8546 11.8884
46.0484 11.6948
46.2424 11.5346
46.4365 11.3802
46.631 11.2004
46.8254 11.0181
47.0199 10.883
47.2146 10.6964
47.4095 10.5083
47.6044 10.3726
47.7996 10.2341
47.9948 10.0938
48.1902 9.91698
48.3858 9.81327
48.5815 9.68064
48.7774 9.50724
48.9734 9.37795
49.1696 9.24707
49.3661 9.06499
49.5626 8.96187
49.7592 8.83103
49.956 8.70921
50.153 8.5693
50.3501 8.43632
50.5474 8.28665
50.7448 8.17927
50.9424 8.06568
51.1402 7.92663
51.3381 7.76804
51.5362 7.62999
51.7344 7.52899
51.9328 7.42394
52.1316 7.27267
52.3304 7.15926
52.5293 7.03031
52.7284 6.91272
52.9276 6.82175
53.1271 6.72747
53.3267 6.60694
53.5265 6.47491
53.7264 6.38296
53.9266 6.26369
54.1269 6.1656
54.3274 6.01429
54.528 5.87976
54.7289 5.7133
54.9301 5.56687
55.1314 5.40276
55.3328 5.20073
55.5344 5.00953
55.7361 4.86226

File: Ni3Fe_FD0464.xy
TT I
1.27165 7.36972
1.45013 6.46121
1.62863 5.5104
1.80712 5.3427
1.98562 4.64081
2.16411 4.54898
2.34263 5.17595
2.52115 6.80379
2.69965 7.88867
2.87818 8.66443
3.05672 11.3453
3.23527 14.4225
3.4138 19.0289
3.59237 23.6338
3.77094 26.0474
3.9495 29.8528
4.12809 34.8812
4.30669 127.63
4.4853 56.987
4.6639 56.259
4.84253 69.1778
5.02118 90.3186
5.19981 529.349
5.37848 204.804
5.55716 104.969
5.73586 95.1343
5.91455 99.2008
6.09328 4236.62
6.27201 83.3517
6.45075 68.73
6.62952 63.1958
6.8083 59.3662
6.98711 56.404
7.16591 55.9396
7.34475 73.7571
7.5236 55.1442
7.70247 57.007
7.88135 58.7343
8.06026 63.4108
8.23919 70.7485
8.41812 87.2784
8.59709 1222.24
8.77609 101.805
8.9551 90.6966
9.13412 83.5501
9.31318 84.9557
9.49226 86.223
9.67134 97.0268
9.85047 102.735
10.0296 410.924
10.2088 405.779
10.388 108.249
10.5672 493.76
10.7465 87.9289
10.9257 79.0616
11.105 72.793
11.2844 70.3428
11.4637 65.9181
11.6431 64.6042
11.8225 63.8086
12.002 65.6299
12.1814 156.151
12.3609 69.5465
12.5405 65.5391
12.72 69.5489
12.8996 72.478
13.0792 82.1382
13.2589 251.327
13.4386 124.457
13.6183 254.794
13.7981 97.5782
13.9779 77.2748
14.1577 73.333
14.3376 71.9457
14.5175 70.4023
14.6974 71.9247
14.8774 118.355
15.0574 146.84
15.2374 71.2965
15.4175 67.7002
15.5976 67.3218
15.7778 101.332
15.958 154.722
16.1382 62.8996
16.3185 58.9157
16.4988 56.4521
16.6792 55.3792
16.8596 55.932
17.04 57.35
17.2205 68.8262
17.401 71.8648
17.5815 60.3275
17.7622 62.5559
17.9428 77.2622
18.1237 139.88
18.3044 91.9878
18.4852 77.7735
18.666 61.4383
18.8469 58.8989
19.0278 57.9328
19.2088 61.074
19.3898 76.6314
19.5709 55.1546
19.752 54.4536
19.9332 57.6985
20.1144 70.291
20.2957 64.362
20.477 54.263
20.6586 50.5411
20.84 49.6448
21.0215 49.6745
21.203 51.572
21.3846 49.8145
21.5662 49.8242
21.7479 53.9589
21.9297 65.24
22.1115 56.3675
22.2933 50.6764
22.4753 49.5123
22.6572 49.9039
22.8393 53.0246
23.0214 57.841
23.2037 49.6987
23.3859 51.047
23.5682 57.3639
23.7505 48.8735
23.9329 45.9605
24.1154 44.8772
24.2979 44.2282
24.4805 43.7812
24.6631 43.4034
24.8458 42.966
25.0286 43.6647
25.2114 45.4326
25.3943 45.2629
25.5773 41.5976
25.7605 41.2084
25.9436 41.6113
26.1268 42.4073
26.31 40.8547
26.4933 41.4878
26.6767 42.7515
26.8601 41.0162
27.0437 39.4291
27.2272 39.2943
27.4109 38.9568
27.5946 39.0022
27.7784 38.4382
27.9623 39.0142
28.1462 39.4737
28.3304 37.81
28.5145 36.5512
28.6987 36.235
28.8829 35.9111
29.0673 35.1719
29.2517 34.9644
29.4361 34.6421
29.6207 33.6707
29.8053 33.3744
29.99 33.038
30.1748 33.0003
30.3597 32.7776
30.5447 32.6525
30.7297 32.7308
30.915 32.0723
31.1002 31.4961
31.2855 31.3727
31.4708 31.304
31.6563 30.7931
31.8418 30.5896
32.0275 30.356
32.2132 29.8537
32.399 29.4417
32.5848 28.9085
32.7708 28.5746
32.9569 28.377
33.143 28.1852
33.3293 27.8593
33.5158 27.4894
33.7022 27.0512
33.8887 26.7492
34.0753 26.411
34.262 26.0879
34.4488 25.6769
34.6357 25.3834
34.8227 25.0024
35.0098 24.8861
35.1969 24.5411
35.3842 24.3405
35.5716 24.1366
35.759 23.8287
35.9468 23.4492
36.1345 23.2064
36.3222 22.9947
36.5101 22.7541
36.6981 22.5044
36.8861 22.1362
37.0743 21.8513
37.2626 21.6137
37.451 21.3317
37.6395 21.0986
37.8281 20.8603
38.0168 20.5054
38.2056 20.2406
38.3945 19.9179
38.5837 19.773
38.7728 19.4988
38.9621 19.2573
39.1514 18.975
39.3409 18.7199
39.5304 18.5304
39.7201 18.2896
39.9099 18.1111
40.0999 17.873
40.2899 17.6454
40.48 17.3232
40.6703 17.1527
40.8607 16.9927
41.0512 16.7797
41.242 16.5137
41.4327 16.284
41.6236 16.1006
41.8146 15.8636
42.0057 15.6844
42.1969 15.3928
42.3882 15.2899
42.5797 15.0284
42.7713 14.8801
42.963 14.6174
43.1549 14.4115
43.3468 14.2291
43.5389 14.028
43.7312 13.8131
43.9237 13.6543
44.1162 13.4633
44.3088 13.2972
44.5016 13.0852
44.6945 12.9134
44.8875 12.7527
45.0806 12.5281
45.2739 12.3672
45.4673 12.1909
45.6609 12.0401
45.8546 11.8833
46.0484 11.7103
46.2424 11.5089
46.4365 11.3537
46.631 11.1414
46.8254 10.9945
47.0199 10.9056
47.2146 10.7445
47.4095 10.5231
47.6044 10.3759
47.7996 10.1977
47.9948 10.078
48.1902 9.89341
48.3858 9.81953
48.5815 9.63284
48.7774 9.55559
48.9734 9.38566
49.1696 9.23721
49.3661 9.06113
49.5626 8.89385
49.7592 8.82986
49.956 8.67613
50.153 8.53397
50.3501 8.3907
50.5474 8.28839
50.7448 8.17218
50.9424 8.0406
51.1402 7.91464
51.3381 7.74912
51.5362 7.64352
51.7344 7.5474
51.9328 7.39868
52.1316 7.31539
52.3304 7.16582
52.5293 7.0696
52.7284 6.9401
52.9276 6.82421
53.1271 6.71989
53.3267 6.62057
53.5265 6.4529
53.7264 6.41598
53.9266 6.24273
54.1269 6.11066
54.3274 6.06849
54.528 5.9191
54.7289 5.71036
54.9301 5.53779
55.1314 5.4795
55.3328 5.27313
55.5344 5.03986
55.7361 4.90363

File: Ni3Fe_FD0465.xy
TT I
1.27165 7.73189
1.45013 5.99377
1.62863 5.1126
1.80712 4.7603
1.98562 4.54421
2.16411 4.69323
2.34263 4.70545
2.52115 5.99664
2.69965 7.76785
2.87818 9.15355
3.05672 11.3932
3.23527 14.9988
3.4138 18.5002
3.59237 23.3555
3.77094 26.1249
3.9495 30.0016
4.12809 34.9166
4.30669 126.669
4.4853 56.9073
4.6639 56.2935
4.84253 68.5249
5.02118 90.3003
5.19981 526.649
5.37848 205.436
5.55716 104.773
5.73586 95.2089
5.91455 99.259
6.09328 4284.31
6.27201 83.4604
6.45075 68.7983
6.62952 63.1775
6.8083 59.1795
6.98711 56.117
7.16591 56.2846
7.34475 73.7792
7.5236 55.0876
7.70247 57.1947
7.88135 58.4306
8.06026 63.2821
8.23919 70.6234
8.41812 86.6693
8.59709 1228.91
8.77609 101.569
8.9551 90.6128
9.13412 83.5089
9.31318 85.0155
9.49226 86.195
9.67134 96.6851
9.85047 102.212
10.0296 410.945
10.2088 406.325
10.388 108.277
10.5672 503.563
10.7465 88.2051
10.9257 79.0608
11.105 72.4896
11.2844 70.1393
11.4637 65.8991
11.6431 64.3283
11.8225 63.3895
12.002 65.5755
12.1814 156.625
12.3609 68.9995
12.5405 65.4899
12.72 69.5928
12.8996 72.3113
13.0792 81.9485
13.2589 251.073
13.4386 124.301
13.6183 252.935
13.7981 98.1607
13.9779 77.183
14.1577 73.1856
14.3376 71.8074
14.5175 70.0528
14.6974 72.0183
14.8774 118.225
15.0574 147.736
15.2374 70.8616
15.4175 67.6568
15.5976 67.1603
15.7778 101.057
15.958 155.031
16.1382 62.7944
16.3185 58.8423
16.4988 56.3314
16.6792 55.4381
16.8596 55.8141
17.04 57.086
17.2205 68.6684
17.401 71.6202
17.5815 60.2344
17.7622 62.5852
17.9428 77.2355
18.1237 140.152
18.3044 91.8975
18.4852 77.9667
18.666 61.2957
18.8469 58.9683
19.0278 57.8069
19.2088 60.9733
19.3898 76.5346
19.5709 55.0527
19.752 54.2872
19.9332 57.69
20.1144 70.7342
20.2957 64.4284
20.477 54.1797
20.6586 50.3229
20.84 49.7191
21.0215 49.3307
21.203 51.3807
21.3846 49.6581
21.5662 49.8412
21.7479 53.955
21.9297 65.343
22.1115 56.4594
22.2933 50.7229
22.4753 49.5398
22.6572 49.9038
22.8393 53.2051
23.0214 57.8156
23.2037 49.8295
23.3859 50.784
23.5682 57.4896
23.7505 49.0348
23.9329 45.8352
24.1154 44.8518
24.2979 44.082
24.4805 43.5698
24.6631 43.4496
24.8458 42.9497
25.0286 43.6752
25.2114 45.4707
25.3943 45.2057
25.5773 41.604
25.7605 41.1058
25.9436 41.4919
26.1268 42.2844
26.31 40.8616
26.4933 41.4225
26.6767 42.8239
26.8601 41.1084
27.0437 39.5015
27.2272 39.0855
27.4109 38.951
27.5946 39.0862
27.7784 38.4391
27.9623 38.9518
28.1462 39.3896
28.3304 37.7545
28.5145 36.5232
28.6987 36.129
28.8829 35.9745
29.0673 35.2613
29.2517 34.8551
29.4361 34.6677
29.6207 33.6135
29.8053 33.4675
29.99 33.1471
30.1748 32.9228
30.3597 32.8549
30.5447 32.6827
30.7297 32.7068
30.915 32.1371
31.1002 31.585
31.2855 31.4024
31.4708 31.2931
31.6563 30.785
31.8418 30.5615
32.0275 30.3888
32.2132 29.7558
32.399 29.3914
32.5848 28.9452
32.7708 28.5415
32.9569 28.4373
33.143 28.2395
33.3293 27.7776
33.5158 27.4695
33.7022 26.9998
33.8887 26.6329
34.0753 26.4202
34.262 26.037
34.4488 25.7445
34.6357 25.3343
34.8227 25.0891
35.0098 24.891
35.1969 24.4471
35.3842 24.2821
35.5716 24.0932
35.759 23.8458
35.9468 23.4541
36.1345 23.2405
36.3222 23.0118
36.5101 22.7917
36.6981 22.4124
36.8861 22.1689
37.0743 21.8512
37.2626 21.5638
37.451 21.269
37.6395 21.1099
37.8281 20.7357
38.0168 20.471
38.2056 20.1912
38.3945 19.9661
38.5837 19.7289
38.7728 19.4737
38.9621 19.1729
39.1514 19.0232
39.3409 18.7305
39.5304 18.5039
39.7201 18.3606
39.9099 18.0706
40.0999 17.8225
40.2899 17.6184
40.48 17.3917
40.6703 17.144
40.8607 17.0479
41.0512 16.8378
41.242 16.4979
41.4327 16.2882
41.6236 16.0881
41.8146 15.919
42.0057 15.695
42.1969 15.4285
42.3882 15.2808
42.5797 15.0651
42.7713 14.8485
42.963 14.6255
43.1549 14.4223
43.3468 14.2194
43.5389 14.0097
43.7312 13.8304
43.9237 13.688
44.1162 13.4642
44.3088 13.2328
44.5016 13.1048
44.6945 12.9366
44.8875 12.7476
45.0806 12.525
45.2739 12.3902
45.4673 12.2228
45.6609 12.0401
45.8546 11.8552
46.0484 11.6769
46.2424 11.5218
46.4365 11.3635
46.631 11.1972
46.8254 11.0099
47.0199 10.8549
47.2146 10.7066
47.4095 10.5094
47.6044 10.3805
47.7996 10.2377
47.9948 10.0476
48.1902 9.91733
48.3858 9.78971
48.5815 9.67104
48.7774 9.54428
48.9734 9.3618
49.1696 9.27776
49.3661 9.06512
49.5626 8.96417
49.7592 8.84396
49.956 8.70468
50.153 8.57967
50.3501 8.38895
50.5474 8.25852
50.7448 8.17167
50.9424 8.07125
51.1402 7.91838
51.3381 7.75783
51.5362 7.65421
51.7344 7.52359
51.9328 7.41013
52.1316 7.23863
52.3304 7.17784
52.5293 7.02693
52.7284 6.93919
52.9276 6.76818
53.1271 6.71238
53.3267 6.6062
53.5265 6.45967
53.7264 6.3554
53.9266 6.21843
54.1269 6.14414
54.3274 6.0254
54.528 5.87688
54.7289 5.68979
54.9301 5.56418
55.1314 5.44919
55.3328 5.23034
55.5344 5.00962
55.7361 4.87141

File: Ni3Fe_FD0466.xy
TT I
1.27165 7.80343
1.45013 6.44335
1.62863 5.78492
1.80712 5.35445
1.98562 4.79529
2.16411 4.7626
2.34263 5.31763
2.52115 6.54821
2.69965 7.75722
2.87818 8.95015
3.05672 11.1005
3.23527 14.6077
3.4138 19.0394
3.59237 23.2612
3.77094 26.0987
3.9495 29.7831
4.12809 34.7593
4.30669 125.693
4.4853 56.5619
4.6639 56.7108
4.84253 69.0311
5.02118 90.1588
5.19981 527.349
5.37848 206.236
5.55716 104.79
5.73586 94.7177
5.91455 99.102
6.09328 4316.66
6.27201 83.7426
6.45075 68.9255
6.62952 63.0897
6.8083 59.2005
6.98711 56.5136
7.16591 55.8839
7.34475 73.3502
7.5236 55.1596
7.70247 56.7989
7.88135 58.6121
8.06026 63.2619
8.23919 70.6798
8.41812 86.2595
8.59709 1231.02
8.77609 101.783
8.9551 90.7194
9.13412 83.7777
9.31318 84.6596
9.49226 86.2478
9.67134 96.4876
9.85047 102.436
10.0296 411.94
10.2088 407.928
10.388 108.446
10.5672 500.496
10.7465 88.0794
10.9257 78.9808
11.105 72.6652
11.2844 70.1046
11.4637 65.7217
11.6431 64.5564
11.8225 63.4988
12.002 65.4887
12.1814 156.451
12.3609 69.0688
12.5405 65.6002
12.72 69.7951
12.8996 72.433
13.0792 81.5669
13.2589 251.617
13.4386 125.186
13.6183 253.079
13.7981 98.0955
13.9779 76.9974
14.1577 73.0277
14.3376 71.7508
14.5175 70.0067
14.6974 71.7332
14.8774 118.344
15.0574 148.191
15.2374 70.9524
15.4175 67.3097
15.5976 67.2586
15.7778 100.809
15.958 155.458
16.1382 62.7613
16.3185 59.1001
16.4988 56.3452
16.6792 55.37
16.8596 55.7587
17.04 56.9951
17.2205 68.4803
17.401 71.6639
17.5815 60.4288
17.7622 62.4688
17.9428 76.9991
18.1237 140.232
18.3044 92.1231
18.4852 78.1364
18.666 61.248
18.8469 58.7766
19.0278 57.7961
19.2088 60.9936
19.3898 76.6083
19.5709 54.9363
19.752 54.1084
19.9332 57.6236
20.1144 70.4424
20.2957 64.2199
20.477 54.1445
20.6586 50.4891
20.84 49.5913
21.0215 49.4675
21.203 51.6323
21.3846 49.6788
21.5662 49.7768
21.7479 54.0625
21.9297 65.5045
22.1115 56.6444
22.2933 50.5407
22.4753 49.5526
22.6572 49.8486
22.8393 52.865
23.0214 58.0486
23.2037 49.5825
23.3859 50.8386
23.5682 57.3267
23.7505 49.0253
23.9329 45.941
24.1154 44.6905
24.2979 43.933
24.4805 43.6168
24.6631 43.4815
24.8458 42.9654
25.0286 43.6214
25.2114 45.3654
25.3943 45.2119
25.5773 41.434
25.7605 41.1096
25.9436 41.5177
26.1268 42.291
26.31 40.6195
26.4933 41.4568
26.6767 42.7941
26.8601 41.1344
27.0437 39.4229
27.2272 39.0999
27.4109 38.8752
27.5946 38.9092
27.7784 38.5265
27.9623 39.0011
28.1462 39.3854
28.3304 37.6674
28.5145 36.4945
28.6987 36.2914
28.8829 35.9572
29.0673 35.1848
29.2517 34.7968
29.4361 34.6915
29.6207 33.5593
29.8053 33.3552
29.99 33.012
30.1748 32.8533
30.3597 32.6378
30.5447 32.6533
30.7297 32.7397
30.915 32.0569
31.1002 31.5919
31.2855 31.3346
31.4708 31.1737
31.6563 30.8934
31.8418 30.5569
32.0275 30.2932
32.2132 29.8297
32.399 29.4547
32.5848 28.8877
32.7708 28.5797
32.9569 28.4072
33.143 28.2686
33.3293 27.874
33.5158 27.4432
33.7022 27.047
33.8887 26.6683
34.0753 26.414
34.262 26.0237
34.4488 25.6233
34.6357 25.3337
34.8227 25.0074
35.0098 24.898
35.1969 24.5674
35.3842 24.3482
35.5716 24.1087
35.759 23.8516
35.9468 23.5484
36.1345 23.2641
36.3222 23.0656
36.5101 22.7722
36.6981 22.4734
36.8861 22.0622
37.0743 21.8416
37.2626 21.5476
37.451 21.3095
37.6395 21.1066
37.8281 20.7953
38.0168 20.4496
38.2056 20.2823
38.3945 19.9839
38.5837 19.7657
38.7728 19.5019
38.9621 19.2028
39.1514 18.9786
39.3409 18.7678
39.5304 18.4888
39.7201 18.3952
39.9099 18.1567
40.0999 17.9074
40.2899 17.5662
40.48 17.3532
40.6703 17.1766
40.8607 17.0177
41.0512 16.7476
41.242 16.5066
41.4327 16.2717
41.6236 16.0493
41.8146 15.8894
42.0057 15.6289
42.1969 15.4502
42.3882 15.2651
42.5797 14.9907
42.7713 14.8391
42.963 14.5989
43.1549 14.3953
43.3468 14.1791
43.5389 14.0004
43.7312 13.7662
43.9237 13.6486
44.1162 13.4734
44.3088 13.2464
44.5016 13.0546
44.6945 12.8883
44.8875 12.6964
45.0806 12.5346
45.2739 12.3725
45.4673 12.2433
45.6609 12.0203
45.8546 11.8433
46.0484 11.6863
46.2424 11.5388
46.4365 11.3861
46.631 11.2112
46.8254 10.9825
47.0199 10.844
47.2146 10.6853
47.4095 10.501
47.6044 10.3785
47.7996 10.2463
47.9948 10.0502
48.1902 9.91551
48.3858 9.80068
48.5815 9.6927
48.7774 9.53525
48.9734 9.3746
49.1696 9.22977
49.3661 9.07812
49.5626 8.93438
49.7592 8.79355
49.956 8.68324
50.153 8.58089
50.3501 8.40001
50.5474 8.28713
50.7448 8.19142
50.9424 8.04173
51.1402 7.91062
51.3381 7.78059
51.5362 7.65407
51.7344 7.49979
51.9328 7.37786
52.1316 7.26349
52.3304 7.15922
52.5293 7.04201
52.7284 6.9528
52.9276 6.83518
53.1271 6.70691
53.3267 6.5865
53.5265 6.46782
53.7264 6.33992
53.9266 6.26904
54.1269 6.163
54.3274 5.98609
54.528 5.8774
54.7289 5.75526
54.9301 5.56019
55.1314 5.39816
55.3328 5.18086
55.5344 4.99491
55.7361 4.86757