Folder: NiFe_MOF_catalyst_paper/XRD (part 121)

File: Ni3Fe_FD0654.xy
TT I
1.27165 7.07752
1.45013 6.33279
1.62863 5.13171
1.80712 5.03525
1.98562 4.77688
2.16411 5.03026
2.34263 5.81588
2.52115 7.18908
2.69965 8.3151
2.87818 8.86665
3.05672 10.4933
3.23527 15.0918
3.4138 19.2062
3.59237 24.985
3.77094 26.6883
3.9495 29.8952
4.12809 35.1864
4.30669 293.402
4.4853 72.4682
4.6639 55.0765
4.84253 67.1084
5.02118 86.004
5.19981 326.543
5.37848 197.478
5.55716 102.066
5.73586 91.5353
5.91455 92.9007
6.09328 4270.15
6.27201 84.2249
6.45075 67.4419
6.62952 63.4753
6.8083 59.1835
6.98711 56.252
7.16591 56.3399
7.34475 108.368
7.5236 54.9269
7.70247 56.6742
7.88135 58.2437
8.06026 62.3524
8.23919 69.4685
8.41812 85.7288
8.59709 1069.11
8.77609 100.469
8.9551 94.0223
9.13412 81.8905
9.31318 82.2844
9.49226 84.4588
9.67134 101.937
9.85047 99.5307
10.0296 313.144
10.2088 458.501
10.388 106.064
10.5672 483.437
10.7465 86.8034
10.9257 79.0739
11.105 72.0963
11.2844 71.6262
11.4637 65.2191
11.6431 63.8533
11.8225 62.8766
12.002 63.4772
12.1814 145.072
12.3609 73.4589
12.5405 65.0675
12.72 71.9254
12.8996 70.7645
13.0792 78.3418
13.2589 222.544
13.4386 131.21
13.6183 232.363
13.7981 100.806
13.9779 76.0104
14.1577 72.9904
14.3376 72.6813
14.5175 68.9525
14.6974 70.6381
14.8774 105.893
15.0574 158.178
15.2374 72.3
15.4175 66.3497
15.5976 65.7353
15.7778 91.6412
15.958 165.511
16.1382 63.9098
16.3185 59.3157
16.4988 55.8703
16.6792 54.5338
16.8596 55.613
17.04 55.7522
17.2205 65.7714
17.401 72.5698
17.5815 59.4379
17.7622 61.2049
17.9428 72.4627
18.1237 138.266
18.3044 88.5827
18.4852 79.885
18.666 60.5459
18.8469 58.2188
19.0278 57.2584
19.2088 59.5735
19.3898 77.2178
19.5709 54.3955
19.752 53.3532
19.9332 55.9325
20.1144 69.8742
20.2957 63.3902
20.477 54.3463
20.6586 49.8561
20.84 49.0179
21.0215 48.9326
21.203 50.7529
21.3846 49.2405
21.5662 48.7799
21.7479 52.4123
21.9297 64.6219
22.1115 56.3163
22.2933 50.0918
22.4753 49.1749
22.6572 48.8435
22.8393 51.5929
23.0214 58.2303
23.2037 48.8796
23.3859 49.6471
23.5682 56.6671
23.7505 48.7952
23.9329 45.2503
24.1154 44.3253
24.2979 43.5558
24.4805 43.0214
24.6631 42.9782
24.8458 42.2151
25.0286 42.8494
25.2114 44.6586
25.3943 44.937
25.5773 41.1388
25.7605 40.5906
25.9436 40.9152
26.1268 41.8134
26.31 40.1956
26.4933 40.7723
26.6767 42.3333
26.8601 40.5219
27.0437 39.0055
27.2272 38.6989
27.4109 38.4453
27.5946 38.5033
27.7784 37.9821
27.9623 38.3579
28.1462 39.0072
28.3304 37.3832
28.5145 36.1435
28.6987 35.7443
28.8829 35.5056
29.0673 34.8417
29.2517 34.4303
29.4361 34.2027
29.6207 33.2694
29.8053 33.0595
29.99 32.729
30.1748 32.5161
30.3597 32.3806
30.5447 32.2157
30.7297 32.3147
30.915 31.7774
31.1002 31.213
31.2855 30.9487
31.4708 30.9301
31.6563 30.531
31.8418 30.2511
32.0275 30.0893
32.2132 29.4877
32.399 29.1052
32.5848 28.6526
32.7708 28.3028
32.9569 28.0839
33.143 27.8437
33.3293 27.5299
33.5158 27.1929
33.7022 26.7382
33.8887 26.4447
34.0753 26.1706
34.262 25.7027
34.4488 25.4041
34.6357 25.1093
34.8227 24.7982
35.0098 24.6052
35.1969 24.2647
35.3842 24.1348
35.5716 23.8455
35.759 23.5218
35.9468 23.232
36.1345 22.9298
36.3222 22.7491
36.5101 22.4562
36.6981 22.1497
36.8861 21.9191
37.0743 21.6039
37.2626 21.3626
37.451 21.092
37.6395 20.9044
37.8281 20.5404
38.0168 20.354
38.2056 19.9956
38.3945 19.7946
38.5837 19.5516
38.7728 19.2484
38.9621 19.0241
39.1514 18.7986
39.3409 18.5522
39.5304 18.3429
39.7201 18.1559
39.9099 17.9072
40.0999 17.6734
40.2899 17.4548
40.48 17.2112
40.6703 16.9733
40.8607 16.8259
41.0512 16.6083
41.242 16.3275
41.4327 16.0827
41.6236 15.9382
41.8146 15.695
42.0057 15.4736
42.1969 15.285
42.3882 15.1559
42.5797 14.8592
42.7713 14.6874
42.963 14.4963
43.1549 14.3216
43.3468 14.0576
43.5389 13.9462
43.7312 13.6889
43.9237 13.4669
44.1162 13.3794
44.3088 13.1134
44.5016 12.9348
44.6945 12.7648
44.8875 12.6359
45.0806 12.4255
45.2739 12.2692
45.4673 12.0595
45.6609 11.8928
45.8546 11.7925
46.0484 11.567
46.2424 11.3897
46.4365 11.2908
46.631 11.0831
46.8254 10.9078
47.0199 10.756
47.2146 10.6117
47.4095 10.4279
47.6044 10.2926
47.7996 10.1826
47.9948 9.99861
48.1902 9.87693
48.3858 9.70594
48.5815 9.59716
48.7774 9.47646
48.9734 9.30772
49.1696 9.17763
49.3661 9.02311
49.5626 8.85803
49.7592 8.71938
49.956 8.63696
50.153 8.48974
50.3501 8.38716
50.5474 8.22305
50.7448 8.10063
50.9424 7.95902
51.1402 7.84676
51.3381 7.69487
51.5362 7.57233
51.7344 7.47775
51.9328 7.33754
52.1316 7.20149
52.3304 7.11912
52.5293 6.975
52.7284 6.86782
52.9276 6.76447
53.1271 6.67545
53.3267 6.55973
53.5265 6.40217
53.7264 6.30698
53.9266 6.20057
54.1269 6.0782
54.3274 5.99371
54.528 5.87369
54.7289 5.68606
54.9301 5.4845
55.1314 5.36417
55.3328 5.15794
55.5344 4.99439
55.7361 4.82942

File: Ni3Fe_FD0655.xy
TT I
1.27165 7.40957
1.45013 5.97346
1.62863 5.47822
1.80712 5.15422
1.98562 4.76468
2.16411 4.35006
2.34263 5.51777
2.52115 7.05344
2.69965 7.59303
2.87818 8.5294
3.05672 10.9767
3.23527 15.4709
3.4138 19.2179
3.59237 24.7899
3.77094 26.5252
3.9495 29.9048
4.12809 35.6197
4.30669 293.462
4.4853 72.8627
4.6639 55.4955
4.84253 67.0675
5.02118 86.4216
5.19981 327.951
5.37848 196.944
5.55716 101.944
5.73586 91.8895
5.91455 93.1089
6.09328 4300.0
6.27201 84.3493
6.45075 67.9342
6.62952 64.0754
6.8083 59.3087
6.98711 56.4869
7.16591 56.1351
7.34475 108.257
7.5236 55.3336
7.70247 56.6167
7.88135 58.3674
8.06026 62.5309
8.23919 69.8098
8.41812 85.5851
8.59709 1072.68
8.77609 100.516
8.9551 94.2143
9.13412 81.8542
9.31318 82.4335
9.49226 84.5284
9.67134 102.038
9.85047 99.937
10.0296 313.848
10.2088 453.688
10.388 105.807
10.5672 482.726
10.7465 87.0205
10.9257 79.011
11.105 72.2604
11.2844 71.7583
11.4637 65.3379
11.6431 64.0515
11.8225 62.9399
12.002 63.4573
12.1814 145.07
12.3609 73.6612
12.5405 64.8627
12.72 71.7991
12.8996 70.8267
13.0792 78.355
13.2589 223.242
13.4386 130.416
13.6183 232.476
13.7981 100.421
13.9779 76.103
14.1577 72.8388
14.3376 72.7983
14.5175 68.9296
14.6974 70.3596
14.8774 106.093
15.0574 157.488
15.2374 72.1221
15.4175 66.5031
15.5976 65.9185
15.7778 91.837
15.958 165.552
16.1382 64.0987
16.3185 59.354
16.4988 55.7627
16.6792 54.6962
16.8596 55.5185
17.04 55.8293
17.2205 65.7852
17.401 72.4244
17.5815 59.2314
17.7622 61.3823
17.9428 72.5627
18.1237 138.651
18.3044 88.7449
18.4852 79.9379
18.666 60.7337
18.8469 58.0409
19.0278 57.3315
19.2088 59.4319
19.3898 77.2091
19.5709 54.5847
19.752 53.4616
19.9332 56.2062
20.1144 69.6951
20.2957 63.1098
20.477 54.3206
20.6586 49.9474
20.84 48.9833
21.0215 48.7818
21.203 50.9099
21.3846 49.3429
21.5662 48.8082
21.7479 52.3674
21.9297 64.7622
22.1115 56.0188
22.2933 50.243
22.4753 49.2012
22.6572 48.9071
22.8393 51.7467
23.0214 58.1009
23.2037 48.9527
23.3859 49.7129
23.5682 56.7201
23.7505 48.7244
23.9329 45.3691
24.1154 44.252
24.2979 43.6584
24.4805 42.9568
24.6631 43.0602
24.8458 42.3617
25.0286 42.9152
25.2114 44.7854
25.3943 44.904
25.5773 41.1446
25.7605 40.5878
25.9436 40.92
26.1268 41.762
26.31 40.1912
26.4933 40.689
26.6767 42.3544
26.8601 40.5909
27.0437 39.0221
27.2272 38.7018
27.4109 38.5777
27.5946 38.5599
27.7784 37.9702
27.9623 38.3826
28.1462 38.9937
28.3304 37.318
28.5145 36.0903
28.6987 35.8458
28.8829 35.4987
29.0673 34.9208
29.2517 34.4333
29.4361 34.246
29.6207 33.3905
29.8053 32.9629
29.99 32.6722
30.1748 32.517
30.3597 32.3509
30.5447 32.1436
30.7297 32.3498
30.915 31.7502
31.1002 31.2218
31.2855 31.0617
31.4708 30.9164
31.6563 30.5173
31.8418 30.2596
32.0275 30.0942
32.2132 29.4783
32.399 29.0017
32.5848 28.5689
32.7708 28.2544
32.9569 28.0222
33.143 27.8394
33.3293 27.4656
33.5158 27.1172
33.7022 26.7427
33.8887 26.4282
34.0753 26.1208
34.262 25.8279
34.4488 25.4483
34.6357 25.0616
34.8227 24.7819
35.0098 24.5746
35.1969 24.376
35.3842 24.1819
35.5716 23.9186
35.759 23.5543
35.9468 23.2319
36.1345 22.9659
36.3222 22.7519
36.5101 22.4988
36.6981 22.2677
36.8861 21.8382
37.0743 21.6091
37.2626 21.3489
37.451 21.0196
37.6395 20.828
37.8281 20.5587
38.0168 20.2893
38.2056 20.0467
38.3945 19.8224
38.5837 19.5274
38.7728 19.2654
38.9621 19.0392
39.1514 18.8113
39.3409 18.564
39.5304 18.3336
39.7201 18.0776
39.9099 17.9194
40.0999 17.6506
40.2899 17.4598
40.48 17.2012
40.6703 16.9679
40.8607 16.8085
41.0512 16.5613
41.242 16.3516
41.4327 16.1182
41.6236 15.9184
41.8146 15.7096
42.0057 15.5097
42.1969 15.3157
42.3882 15.1182
42.5797 14.9285
42.7713 14.7061
42.963 14.5053
43.1549 14.321
43.3468 14.0523
43.5389 13.9287
43.7312 13.7603
43.9237 13.5245
44.1162 13.3696
44.3088 13.1735
44.5016 12.9631
44.6945 12.8205
44.8875 12.6302
45.0806 12.4339
45.2739 12.2785
45.4673 12.1068
45.6609 11.9003
45.8546 11.7499
46.0484 11.5596
46.2424 11.4313
46.4365 11.2989
46.631 11.0578
46.8254 10.9182
47.0199 10.7433
47.2146 10.6275
47.4095 10.4151
47.6044 10.2992
47.7996 10.1242
47.9948 9.98403
48.1902 9.86647
48.3858 9.73639
48.5815 9.60403
48.7774 9.46258
48.9734 9.30008
49.1696 9.16901
49.3661 9.00251
49.5626 8.88141
49.7592 8.76488
49.956 8.62239
50.153 8.50087
50.3501 8.35242
50.5474 8.21242
50.7448 8.07711
50.9424 7.9735
51.1402 7.85375
51.3381 7.70791
51.5362 7.57634
51.7344 7.42388
51.9328 7.34986
52.1316 7.22002
52.3304 7.13064
52.5293 6.96855
52.7284 6.88307
52.9276 6.76699
53.1271 6.64431
53.3267 6.55308
53.5265 6.46298
53.7264 6.30522
53.9266 6.19258
54.1269 6.09859
54.3274 6.03339
54.528 5.85463
54.7289 5.69241
54.9301 5.50508
55.1314 5.40733
55.3328 5.17327
55.5344 4.97247
55.7361 4.83896

File: Ni3Fe_FD0656.xy
TT I
1.27165 7.54758
1.45013 6.3112
1.62863 5.84854
1.80712 5.20304
1.98562 4.66782
2.16411 5.05633
2.34263 5.55016
2.52115 7.0597
2.69965 7.82486
2.87818 9.14823
3.05672 11.3961
3.23527 15.0115
3.4138 19.1025
3.59237 24.7662
3.77094 26.4744
3.9495 29.9238
4.12809 35.2534
4.30669 296.452
4.4853 73.3982
4.6639 55.5188
4.84253 66.6945
5.02118 85.9505
5.19981 326.577
5.37848 196.85
5.55716 101.927
5.73586 91.5999
5.91455 92.615
6.09328 4266.76
6.27201 84.3437
6.45075 67.705
6.62952 63.5593
6.8083 59.5747
6.98711 56.2277
7.16591 56.3176
7.34475 108.606
7.5236 55.4953
7.70247 56.479
7.88135 58.2377
8.06026 62.5511
8.23919 70.1597
8.41812 85.5548
8.59709 1068.91
8.77609 100.319
8.9551 94.0852
9.13412 81.5701
9.31318 82.4041
9.49226 84.6044
9.67134 101.927
9.85047 99.614
10.0296 313.296
10.2088 458.285
10.388 105.427
10.5672 481.652
10.7465 87.1724
10.9257 78.9261
11.105 72.1916
11.2844 72.1432
11.4637 65.4702
11.6431 63.8629
11.8225 62.6742
12.002 63.3437
12.1814 144.216
12.3609 73.3251
12.5405 64.8372
12.72 72.2595
12.8996 70.9707
13.0792 78.2807
13.2589 221.921
13.4386 131.203
13.6183 232.069
13.7981 101.003
13.9779 75.8932
14.1577 73.0909
14.3376 72.708
14.5175 69.073
14.6974 70.4267
14.8774 105.495
15.0574 157.897
15.2374 72.3301
15.4175 66.4711
15.5976 65.7732
15.7778 91.6944
15.958 165.22
16.1382 63.9125
16.3185 59.3729
16.4988 55.8903
16.6792 54.5179
16.8596 55.5731
17.04 55.7493
17.2205 65.8236
17.401 72.402
17.5815 59.2466
17.7622 61.2902
17.9428 72.4086
18.1237 138.793
18.3044 88.8016
18.4852 80.1982
18.666 60.6431
18.8469 58.067
19.0278 57.0536
19.2088 59.4339
19.3898 77.3635
19.5709 54.2789
19.752 53.5062
19.9332 56.0241
20.1144 69.9259
20.2957 63.299
20.477 54.4294
20.6586 49.9711
20.84 49.0432
21.0215 48.5699
21.203 50.8212
21.3846 49.0611
21.5662 48.8177
21.7479 52.4056
21.9297 64.5787
22.1115 56.0722
22.2933 50.2608
22.4753 49.3698
22.6572 48.9957
22.8393 51.7677
23.0214 57.9125
23.2037 48.9163
23.3859 49.6714
23.5682 56.7052
23.7505 48.8416
23.9329 45.3639
24.1154 44.3269
24.2979 43.5137
24.4805 43.0911
24.6631 42.9542
24.8458 42.3206
25.0286 42.8276
25.2114 44.7978
25.3943 44.8912
25.5773 41.1006
25.7605 40.5509
25.9436 41.0265
26.1268 41.8433
26.31 40.1003
26.4933 40.7665
26.6767 42.2235
26.8601 40.5994
27.0437 39.0067
27.2272 38.668
27.4109 38.5142
27.5946 38.5968
27.7784 38.0103
27.9623 38.4394
28.1462 38.9804
28.3304 37.3715
28.5145 36.1051
28.6987 35.7378
28.8829 35.6186
29.0673 34.8604
29.2517 34.4627
29.4361 34.3009
29.6207 33.2067
29.8053 32.9151
29.99 32.6619
30.1748 32.5405
30.3597 32.4304
30.5447 32.3004
30.7297 32.3574
30.915 31.6616
31.1002 31.1963
31.2855 31.035
31.4708 30.9386
31.6563 30.4695
31.8418 30.1668
32.0275 30.0712
32.2132 29.5528
32.399 28.984
32.5848 28.6279
32.7708 28.2962
32.9569 28.0999
33.143 27.9111
33.3293 27.5407
33.5158 27.1961
33.7022 26.7067
33.8887 26.3662
34.0753 26.1256
34.262 25.8191
34.4488 25.4287
34.6357 25.0996
34.8227 24.7071
35.0098 24.6767
35.1969 24.3768
35.3842 24.0121
35.5716 23.877
35.759 23.5757
35.9468 23.1664
36.1345 22.9849
36.3222 22.7533
36.5101 22.4813
36.6981 22.2532
36.8861 21.8759
37.0743 21.5894
37.2626 21.3726
37.451 21.0698
37.6395 20.901
37.8281 20.5688
38.0168 20.2988
38.2056 20.0265
38.3945 19.7338
38.5837 19.5139
38.7728 19.2584
38.9621 19.0623
39.1514 18.7219
39.3409 18.5224
39.5304 18.2806
39.7201 18.1849
39.9099 17.9141
40.0999 17.6792
40.2899 17.4044
40.48 17.1565
40.6703 17.0037
40.8607 16.8414
41.0512 16.5641
41.242 16.3306
41.4327 16.154
41.6236 15.8901
41.8146 15.7224
42.0057 15.5307
42.1969 15.3206
42.3882 15.1249
42.5797 14.8708
42.7713 14.7222
42.963 14.4947
43.1549 14.2556
43.3468 14.1046
43.5389 13.8941
43.7312 13.6771
43.9237 13.5363
44.1162 13.2923
44.3088 13.1407
44.5016 12.9709
44.6945 12.8412
44.8875 12.5932
45.0806 12.4317
45.2739 12.2895
45.4673 12.0662
45.6609 11.9332
45.8546 11.7833
46.0484 11.5671
46.2424 11.4171
46.4365 11.2653
46.631 11.098
46.8254 10.9218
47.0199 10.7657
47.2146 10.5994
47.4095 10.4432
47.6044 10.2607
47.7996 10.163
47.9948 9.96013
48.1902 9.88273
48.3858 9.69975
48.5815 9.57271
48.7774 9.41812
48.9734 9.29769
49.1696 9.13396
49.3661 9.0184
49.5626 8.85928
49.7592 8.72571
49.956 8.59936
50.153 8.4706
50.3501 8.31778
50.5474 8.22142
50.7448 8.05743
50.9424 7.99201
51.1402 7.85072
51.3381 7.70141
51.5362 7.6029
51.7344 7.4554
51.9328 7.31006
52.1316 7.20656
52.3304 7.12547
52.5293 6.97293
52.7284 6.86846
52.9276 6.73852
53.1271 6.67124
53.3267 6.58321
53.5265 6.39173
53.7264 6.29416
53.9266 6.18723
54.1269 6.11601
54.3274 5.97245
54.528 5.82574
54.7289 5.6934
54.9301 5.52596
55.1314 5.36254
55.3328 5.20633
55.5344 4.96856
55.7361 4.85348

File: Ni3Fe_FD0657.xy
TT I
1.27165 7.2469
1.45013 6.22042
1.62863 5.87556
1.80712 4.8911
1.98562 4.96963
2.16411 5.18245
2.34263 5.38252
2.52115 6.52668
2.69965 7.38674
2.87818 9.07501
3.05672 11.294
3.23527 15.2964
3.4138 19.0713
3.59237 24.7175
3.77094 26.689
3.9495 30.255
4.12809 35.3531
4.30669 300.458
4.4853 74.0933
4.6639 54.9288
4.84253 66.6573
5.02118 85.7382
5.19981 324.117
5.37848 196.588
5.55716 101.505
5.73586 91.2498
5.91455 92.6888
6.09328 4215.93
6.27201 84.237
6.45075 67.7497
6.62952 63.367
6.8083 58.773
6.98711 56.1861
7.16591 56.0221
7.34475 110.431
7.5236 55.2517
7.70247 56.4296
7.88135 58.0253
8.06026 62.2394
8.23919 69.572
8.41812 85.283
8.59709 1055.57
8.77609 100.178
8.9551 94.0012
9.13412 81.9907
9.31318 81.9309
9.49226 83.9579
9.67134 102.403
9.85047 99.352
10.0296 311.482
10.2088 458.803
10.388 105.027
10.5672 482.707
10.7465 86.7288
10.9257 78.81
11.105 72.0905
11.2844 71.9198
11.4637 65.1441
11.6431 63.7353
11.8225 62.779
12.002 63.4852
12.1814 144.932
12.3609 73.6629
12.5405 64.5531
12.72 72.215
12.8996 71.065
13.0792 78.3532
13.2589 221.797
13.4386 131.546
13.6183 230.154
13.7981 101.627
13.9779 76.0666
14.1577 72.9567
14.3376 72.3504
14.5175 68.7313
14.6974 70.567
14.8774 104.944
15.0574 159.522
15.2374 72.238
15.4175 66.5332
15.5976 65.6723
15.7778 91.3196
15.958 166.473
16.1382 63.6715
16.3185 58.9715
16.4988 55.6249
16.6792 54.7039
16.8596 55.3705
17.04 55.8137
17.2205 65.5302
17.401 72.6089
17.5815 59.0135
17.7622 61.2907
17.9428 72.3241
18.1237 138.713
18.3044 88.6217
18.4852 80.606
18.666 60.5842
18.8469 58.1686
19.0278 57.0932
19.2088 59.4573
19.3898 77.489
19.5709 54.4589
19.752 53.3825
19.9332 56.0562
20.1144 69.9199
20.2957 63.0399
20.477 54.5096
20.6586 49.783
20.84 48.9516
21.0215 48.6999
21.203 50.8294
21.3846 49.141
21.5662 48.7666
21.7479 52.2623
21.9297 64.6312
22.1115 56.0875
22.2933 50.3313
22.4753 49.1832
22.6572 48.695
22.8393 51.5398
23.0214 58.0493
23.2037 48.975
23.3859 49.5318
23.5682 56.6292
23.7505 48.7421
23.9329 45.3113
24.1154 44.297
24.2979 43.4291
24.4805 42.9913
24.6631 42.7993
24.8458 42.3829
25.0286 42.7834
25.2114 44.6376
25.3943 44.7741
25.5773 41.0928
25.7605 40.5896
25.9436 41.0249
26.1268 41.9847
26.31 40.1182
26.4933 40.7298
26.6767 42.2923
26.8601 40.6555
27.0437 39.0002
27.2272 38.6817
27.4109 38.4709
27.5946 38.4932
27.7784 37.9223
27.9623 38.3554
28.1462 39.1024
28.3304 37.3636
28.5145 36.0506
28.6987 35.6455
28.8829 35.6027
29.0673 34.8602
29.2517 34.5293
29.4361 34.2147
29.6207 33.3671
29.8053 33.0362
29.99 32.6689
30.1748 32.523
30.3597 32.3512
30.5447 32.1509
30.7297 32.3829
30.915 31.7064
31.1002 31.165
31.2855 30.9512
31.4708 30.9442
31.6563 30.3574
31.8418 30.1773
32.0275 30.0514
32.2132 29.5268
32.399 29.0273
32.5848 28.4691
32.7708 28.2252
32.9569 28.0638
33.143 27.8034
33.3293 27.4535
33.5158 27.1974
33.7022 26.6788
33.8887 26.3707
34.0753 26.0793
34.262 25.658
34.4488 25.4266
34.6357 25.1322
34.8227 24.7857
35.0098 24.5183
35.1969 24.3327
35.3842 24.1889
35.5716 23.9308
35.759 23.6151
35.9468 23.2581
36.1345 23.0125
36.3222 22.7954
36.5101 22.5407
36.6981 22.3017
36.8861 21.9328
37.0743 21.5761
37.2626 21.3534
37.451 21.0438
37.6395 20.9619
37.8281 20.5337
38.0168 20.3623
38.2056 20.0464
38.3945 19.7915
38.5837 19.5151
38.7728 19.3289
38.9621 18.9582
39.1514 18.7865
39.3409 18.5418
39.5304 18.3131
39.7201 18.1138
39.9099 17.908
40.0999 17.6798
40.2899 17.4392
40.48 17.1347
40.6703 16.9814
40.8607 16.8201
41.0512 16.6296
41.242 16.3017
41.4327 16.1614
41.6236 15.9075
41.8146 15.7265
42.0057 15.5217
42.1969 15.2509
42.3882 15.0886
42.5797 14.8766
42.7713 14.7005
42.963 14.4802
43.1549 14.3113
43.3468 14.0692
43.5389 13.9243
43.7312 13.7225
43.9237 13.5202
44.1162 13.3367
44.3088 13.132
44.5016 12.9679
44.6945 12.764
44.8875 12.6211
45.0806 12.4519
45.2739 12.2886
45.4673 12.0754
45.6609 11.9067
45.8546 11.7629
46.0484 11.6266
46.2424 11.4252
46.4365 11.2744
46.631 11.0892
46.8254 10.932
47.0199 10.7628
47.2146 10.6101
47.4095 10.4776
47.6044 10.3033
47.7996 10.1289
47.9948 9.97822
48.1902 9.85618
48.3858 9.70305
48.5815 9.56256
48.7774 9.42689
48.9734 9.29498
49.1696 9.13778
49.3661 8.97732
49.5626 8.82601
49.7592 8.74336
49.956 8.61108
50.153 8.48078
50.3501 8.34728
50.5474 8.20979
50.7448 8.12223
50.9424 7.94154
51.1402 7.84356
51.3381 7.73936
51.5362 7.59982
51.7344 7.46224
51.9328 7.30474
52.1316 7.19408
52.3304 7.09168
52.5293 6.98819
52.7284 6.87322
52.9276 6.73355
53.1271 6.6461
53.3267 6.48058
53.5265 6.42117
53.7264 6.30953
53.9266 6.21227
54.1269 6.09707
54.3274 5.95844
54.528 5.79397
54.7289 5.6646
54.9301 5.52795
55.1314 5.40951
55.3328 5.18506
55.5344 4.95053
55.7361 4.83602

File: Ni3Fe_FD0658.xy
TT I
1.27165 7.63684
1.45013 6.11518
1.62863 5.06414
1.80712 4.57824
1.98562 5.13852
2.16411 4.67236
2.34263 5.04179
2.52115 6.59731
2.69965 8.33722
2.87818 8.90683
3.05672 10.9944
3.23527 15.1232
3.4138 18.8057
3.59237 24.6491
3.77094 26.572
3.9495 29.8364
4.12809 34.9676
4.30669 271.74
4.4853 71.007
4.6639 55.2518
4.84253 66.5155
5.02118 86.0292
5.19981 321.965
5.37848 192.93
5.55716 100.982
5.73586 91.5258
5.91455 92.9382
6.09328 4396.35
6.27201 83.2971
6.45075 67.1626
6.62952 63.1796
6.8083 58.7267
6.98711 56.0406
7.16591 55.4012
7.34475 103.294
7.5236 55.3766
7.70247 56.1177
7.88135 57.8048
8.06026 62.2728
8.23919 69.3412
8.41812 85.1271
8.59709 1110.17
8.77609 99.4124
8.9551 93.2851
9.13412 81.5368
9.31318 82.0346
9.49226 84.2947
9.67134 100.597
9.85047 99.6304
10.0296 315.321
10.2088 421.446
10.388 104.418
10.5672 500.468
10.7465 86.6634
10.9257 78.8183
11.105 72.1713
11.2844 71.022
11.4637 65.0218
11.6431 63.8717
11.8225 62.5457
12.002 63.2657
12.1814 147.472
12.3609 71.6764
12.5405 64.6485
12.72 71.3028
12.8996 70.6724
13.0792 78.4215
13.2589 226.423
13.4386 125.25
13.6183 236.792
13.7981 97.9331
13.9779 75.693
14.1577 72.7583
14.3376 72.002
14.5175 68.7624
14.6974 70.3339
14.8774 106.085
15.0574 153.308
15.2374 71.7015
15.4175 66.3063
15.5976 65.457
15.7778 91.7225
15.958 160.803
16.1382 63.4519
16.3185 58.876
16.4988 55.7154
16.6792 54.6793
16.8596 55.5207
17.04 55.8284
17.2205 65.7692
17.401 71.6623
17.5815 58.9849
17.7622 61.279
17.9428 72.5905
18.1237 142.151
18.3044 89.2246
18.4852 78.5804
18.666 60.5906
18.8469 58.1525
19.0278 56.8234
19.2088 59.4768
19.3898 77.6321
19.5709 54.1878
19.752 53.2833
19.9332 56.0343
20.1144 70.1558
20.2957 63.5093
20.477 53.7864
20.6586 49.641
20.84 49.0093
21.0215 48.5825
21.203 50.7814
21.3846 48.9065
21.5662 48.6431
21.7479 52.1422
21.9297 65.003
22.1115 56.2443
22.2933 50.1216
22.4753 49.1094
22.6572 48.8629
22.8393 51.5717
23.0214 57.7729
23.2037 48.7886
23.3859 49.4828
23.5682 57.132
23.7505 48.4406
23.9329 45.2504
24.1154 44.1553
24.2979 43.4827
24.4805 42.9008
24.6631 42.9223
24.8458 42.2741
25.0286 42.9056
25.2114 44.6359
25.3943 44.7878
25.5773 40.965
25.7605 40.4891
25.9436 40.8645
26.1268 41.9184
26.31 40.1122
26.4933 40.7113
26.6767 42.4145
26.8601 40.535
27.0437 39.069
27.2272 38.4951
27.4109 38.3107
27.5946 38.4314
27.7784 37.8741
27.9623 38.4139
28.1462 38.9092
28.3304 37.2679
28.5145 35.993
28.6987 35.5812
28.8829 35.3608
29.0673 34.8323
29.2517 34.3862
29.4361 34.3144
29.6207 33.2251
29.8053 32.9374
29.99 32.67
30.1748 32.5271
30.3597 32.3315
30.5447 32.1976
30.7297 32.1889
30.915 31.7307
31.1002 31.1808
31.2855 30.9474
31.4708 30.8321
31.6563 30.5562
31.8418 30.2312
32.0275 29.9745
32.2132 29.4573
32.399 29.0915
32.5848 28.5945
32.7708 28.2165
32.9569 27.9407
33.143 27.7826
33.3293 27.5113
33.5158 27.0957
33.7022 26.6843
33.8887 26.4438
34.0753 26.0596
34.262 25.7759
34.4488 25.3323
34.6357 25.022
34.8227 24.7537
35.0098 24.599
35.1969 24.267
35.3842 24.0138
35.5716 23.7838
35.759 23.5554
35.9468 23.1474
36.1345 22.9413
36.3222 22.6971
36.5101 22.4367
36.6981 22.1867
36.8861 21.8023
37.0743 21.5459
37.2626 21.3395
37.451 21.0208
37.6395 20.8654
37.8281 20.509
38.0168 20.2089
38.2056 20.0105
38.3945 19.7562
38.5837 19.4707
38.7728 19.3202
38.9621 19.0406
39.1514 18.7976
39.3409 18.5356
39.5304 18.2658
39.7201 18.1095
39.9099 17.8522
40.0999 17.599
40.2899 17.4679
40.48 17.1747
40.6703 16.9996
40.8607 16.7335
41.0512 16.5412
41.242 16.3149
41.4327 16.0499
41.6236 15.8808
41.8146 15.6591
42.0057 15.4547
42.1969 15.2399
42.3882 15.0727
42.5797 14.8582
42.7713 14.7501
42.963 14.4486
43.1549 14.2335
43.3468 14.0511
43.5389 13.9238
43.7312 13.6955
43.9237 13.4911
44.1162 13.2977
44.3088 13.1028
44.5016 12.9197
44.6945 12.7754
44.8875 12.5765
45.0806 12.458
45.2739 12.265
45.4673 12.0451
45.6609 11.8864
45.8546 11.7473
46.0484 11.5764
46.2424 11.4362
46.4365 11.228
46.631 11.0146
46.8254 10.8833
47.0199 10.7301
47.2146 10.6062
47.4095 10.4374
47.6044 10.2982
47.7996 10.1435
47.9948 9.94957
48.1902 9.85682
48.3858 9.65994
48.5815 9.55851
48.7774 9.44888
48.9734 9.30962
49.1696 9.14125
49.3661 8.96963
49.5626 8.84263
49.7592 8.74219
49.956 8.59922
50.153 8.41378
50.3501 8.31795
50.5474 8.22436
50.7448 8.07606
50.9424 7.94971
51.1402 7.82141
51.3381 7.69702
51.5362 7.59268
51.7344 7.46346
51.9328 7.35672
52.1316 7.20924
52.3304 7.1019
52.5293 6.97344
52.7284 6.86858
52.9276 6.72477
53.1271 6.64574
53.3267 6.52931
53.5265 6.42556
53.7264 6.29397
53.9266 6.16691
54.1269 6.07145
54.3274 5.91983
54.528 5.82827
54.7289 5.67564
54.9301 5.48817
55.1314 5.32311
55.3328 5.20672
55.5344 4.94154
55.7361 4.84224