Folder: NiFe_MOF_catalyst_paper/XRD (part 189)

File: Ni3Fe_FD1021.xy
TT I
1.27165 7.14467
1.45013 5.79842
1.62863 5.47516
1.80712 3.94204
1.98562 3.75087
2.16411 4.12563
2.34263 5.59664
2.52115 7.04485
2.69965 8.75138
2.87818 9.04391
3.05672 10.9155
3.23527 14.9773
3.4138 18.717
3.59237 21.2641
3.77094 24.5559
3.9495 28.3128
4.12809 31.9916
4.30669 57.441
4.4853 46.0877
4.6639 52.2292
4.84253 63.3902
5.02118 82.5093
5.19981 226.657
5.37848 232.942
5.55716 96.8534
5.73586 86.9175
5.91455 88.3454
6.09328 4345.79
6.27201 75.5373
6.45075 62.7811
6.62952 57.7851
6.8083 54.146
6.98711 52.0903
7.16591 51.229
7.34475 56.228
7.5236 61.3585
7.70247 52.9329
7.88135 54.485
8.06026 58.3077
8.23919 64.8776
8.41812 76.7604
8.59709 1055.76
8.77609 94.7077
8.9551 81.5396
9.13412 78.6004
9.31318 93.7107
9.49226 80.1617
9.67134 85.4496
9.85047 92.8024
10.0296 323.446
10.2088 451.952
10.388 96.5887
10.5672 490.928
10.7465 87.3333
10.9257 72.8171
11.105 67.5317
11.2844 64.0664
11.4637 61.4245
11.6431 60.2547
11.8225 59.2351
12.002 68.676
12.1814 143.241
12.3609 63.9076
12.5405 60.6716
12.72 63.3152
12.8996 67.0249
13.0792 76.3223
13.2589 219.922
13.4386 126.7
13.6183 229.765
13.7981 99.5421
13.9779 72.7407
14.1577 77.3193
14.3376 66.7604
14.5175 65.5765
14.6974 66.6133
14.8774 105.792
15.0574 158.055
15.2374 65.934
15.4175 63.3399
15.5976 62.5446
15.7778 90.7608
15.958 168.022
16.1382 59.7108
16.3185 55.0196
16.4988 53.1034
16.6792 51.8416
16.8596 52.3145
17.04 53.2253
17.2205 63.5909
17.401 71.0338
17.5815 56.8983
17.7622 59.5197
17.9428 71.3272
18.1237 140.749
18.3044 87.3552
18.4852 78.3258
18.666 58.4219
18.8469 55.7534
19.0278 54.5926
19.2088 57.0338
19.3898 75.6129
19.5709 52.4032
19.752 51.319
19.9332 54.2997
20.1144 69.7805
20.2957 62.7632
20.477 52.5745
20.6586 47.7025
20.84 47.3731
21.0215 46.7968
21.203 48.9601
21.3846 47.4467
21.5662 47.0179
21.7479 50.7571
21.9297 64.7017
22.1115 55.4886
22.2933 48.6529
22.4753 46.9663
22.6572 47.1011
22.8393 50.4915
23.0214 57.1171
23.2037 47.3269
23.3859 48.6749
23.5682 56.6721
23.7505 47.8512
23.9329 43.8379
24.1154 42.6903
24.2979 41.8539
24.4805 41.6487
24.6631 41.6716
24.8458 40.8482
25.0286 41.522
25.2114 43.7364
25.3943 43.9612
25.5773 39.7217
25.7605 39.268
25.9436 39.6956
26.1268 40.8518
26.31 38.9552
26.4933 39.6485
26.6767 41.4728
26.8601 39.6513
27.0437 37.8823
27.2272 37.454
27.4109 37.353
27.5946 37.608
27.7784 36.8977
27.9623 37.5902
28.1462 38.2464
28.3304 36.2866
28.5145 34.9613
28.6987 34.6579
28.8829 34.4444
29.0673 33.7597
29.2517 33.3176
29.4361 33.308
29.6207 32.2454
29.8053 31.8987
29.99 31.6919
30.1748 31.6366
30.3597 31.4397
30.5447 31.3952
30.7297 31.4475
30.915 30.8731
31.1002 30.4728
31.2855 30.0921
31.4708 30.1114
31.6563 29.6548
31.8418 29.3915
32.0275 29.305
32.2132 28.6841
32.399 28.1949
32.5848 27.8366
32.7708 27.5391
32.9569 27.2146
33.143 27.1401
33.3293 26.8604
33.5158 26.42
33.7022 25.9407
33.8887 25.7179
34.0753 25.3013
34.262 25.0054
34.4488 24.7402
34.6357 24.3337
34.8227 24.0345
35.0098 23.8096
35.1969 23.6603
35.3842 23.4747
35.5716 23.2344
35.759 22.9422
35.9468 22.5567
36.1345 22.4006
36.3222 22.1289
36.5101 21.8859
36.6981 21.5778
36.8861 21.2954
37.0743 20.9869
37.2626 20.751
37.451 20.4613
37.6395 20.2449
37.8281 19.995
38.0168 19.6829
38.2056 19.46
38.3945 19.1485
38.5837 19.0301
38.7728 18.686
38.9621 18.4521
39.1514 18.2219
39.3409 17.9758
39.5304 17.7594
39.7201 17.6367
39.9099 17.3974
40.0999 17.1626
40.2899 16.9446
40.48 16.6508
40.6703 16.4957
40.8607 16.3684
41.0512 16.1022
41.242 15.87
41.4327 15.7226
41.6236 15.4577
41.8146 15.3095
42.0057 15.0599
42.1969 14.8306
42.3882 14.69
42.5797 14.4192
42.7713 14.2533
42.963 14.0395
43.1549 13.8343
43.3468 13.693
43.5389 13.5355
43.7312 13.2662
43.9237 13.1414
44.1162 12.9354
44.3088 12.7022
44.5016 12.5954
44.6945 12.429
44.8875 12.2237
45.0806 12.0629
45.2739 11.8707
45.4673 11.7412
45.6609 11.5627
45.8546 11.428
46.0484 11.2624
46.2424 11.0893
46.4365 10.9466
46.631 10.7432
46.8254 10.5846
47.0199 10.4459
47.2146 10.2813
47.4095 10.1283
47.6044 9.94109
47.7996 9.82123
47.9948 9.70128
48.1902 9.55249
48.3858 9.44083
48.5815 9.30981
48.7774 9.11368
48.9734 9.04094
49.1696 8.89728
49.3661 8.75841
49.5626 8.6029
49.7592 8.49034
49.956 8.35493
50.153 8.23008
50.3501 8.11973
50.5474 7.98231
50.7448 7.86765
50.9424 7.75213
51.1402 7.63961
51.3381 7.46969
51.5362 7.38621
51.7344 7.25362
51.9328 7.12747
52.1316 7.02225
52.3304 6.9372
52.5293 6.80655
52.7284 6.6635
52.9276 6.53522
53.1271 6.45943
53.3267 6.31826
53.5265 6.23598
53.7264 6.14329
53.9266 6.00128
54.1269 5.88099
54.3274 5.79939
54.528 5.65467
54.7289 5.54382
54.9301 5.35514
55.1314 5.21172
55.3328 5.00662
55.5344 4.86805
55.7361 4.72582

File: Ni3Fe_FD1022.xy
TT I
1.27165 6.99188
1.45013 5.34286
1.62863 4.81413
1.80712 4.50352
1.98562 4.39126
2.16411 4.38514
2.34263 5.34762
2.52115 6.75319
2.69965 8.85613
2.87818 9.17099
3.05672 10.8528
3.23527 14.7832
3.4138 18.194
3.59237 21.4949
3.77094 24.903
3.9495 28.3596
4.12809 32.6049
4.30669 58.0885
4.4853 46.1558
4.6639 52.3207
4.84253 63.4552
5.02118 82.466
5.19981 227.187
5.37848 231.651
5.55716 96.6724
5.73586 87.3415
5.91455 88.45
6.09328 4352.1
6.27201 75.0861
6.45075 62.9731
6.62952 57.5997
6.8083 53.7218
6.98711 51.9666
7.16591 51.3202
7.34475 55.9444
7.5236 61.4611
7.70247 52.9566
7.88135 54.4554
8.06026 58.6761
8.23919 65.5109
8.41812 77.5432
8.59709 1057.32
8.77609 94.7466
8.9551 81.7121
9.13412 78.4562
9.31318 93.3123
9.49226 80.1046
9.67134 85.92
9.85047 93.033
10.0296 325.836
10.2088 453.018
10.388 96.7147
10.5672 491.62
10.7465 87.2188
10.9257 72.7464
11.105 67.4074
11.2844 64.0719
11.4637 61.3385
11.6431 59.976
11.8225 59.1325
12.002 68.5908
12.1814 143.707
12.3609 63.8995
12.5405 60.9444
12.72 63.4115
12.8996 67.0435
13.0792 76.0734
13.2589 220.168
13.4386 126.465
13.6183 230.534
13.7981 100.083
13.9779 72.9475
14.1577 77.259
14.3376 66.5166
14.5175 65.8986
14.6974 66.737
14.8774 106.028
15.0574 158.623
15.2374 65.9964
15.4175 63.4117
15.5976 62.6513
15.7778 91.1605
15.958 167.685
16.1382 59.7807
16.3185 55.0131
16.4988 53.0583
16.6792 52.0525
16.8596 52.5275
17.04 53.2694
17.2205 63.5487
17.401 71.1074
17.5815 56.7419
17.7622 59.327
17.9428 71.3703
18.1237 140.465
18.3044 87.4604
18.4852 78.4456
18.666 58.5333
18.8469 56.0193
19.0278 54.5349
19.2088 57.1665
19.3898 75.8886
19.5709 52.5896
19.752 51.3997
19.9332 54.1306
20.1144 69.502
20.2957 62.7627
20.477 52.6776
20.6586 47.85
20.84 47.5616
21.0215 46.7154
21.203 48.9751
21.3846 47.4033
21.5662 46.9694
21.7479 51.0346
21.9297 64.7651
22.1115 55.4991
22.2933 48.8212
22.4753 47.0311
22.6572 47.139
22.8393 50.6429
23.0214 57.1565
23.2037 47.55
23.3859 48.5965
23.5682 56.433
23.7505 47.8584
23.9329 43.9256
24.1154 42.7474
24.2979 42.082
24.4805 41.5544
24.6631 41.6134
24.8458 40.8945
25.0286 41.531
25.2114 43.8718
25.3943 44.0163
25.5773 39.8687
25.7605 39.3641
25.9436 39.6957
26.1268 40.9973
26.31 38.9269
26.4933 39.6241
26.6767 41.5786
26.8601 39.7011
27.0437 37.9613
27.2272 37.553
27.4109 37.367
27.5946 37.5077
27.7784 36.9692
27.9623 37.6763
28.1462 38.4323
28.3304 36.4978
28.5145 34.9743
28.6987 34.7245
28.8829 34.5487
29.0673 33.7851
29.2517 33.3712
29.4361 33.4046
29.6207 32.1455
29.8053 31.8994
29.99 31.7503
30.1748 31.6519
30.3597 31.4921
30.5447 31.2553
30.7297 31.4966
30.915 30.9372
31.1002 30.4437
31.2855 30.1014
31.4708 30.1197
31.6563 29.6677
31.8418 29.5093
32.0275 29.3258
32.2132 28.7092
32.399 28.2041
32.5848 27.8275
32.7708 27.48
32.9569 27.2633
33.143 27.1942
33.3293 26.793
33.5158 26.372
33.7022 26.0035
33.8887 25.7311
34.0753 25.3264
34.262 25.0111
34.4488 24.6993
34.6357 24.3267
34.8227 23.9972
35.0098 23.855
35.1969 23.6257
35.3842 23.458
35.5716 23.1809
35.759 22.926
35.9468 22.5809
36.1345 22.3922
36.3222 22.159
36.5101 21.9316
36.6981 21.6188
36.8861 21.3241
37.0743 20.9973
37.2626 20.7234
37.451 20.4548
37.6395 20.3378
37.8281 19.9496
38.0168 19.7046
38.2056 19.4988
38.3945 19.1776
38.5837 18.9475
38.7728 18.771
38.9621 18.4695
39.1514 18.2506
39.3409 18.0067
39.5304 17.8388
39.7201 17.5741
39.9099 17.385
40.0999 17.232
40.2899 16.9737
40.48 16.7249
40.6703 16.4926
40.8607 16.3415
41.0512 16.1213
41.242 15.816
41.4327 15.665
41.6236 15.4231
41.8146 15.3229
42.0057 15.0209
42.1969 14.8486
42.3882 14.6733
42.5797 14.4375
42.7713 14.2987
42.963 14.1024
43.1549 13.8629
43.3468 13.6447
43.5389 13.4771
43.7312 13.2476
43.9237 13.1263
44.1162 12.92
44.3088 12.7711
44.5016 12.5335
44.6945 12.4226
44.8875 12.2686
45.0806 12.049
45.2739 11.9369
45.4673 11.7196
45.6609 11.607
45.8546 11.4263
46.0484 11.2345
46.2424 11.0878
46.4365 10.9227
46.631 10.7605
46.8254 10.6168
47.0199 10.4611
47.2146 10.3121
47.4095 10.1142
47.6044 9.95291
47.7996 9.8646
47.9948 9.71767
48.1902 9.54715
48.3858 9.44198
48.5815 9.29023
48.7774 9.20463
48.9734 9.03602
49.1696 8.83426
49.3661 8.74859
49.5626 8.59605
49.7592 8.47973
49.956 8.37443
50.153 8.22197
50.3501 8.10879
50.5474 7.99041
50.7448 7.86965
50.9424 7.7414
51.1402 7.62863
51.3381 7.47594
51.5362 7.37982
51.7344 7.25294
51.9328 7.126
52.1316 7.03217
52.3304 6.91895
52.5293 6.76365
52.7284 6.66994
52.9276 6.5914
53.1271 6.44372
53.3267 6.36236
53.5265 6.22643
53.7264 6.08651
53.9266 6.00402
54.1269 5.92218
54.3274 5.8032
54.528 5.66832
54.7289 5.49272
54.9301 5.41876
55.1314 5.26941
55.3328 5.03202
55.5344 4.88689
55.7361 4.6847

File: Ni3Fe_FD1023.xy
TT I
1.27165 6.58256
1.45013 6.26142
1.62863 4.61177
1.80712 4.26239
1.98562 4.16753
2.16411 4.45512
2.34263 5.28949
2.52115 8.13019
2.69965 8.7997
2.87818 9.53365
3.05672 10.9669
3.23527 14.6966
3.4138 18.2297
3.59237 21.1314
3.77094 24.6179
3.9495 27.9274
4.12809 32.4554
4.30669 57.7204
4.4853 46.0279
4.6639 52.5484
4.84253 63.5544
5.02118 82.2585
5.19981 228.726
5.37848 230.213
5.55716 96.5153
5.73586 86.7133
5.91455 87.7117
6.09328 4381.09
6.27201 75.4195
6.45075 63.2647
6.62952 57.6598
6.8083 54.1788
6.98711 51.9171
7.16591 51.1893
7.34475 56.1546
7.5236 61.2893
7.70247 52.702
7.88135 54.4578
8.06026 58.5309
8.23919 65.2842
8.41812 77.1294
8.59709 1066.31
8.77609 94.462
8.9551 81.9857
9.13412 78.8605
9.31318 92.9858
9.49226 80.5259
9.67134 85.8552
9.85047 93.6424
10.0296 327.986
10.2088 449.1
10.388 97.0153
10.5672 493.693
10.7465 87.0457
10.9257 73.125
11.105 67.8091
11.2844 64.2898
11.4637 61.4826
11.6431 60.3396
11.8225 59.1934
12.002 68.3719
12.1814 143.899
12.3609 64.0663
12.5405 60.9848
12.72 63.5726
12.8996 67.4255
13.0792 76.2507
13.2589 221.38
13.4386 125.573
13.6183 231.111
13.7981 99.9156
13.9779 73.1836
14.1577 77.281
14.3376 66.9753
14.5175 65.9534
14.6974 66.6936
14.8774 106.647
15.0574 157.929
15.2374 66.0034
15.4175 63.4497
15.5976 62.6417
15.7778 91.6483
15.958 167.382
16.1382 59.7271
16.3185 55.2365
16.4988 53.0316
16.6792 52.1089
16.8596 52.5964
17.04 53.621
17.2205 63.8101
17.401 70.882
17.5815 56.8278
17.7622 59.8072
17.9428 71.703
18.1237 141.007
18.3044 87.8973
18.4852 78.2731
18.666 58.4464
18.8469 55.7692
19.0278 54.4337
19.2088 57.1167
19.3898 75.7633
19.5709 52.5585
19.752 51.3563
19.9332 54.3174
20.1144 69.618
20.2957 62.7868
20.477 52.6323
20.6586 47.986
20.84 47.4134
21.0215 46.9265
21.203 49.0169
21.3846 47.6021
21.5662 47.4155
21.7479 51.1366
21.9297 64.8482
22.1115 55.6545
22.2933 48.7223
22.4753 47.0839
22.6572 47.336
22.8393 50.4913
23.0214 57.1456
23.2037 47.4139
23.3859 48.7528
23.5682 56.6282
23.7505 47.7575
23.9329 44.0699
24.1154 42.7975
24.2979 42.0814
24.4805 41.5734
24.6631 41.7003
24.8458 41.014
25.0286 41.6138
25.2114 43.7092
25.3943 44.1502
25.5773 39.8995
25.7605 39.3039
25.9436 39.818
26.1268 41.0699
26.31 39.0576
26.4933 39.6788
26.6767 41.719
26.8601 39.7145
27.0437 37.9581
27.2272 37.4706
27.4109 37.537
27.5946 37.5492
27.7784 36.9661
27.9623 37.5602
28.1462 38.3017
28.3304 36.4728
28.5145 35.1018
28.6987 34.749
28.8829 34.5393
29.0673 33.975
29.2517 33.4671
29.4361 33.3557
29.6207 32.345
29.8053 31.9423
29.99 31.797
30.1748 31.6068
30.3597 31.4368
30.5447 31.4594
30.7297 31.5776
30.915 30.9881
31.1002 30.4755
31.2855 30.0958
31.4708 30.0762
31.6563 29.6599
31.8418 29.4393
32.0275 29.3081
32.2132 28.7478
32.399 28.2303
32.5848 27.6874
32.7708 27.5093
32.9569 27.3505
33.143 27.2388
33.3293 26.7801
33.5158 26.4034
33.7022 25.9937
33.8887 25.7457
34.0753 25.3535
34.262 25.052
34.4488 24.7831
34.6357 24.3697
34.8227 24.0547
35.0098 23.9378
35.1969 23.7163
35.3842 23.4845
35.5716 23.2851
35.759 22.9028
35.9468 22.6221
36.1345 22.3295
36.3222 22.1674
36.5101 21.9943
36.6981 21.5994
36.8861 21.2779
37.0743 20.9594
37.2626 20.8227
37.451 20.4805
37.6395 20.3215
37.8281 20.0177
38.0168 19.734
38.2056 19.5178
38.3945 19.2297
38.5837 19.0279
38.7728 18.7728
38.9621 18.4596
39.1514 18.2494
39.3409 18.0055
39.5304 17.8025
39.7201 17.6599
39.9099 17.4251
40.0999 17.1953
40.2899 16.957
40.48 16.7078
40.6703 16.5064
40.8607 16.3101
41.0512 16.1037
41.242 15.8861
41.4327 15.694
41.6236 15.4462
41.8146 15.2891
42.0057 15.0605
42.1969 14.8512
42.3882 14.6914
42.5797 14.5325
42.7713 14.3035
42.963 14.0937
43.1549 13.8964
43.3468 13.7139
43.5389 13.5165
43.7312 13.3135
43.9237 13.1306
44.1162 12.9625
44.3088 12.7348
44.5016 12.6144
44.6945 12.4042
44.8875 12.2251
45.0806 12.0661
45.2739 11.9164
45.4673 11.7437
45.6609 11.586
45.8546 11.412
46.0484 11.2669
46.2424 11.099
46.4365 10.9496
46.631 10.777
46.8254 10.6247
47.0199 10.4631
47.2146 10.3207
47.4095 10.1456
47.6044 10.0051
47.7996 9.85625
47.9948 9.69181
48.1902 9.54456
48.3858 9.49108
48.5815 9.33048
48.7774 9.16505
48.9734 9.0466
49.1696 8.8963
49.3661 8.75613
49.5626 8.63091
49.7592 8.46558
49.956 8.36091
50.153 8.22328
50.3501 8.08882
50.5474 7.94775
50.7448 7.89522
50.9424 7.75112
51.1402 7.64536
51.3381 7.52003
51.5362 7.39164
51.7344 7.24984
51.9328 7.14512
52.1316 6.99792
52.3304 6.88736
52.5293 6.78727
52.7284 6.68613
52.9276 6.55913
53.1271 6.45835
53.3267 6.34875
53.5265 6.22521
53.7264 6.11783
53.9266 6.06436
54.1269 5.9126
54.3274 5.81533
54.528 5.6808
54.7289 5.51925
54.9301 5.32837
55.1314 5.28447
55.3328 5.02971
55.5344 4.84047
55.7361 4.70501

File: Ni3Fe_FD1024.xy
TT I
1.27165 6.61204
1.45013 5.4066
1.62863 5.00303
1.80712 4.54434
1.98562 4.54102
2.16411 4.57704
2.34263 5.74933
2.52115 6.94228
2.69965 8.32015
2.87818 8.56707
3.05672 10.8783
3.23527 14.8376
3.4138 18.2333
3.59237 21.4663
3.77094 24.9167
3.9495 28.2726
4.12809 32.3416
4.30669 57.7739
4.4853 46.2085
4.6639 52.6694
4.84253 64.0522
5.02118 82.7337
5.19981 227.73
5.37848 229.882
5.55716 96.7577
5.73586 87.347
5.91455 87.8757
6.09328 4386.66
6.27201 75.5896
6.45075 63.2105
6.62952 57.7033
6.8083 54.2166
6.98711 52.4431
7.16591 51.4565
7.34475 55.8716
7.5236 61.2542
7.70247 52.7581
7.88135 54.5877
8.06026 58.7159
8.23919 65.5792
8.41812 76.9787
8.59709 1065.42
8.77609 94.6124
8.9551 81.8593
9.13412 78.6087
9.31318 92.6504
9.49226 80.5242
9.67134 85.8492
9.85047 93.1268
10.0296 329.09
10.2088 449.519
10.388 96.8307
10.5672 495.285
10.7465 87.217
10.9257 72.9595
11.105 67.7741
11.2844 64.3512
11.4637 61.2724
11.6431 60.0367
11.8225 59.3384
12.002 68.3824
12.1814 144.234
12.3609 64.2447
12.5405 60.9125
12.72 63.4254
12.8996 67.108
13.0792 76.4266
13.2589 221.382
13.4386 125.928
13.6183 231.49
13.7981 100.005
13.9779 72.6218
14.1577 77.0591
14.3376 66.9966
14.5175 65.873
14.6974 66.8265
14.8774 106.626
15.0574 158.269
15.2374 66.2592
15.4175 63.6348
15.5976 62.7787
15.7778 91.5516
15.958 167.126
16.1382 60.0647
16.3185 55.0991
16.4988 52.9297
16.6792 52.0968
16.8596 52.2754
17.04 53.4054
17.2205 63.7977
17.401 70.8038
17.5815 56.7519
17.7622 59.5958
17.9428 71.6837
18.1237 141.088
18.3044 87.8054
18.4852 78.355
18.666 58.4244
18.8469 55.9872
19.0278 54.5572
19.2088 57.385
19.3898 75.6498
19.5709 52.4466
19.752 51.4213
19.9332 54.438
20.1144 69.8275
20.2957 63.0065
20.477 52.7413
20.6586 48.0727
20.84 47.7004
21.0215 46.8111
21.203 49.0359
21.3846 47.4953
21.5662 47.1143
21.7479 51.1948
21.9297 64.9843
22.1115 55.6432
22.2933 48.7497
22.4753 47.0944
22.6572 47.2767
22.8393 50.6442
23.0214 57.3506
23.2037 47.3655
23.3859 48.7714
23.5682 56.8474
23.7505 47.936
23.9329 43.8488
24.1154 42.7474
24.2979 42.0512
24.4805 41.7329
24.6631 41.7292
24.8458 40.9412
25.0286 41.6407
25.2114 43.8058
25.3943 44.0303
25.5773 39.8849
25.7605 39.3229
25.9436 39.6246
26.1268 40.995
26.31 39.1462
26.4933 39.7192
26.6767 41.5766
26.8601 39.762
27.0437 37.9857
27.2272 37.5234
27.4109 37.4831
27.5946 37.6107
27.7784 37.1107
27.9623 37.7098
28.1462 38.4594
28.3304 36.6058
28.5145 35.0743
28.6987 34.7337
28.8829 34.5434
29.0673 33.7979
29.2517 33.4346
29.4361 33.3922
29.6207 32.2934
29.8053 31.9273
29.99 31.8123
30.1748 31.6836
30.3597 31.4718
30.5447 31.4782
30.7297 31.5366
30.915 30.8691
31.1002 30.4388
31.2855 30.1163
31.4708 30.2086
31.6563 29.7852
31.8418 29.4495
32.0275 29.3243
32.2132 28.6703
32.399 28.2178
32.5848 27.8573
32.7708 27.5272
32.9569 27.358
33.143 27.1087
33.3293 26.8188
33.5158 26.3907
33.7022 25.987
33.8887 25.6896
34.0753 25.3127
34.262 25.0492
34.4488 24.6644
34.6357 24.373
34.8227 24.0826
35.0098 23.9196
35.1969 23.6598
35.3842 23.4316
35.5716 23.319
35.759 22.9614
35.9468 22.6269
36.1345 22.4191
36.3222 22.1405
36.5101 21.8792
36.6981 21.6645
36.8861 21.3351
37.0743 21.0213
37.2626 20.7577
37.451 20.5082
37.6395 20.4662
37.8281 20.0563
38.0168 19.6972
38.2056 19.5255
38.3945 19.2037
38.5837 19.0432
38.7728 18.8278
38.9621 18.5833
39.1514 18.3062
39.3409 18.047
39.5304 17.8002
39.7201 17.6673
39.9099 17.4712
40.0999 17.1831
40.2899 16.8874
40.48 16.7434
40.6703 16.5713
40.8607 16.3215
41.0512 16.1062
41.242 15.9146
41.4327 15.6931
41.6236 15.5102
41.8146 15.315
42.0057 15.0934
42.1969 14.8739
42.3882 14.6491
42.5797 14.5375
42.7713 14.305
42.963 14.0594
43.1549 13.9304
43.3468 13.6617
43.5389 13.5277
43.7312 13.2747
43.9237 13.1592
44.1162 12.9873
44.3088 12.8035
44.5016 12.5917
44.6945 12.3935
44.8875 12.2352
45.0806 12.0897
45.2739 11.9005
45.4673 11.7555
45.6609 11.5826
45.8546 11.422
46.0484 11.2728
46.2424 11.1059
46.4365 10.9466
46.631 10.7916
46.8254 10.6496
47.0199 10.4627
47.2146 10.3271
47.4095 10.1571
47.6044 10.0238
47.7996 9.84491
47.9948 9.71272
48.1902 9.58816
48.3858 9.43629
48.5815 9.32048
48.7774 9.14615
48.9734 9.0407
49.1696 8.90262
49.3661 8.754
49.5626 8.59987
49.7592 8.46443
49.956 8.35694
50.153 8.23756
50.3501 8.07247
50.5474 8.03762
50.7448 7.84792
50.9424 7.74592
51.1402 7.63334
51.3381 7.49898
51.5362 7.40671
51.7344 7.28337
51.9328 7.16119
52.1316 6.97913
52.3304 6.90451
52.5293 6.79947
52.7284 6.71103
52.9276 6.56691
53.1271 6.5061
53.3267 6.41159
53.5265 6.25039
53.7264 6.16397
53.9266 6.05041
54.1269 5.92827
54.3274 5.77912
54.528 5.69293
54.7289 5.52106
54.9301 5.38307
55.1314 5.27439
55.3328 5.05471
55.5344 4.89679
55.7361 4.73838

File: Ni3Fe_FD1025.xy
TT I
1.27165 6.95388
1.45013 5.61452
1.62863 4.90023
1.80712 4.58391
1.98562 4.24504
2.16411 4.90315
2.34263 5.75755
2.52115 7.22306
2.69965 8.72169
2.87818 9.23995
3.05672 11.3348
3.23527 15.2716
3.4138 18.0841
3.59237 21.6168
3.77094 24.5785
3.9495 28.2296
4.12809 32.0997
4.30669 57.8733
4.4853 46.1653
4.6639 52.6293
4.84253 63.6966
5.02118 82.8535
5.19981 228.239
5.37848 229.462
5.55716 96.9563
5.73586 87.148
5.91455 88.2951
6.09328 4391.85
6.27201 75.7454
6.45075 62.8894
6.62952 57.8041
6.8083 54.3729
6.98711 52.2824
7.16591 51.7614
7.34475 56.3564
7.5236 61.0379
7.70247 52.6306
7.88135 54.439
8.06026 58.812
8.23919 65.2281
8.41812 77.3413
8.59709 1065.14
8.77609 94.7897
8.9551 81.7429
9.13412 78.91
9.31318 92.2674
9.49226 80.5468
9.67134 85.5725
9.85047 93.0512
10.0296 330.371
10.2088 448.985
10.388 97.0467
10.5672 496.354
10.7465 87.162
10.9257 72.9585
11.105 67.7231
11.2844 64.5158
11.4637 61.3682
11.6431 60.0267
11.8225 59.5117
12.002 68.0297
12.1814 144.104
12.3609 64.1379
12.5405 60.9586
12.72 63.4346
12.8996 66.9298
13.0792 76.17
13.2589 221.523
13.4386 126.471
13.6183 232.211
13.7981 100.018
13.9779 72.9316
14.1577 76.9204
14.3376 66.5987
14.5175 66.1193
14.6974 66.9776
14.8774 106.606
15.0574 158.616
15.2374 65.918
15.4175 63.5982
15.5976 62.8651
15.7778 91.9545
15.958 167.536
16.1382 59.7627
16.3185 55.3094
16.4988 53.0719
16.6792 52.0537
16.8596 52.2181
17.04 53.4797
17.2205 63.9998
17.401 70.994
17.5815 56.9245
17.7622 59.6195
17.9428 71.835
18.1237 141.087
18.3044 87.7378
18.4852 78.5811
18.666 58.4723
18.8469 56.1388
19.0278 54.6126
19.2088 57.2915
19.3898 76.0654
19.5709 52.3795
19.752 51.3352
19.9332 54.5923
20.1144 69.8157
20.2957 62.7651
20.477 52.5861
20.6586 48.0431
20.84 47.5546
21.0215 46.8512
21.203 49.1524
21.3846 47.5439
21.5662 47.0529
21.7479 51.0907
21.9297 64.9997
22.1115 55.6498
22.2933 48.7361
22.4753 47.0409
22.6572 47.2885
22.8393 50.8165
23.0214 57.1207
23.2037 47.4214
23.3859 48.9074
23.5682 56.7283
23.7505 47.9661
23.9329 44.0554
24.1154 42.8621
24.2979 42.1197
24.4805 41.6479
24.6631 41.6455
24.8458 41.12
25.0286 41.6903
25.2114 44.0349
25.3943 44.0788
25.5773 39.9023
25.7605 39.2813
25.9436 39.8495
26.1268 41.0514
26.31 39.1456
26.4933 39.7438
26.6767 41.6657
26.8601 39.8592
27.0437 38.0205
27.2272 37.5997
27.4109 37.5134
27.5946 37.6946
27.7784 36.8576
27.9623 37.7263
28.1462 38.4021
28.3304 36.5077
28.5145 35.1396
28.6987 34.7602
28.8829 34.5856
29.0673 33.9071
29.2517 33.5087
29.4361 33.4135
29.6207 32.3653
29.8053 32.053
29.99 31.7509
30.1748 31.7132
30.3597 31.4468
30.5447 31.4063
30.7297 31.58
30.915 30.8649
31.1002 30.5043
31.2855 30.2265
31.4708 30.1969
31.6563 29.7766
31.8418 29.524
32.0275 29.3077
32.2132 28.6677
32.399 28.2882
32.5848 27.7703
32.7708 27.435
32.9569 27.3988
33.143 27.2611
33.3293 26.8573
33.5158 26.4503
33.7022 25.9912
33.8887 25.7573
34.0753 25.3389
34.262 25.0047
34.4488 24.7173
34.6357 24.4352
34.8227 24.1015
35.0098 24.0046
35.1969 23.6225
35.3842 23.4238
35.5716 23.2873
35.759 23.0143
35.9468 22.6632
36.1345 22.3916
36.3222 22.2275
36.5101 21.9245
36.6981 21.6159
36.8861 21.2997
37.0743 21.0043
37.2626 20.7659
37.451 20.5353
37.6395 20.3469
37.8281 19.9911
38.0168 19.7254
38.2056 19.5071
38.3945 19.276
38.5837 18.9991
38.7728 18.8302
38.9621 18.538
39.1514 18.2702
39.3409 18.0284
39.5304 17.802
39.7201 17.6219
39.9099 17.3998
40.0999 17.1771
40.2899 17.0079
40.48 16.7206
40.6703 16.5409
40.8607 16.3421
41.0512 16.149
41.242 15.8871
41.4327 15.7504
41.6236 15.4654
41.8146 15.3125
42.0057 15.0869
42.1969 14.8946
42.3882 14.7532
42.5797 14.5135
42.7713 14.307
42.963 14.0836
43.1549 13.9651
43.3468 13.7103
43.5389 13.5103
43.7312 13.3474
43.9237 13.2011
44.1162 12.9867
44.3088 12.7937
44.5016 12.638
44.6945 12.4346
44.8875 12.2596
45.0806 12.0939
45.2739 11.9334
45.4673 11.7501
45.6609 11.6241
45.8546 11.4346
46.0484 11.2962
46.2424 11.0956
46.4365 10.9956
46.631 10.7345
46.8254 10.6075
47.0199 10.4998
47.2146 10.3264
47.4095 10.1459
47.6044 10.0278
47.7996 9.89743
47.9948 9.71332
48.1902 9.57812
48.3858 9.44031
48.5815 9.30145
48.7774 9.15773
48.9734 9.02755
49.1696 8.9038
49.3661 8.76935
49.5626 8.59146
49.7592 8.48972
49.956 8.38331
50.153 8.28147
50.3501 8.11672
50.5474 7.99911
50.7448 7.85098
50.9424 7.75191
51.1402 7.63404
51.3381 7.53684
51.5362 7.42068
51.7344 7.27456
51.9328 7.14844
52.1316 7.03215
52.3304 6.9162
52.5293 6.80193
52.7284 6.66749
52.9276 6.56883
53.1271 6.53217
53.3267 6.37939
53.5265 6.23734
53.7264 6.12392
53.9266 6.03443
54.1269 5.91489
54.3274 5.84595
54.528 5.67608
54.7289 5.51776
54.9301 5.33173
55.1314 5.24654
55.3328 5.04681
55.5344 4.85798
55.7361 4.73503