Folder: NiFe_MOF_catalyst_paper/XRD (part 168)

File: Ni3Fe_FD0912.xy
TT I
1.27165 7.40865
1.45013 6.17799
1.62863 5.18037
1.80712 4.28841
1.98562 4.94738
2.16411 4.57383
2.34263 5.34824
2.52115 7.61294
2.69965 8.77841
2.87818 8.75691
3.05672 11.1088
3.23527 14.8092
3.4138 18.8856
3.59237 23.3175
3.77094 25.5305
3.9495 29.4931
4.12809 34.8252
4.30669 124.384
4.4853 56.0634
4.6639 54.9889
4.84253 67.409
5.02118 86.5087
5.19981 353.109
5.37848 179.844
5.55716 100.824
5.73586 91.3733
5.91455 93.2494
6.09328 4722.49
6.27201 79.785
6.45075 68.0395
6.62952 62.0689
6.8083 58.4382
6.98711 54.803
7.16591 55.1633
7.34475 71.7179
7.5236 53.5931
7.70247 56.0139
7.88135 56.8388
8.06026 61.7206
8.23919 68.5472
8.41812 83.2174
8.59709 1214.62
8.77609 96.0435
8.9551 88.5367
9.13412 81.167
9.31318 82.6832
9.49226 83.4806
9.67134 94.6218
9.85047 99.5209
10.0296 333.937
10.2088 319.791
10.388 102.966
10.5672 555.174
10.7465 84.7928
10.9257 76.9034
11.105 70.4787
11.2844 68.0014
11.4637 63.9336
11.6431 62.5977
11.8225 61.7132
12.002 63.1706
12.1814 157.994
12.3609 66.171
12.5405 63.7969
12.72 67.3115
12.8996 70.4477
13.0792 78.751
13.2589 245.034
13.4386 113.234
13.6183 257.611
13.7981 91.4199
13.9779 74.7853
14.1577 70.8023
14.3376 69.6141
14.5175 67.968
14.6974 69.504
14.8774 110.109
15.0574 136.211
15.2374 68.7557
15.4175 65.4575
15.5976 64.8788
15.7778 93.9644
15.958 143.27
16.1382 60.6006
16.3185 57.0094
16.4988 54.4343
16.6792 53.5625
16.8596 53.9856
17.04 54.9577
17.2205 66.1807
17.401 67.3223
17.5815 58.2331
17.7622 60.3998
17.9428 72.2708
18.1237 140.075
18.3044 90.574
18.4852 72.9125
18.666 59.1036
18.8469 57.0602
19.0278 55.788
19.2088 58.4333
19.3898 75.3504
19.5709 53.2327
19.752 52.4161
19.9332 55.4786
20.1144 69.3968
20.2957 63.7668
20.477 51.8469
20.6586 48.6885
20.84 47.8923
21.0215 47.8791
21.203 50.2324
21.3846 48.0604
21.5662 48.0513
21.7479 51.9088
21.9297 63.9877
22.1115 55.5018
22.2933 48.7656
22.4753 47.839
22.6572 48.071
22.8393 51.1493
23.0214 56.0898
23.2037 47.7984
23.3859 48.904
23.5682 56.8082
23.7505 47.0036
23.9329 44.4197
24.1154 43.3212
24.2979 42.7097
24.4805 42.2153
24.6631 42.1048
24.8458 41.5366
25.0286 42.1881
25.2114 43.874
25.3943 43.7054
25.5773 40.1649
25.7605 39.7692
25.9436 40.1199
26.1268 40.9831
26.31 39.3787
26.4933 40.1719
26.6767 41.494
26.8601 39.6963
27.0437 38.1802
27.2272 37.7699
27.4109 37.9418
27.5946 37.7561
27.7784 37.277
27.9623 37.8912
28.1462 38.1668
28.3304 36.4328
28.5145 35.3734
28.6987 35.032
28.8829 34.8175
29.0673 33.9883
29.2517 33.7872
29.4361 33.54
29.6207 32.5991
29.8053 32.2222
29.99 32.0643
30.1748 31.9531
30.3597 31.7713
30.5447 31.6497
30.7297 31.7262
30.915 30.9758
31.1002 30.6587
31.2855 30.3169
31.4708 30.3139
31.6563 29.8085
31.8418 29.5458
32.0275 29.3211
32.2132 28.9264
32.399 28.4384
32.5848 28.0918
32.7708 27.5761
32.9569 27.5428
33.143 27.3515
33.3293 26.8694
33.5158 26.5744
33.7022 26.1516
33.8887 25.8334
34.0753 25.5678
34.262 25.2522
34.4488 24.8223
34.6357 24.4441
34.8227 24.234
35.0098 24.017
35.1969 23.831
35.3842 23.5897
35.5716 23.3666
35.759 23.1052
35.9468 22.7165
36.1345 22.5179
36.3222 22.2727
36.5101 22.0501
36.6981 21.6932
36.8861 21.4196
37.0743 21.1323
37.2626 20.9108
37.451 20.5822
37.6395 20.4484
37.8281 20.086
38.0168 19.8887
38.2056 19.6798
38.3945 19.2838
38.5837 19.1265
38.7728 18.8752
38.9621 18.6223
39.1514 18.4307
39.3409 18.129
39.5304 17.8888
39.7201 17.7465
39.9099 17.5466
40.0999 17.2354
40.2899 17.0831
40.48 16.779
40.6703 16.696
40.8607 16.4027
41.0512 16.2384
41.242 15.9582
41.4327 15.795
41.6236 15.6374
41.8146 15.4205
42.0057 15.1721
42.1969 14.9723
42.3882 14.756
42.5797 14.5637
42.7713 14.4381
42.963 14.1334
43.1549 13.9458
43.3468 13.8101
43.5389 13.5905
43.7312 13.3613
43.9237 13.2257
44.1162 13.0243
44.3088 12.9152
44.5016 12.6542
44.6945 12.5529
44.8875 12.3491
45.0806 12.1303
45.2739 12.0057
45.4673 11.8375
45.6609 11.6237
45.8546 11.526
46.0484 11.3202
46.2424 11.1384
46.4365 11.0524
46.631 10.8696
46.8254 10.688
47.0199 10.5267
47.2146 10.384
47.4095 10.2162
47.6044 10.0612
47.7996 9.93104
47.9948 9.77153
48.1902 9.61877
48.3858 9.48422
48.5815 9.37358
48.7774 9.26946
48.9734 9.08515
49.1696 8.94746
49.3661 8.81233
49.5626 8.67992
49.7592 8.52409
49.956 8.42747
50.153 8.28727
50.3501 8.1715
50.5474 8.02707
50.7448 7.93337
50.9424 7.78769
51.1402 7.7096
51.3381 7.55944
51.5362 7.4514
51.7344 7.33464
51.9328 7.16881
52.1316 7.06884
52.3304 6.92087
52.5293 6.8602
52.7284 6.73451
52.9276 6.58651
53.1271 6.50479
53.3267 6.36556
53.5265 6.2627
53.7264 6.17257
53.9266 6.10246
54.1269 5.96119
54.3274 5.83656
54.528 5.67808
54.7289 5.56474
54.9301 5.34229
55.1314 5.24822
55.3328 5.09046
55.5344 4.93257
55.7361 4.74266

File: Ni3Fe_FD0913.xy
TT I
1.27165 7.39907
1.45013 5.75689
1.62863 5.452
1.80712 5.11726
1.98562 4.40544
2.16411 4.6156
2.34263 5.59596
2.52115 7.6343
2.69965 7.97647
2.87818 9.10657
3.05672 11.2661
3.23527 15.4701
3.4138 18.6364
3.59237 23.2047
3.77094 25.8944
3.9495 28.9773
4.12809 33.9399
4.30669 123.562
4.4853 55.5316
4.6639 54.828
4.84253 67.1434
5.02118 86.0784
5.19981 352.83
5.37848 182.818
5.55716 100.67
5.73586 90.8268
5.91455 93.1519
6.09328 4605.45
6.27201 78.722
6.45075 67.793
6.62952 61.765
6.8083 58.2153
6.98711 54.9119
7.16591 55.0185
7.34475 71.4573
7.5236 53.5322
7.70247 55.8336
7.88135 56.9754
8.06026 61.8248
8.23919 68.5704
8.41812 83.0453
8.59709 1194.61
8.77609 95.495
8.9551 88.5578
9.13412 81.1542
9.31318 82.8996
9.49226 83.7649
9.67134 94.7355
9.85047 98.9905
10.0296 328.967
10.2088 325.157
10.388 102.818
10.5672 540.673
10.7465 84.6752
10.9257 76.6254
11.105 70.2738
11.2844 67.4628
11.4637 63.734
11.6431 62.2671
11.8225 61.5098
12.002 62.9301
12.1814 157.266
12.3609 66.2285
12.5405 63.6987
12.72 67.3363
12.8996 70.0578
13.0792 78.4946
13.2589 243.812
13.4386 113.791
13.6183 257.281
13.7981 91.5663
13.9779 74.4366
14.1577 70.6988
14.3376 69.5759
14.5175 67.5778
14.6974 69.3464
14.8774 109.447
15.0574 138.136
15.2374 68.7406
15.4175 65.2517
15.5976 64.7752
15.7778 93.1973
15.958 145.889
16.1382 60.6977
16.3185 56.9415
16.4988 54.465
16.6792 53.4706
16.8596 54.14
17.04 54.9612
17.2205 65.8596
17.401 67.4413
17.5815 58.1981
17.7622 60.2376
17.9428 72.0254
18.1237 139.635
18.3044 90.4439
18.4852 73.2731
18.666 59.2729
18.8469 57.0347
19.0278 55.9412
19.2088 58.3164
19.3898 74.981
19.5709 53.1108
19.752 52.1513
19.9332 55.1953
20.1144 69.4714
20.2957 64.0194
20.477 51.8913
20.6586 48.6544
20.84 48.0353
21.0215 47.7191
21.203 50.2531
21.3846 47.9699
21.5662 48.0994
21.7479 51.7342
21.9297 64.2533
22.1115 55.4088
22.2933 48.7891
22.4753 47.9066
22.6572 48.0704
22.8393 51.1311
23.0214 56.0451
23.2037 47.9484
23.3859 48.9857
23.5682 56.9408
23.7505 46.824
23.9329 44.4223
24.1154 43.3868
24.2979 42.6816
24.4805 42.1848
24.6631 41.9228
24.8458 41.5226
25.0286 42.2856
25.2114 44.0185
25.3943 43.7629
25.5773 40.2147
25.7605 39.7609
25.9436 40.1758
26.1268 41.014
26.31 39.4288
26.4933 40.1603
26.6767 41.5039
26.8601 39.7596
27.0437 38.109
27.2272 37.817
27.4109 37.731
27.5946 37.7668
27.7784 37.2732
27.9623 37.9419
28.1462 38.0807
28.3304 36.4596
28.5145 35.2912
28.6987 34.9446
28.8829 34.9027
29.0673 33.9555
29.2517 33.7314
29.4361 33.5077
29.6207 32.6146
29.8053 32.2845
29.99 32.0552
30.1748 31.971
30.3597 31.6691
30.5447 31.5914
30.7297 31.7324
30.915 30.9126
31.1002 30.6465
31.2855 30.3612
31.4708 30.3333
31.6563 29.7882
31.8418 29.6231
32.0275 29.444
32.2132 28.9124
32.399 28.4324
32.5848 28.1304
32.7708 27.6412
32.9569 27.5361
33.143 27.3014
33.3293 26.9967
33.5158 26.5936
33.7022 26.1228
33.8887 25.8588
34.0753 25.4985
34.262 25.2699
34.4488 24.7722
34.6357 24.5362
34.8227 24.2519
35.0098 24.1454
35.1969 23.7754
35.3842 23.6366
35.5716 23.3265
35.759 23.1471
35.9468 22.7769
36.1345 22.5538
36.3222 22.262
36.5101 22.049
36.6981 21.7549
36.8861 21.3945
37.0743 21.1719
37.2626 20.896
37.451 20.6678
37.6395 20.4701
37.8281 20.1662
38.0168 19.8519
38.2056 19.5694
38.3945 19.335
38.5837 19.144
38.7728 18.8772
38.9621 18.6873
39.1514 18.392
39.3409 18.129
39.5304 17.9689
39.7201 17.8027
39.9099 17.5196
40.0999 17.332
40.2899 17.0942
40.48 16.8292
40.6703 16.6466
40.8607 16.4687
41.0512 16.1641
41.242 15.9794
41.4327 15.8152
41.6236 15.5491
41.8146 15.3796
42.0057 15.1418
42.1969 14.9608
42.3882 14.8252
42.5797 14.5632
42.7713 14.3414
42.963 14.2028
43.1549 13.9601
43.3468 13.7555
43.5389 13.5651
43.7312 13.4228
43.9237 13.2065
44.1162 13.0663
44.3088 12.8774
44.5016 12.7009
44.6945 12.5046
44.8875 12.3809
45.0806 12.1636
45.2739 11.9554
45.4673 11.808
45.6609 11.6254
45.8546 11.4938
46.0484 11.3136
46.2424 11.148
46.4365 11.0378
46.631 10.816
46.8254 10.6261
47.0199 10.5359
47.2146 10.3607
47.4095 10.2506
47.6044 10.0859
47.7996 9.91609
47.9948 9.75028
48.1902 9.64653
48.3858 9.50922
48.5815 9.36034
48.7774 9.18891
48.9734 9.09093
49.1696 8.93711
49.3661 8.77846
49.5626 8.65648
49.7592 8.57752
49.956 8.4274
50.153 8.31962
50.3501 8.17028
50.5474 8.06572
50.7448 7.93708
50.9424 7.76708
51.1402 7.67539
51.3381 7.54736
51.5362 7.42734
51.7344 7.29351
51.9328 7.18671
52.1316 7.0662
52.3304 6.96748
52.5293 6.84021
52.7284 6.72606
52.9276 6.5894
53.1271 6.49754
53.3267 6.36299
53.5265 6.26489
53.7264 6.19284
53.9266 6.07792
54.1269 5.95431
54.3274 5.85909
54.528 5.70701
54.7289 5.56841
54.9301 5.42035
55.1314 5.29475
55.3328 5.06955
55.5344 4.94451
55.7361 4.70842

File: Ni3Fe_FD0914.xy
TT I
1.27165 7.68596
1.45013 6.23458
1.62863 4.9181
1.80712 4.86034
1.98562 4.55613
2.16411 4.44529
2.34263 5.86439
2.52115 7.1884
2.69965 8.6274
2.87818 8.84996
3.05672 11.1442
3.23527 14.9352
3.4138 18.4983
3.59237 22.9037
3.77094 25.5329
3.9495 29.4467
4.12809 34.1732
4.30669 121.067
4.4853 55.2327
4.6639 54.9428
4.84253 67.5901
5.02118 85.9042
5.19981 355.547
5.37848 183.064
5.55716 100.656
5.73586 91.4633
5.91455 93.1807
6.09328 4621.23
6.27201 79.2982
6.45075 68.0458
6.62952 61.9623
6.8083 58.3934
6.98711 55.0557
7.16591 54.8653
7.34475 70.6134
7.5236 53.6153
7.70247 55.9881
7.88135 57.1223
8.06026 61.9348
8.23919 68.3511
8.41812 82.6604
8.59709 1198.92
8.77609 96.2266
8.9551 88.6159
9.13412 81.6112
9.31318 82.9691
9.49226 83.4773
9.67134 94.9066
9.85047 99.5079
10.0296 329.008
10.2088 321.864
10.388 103.022
10.5672 542.806
10.7465 84.6331
10.9257 76.7887
11.105 70.3454
11.2844 67.7756
11.4637 63.6146
11.6431 62.465
11.8225 61.4614
12.002 63.3338
12.1814 157.963
12.3609 66.1329
12.5405 63.8906
12.72 67.1918
12.8996 70.1401
13.0792 78.8704
13.2589 244.974
13.4386 113.67
13.6183 258.166
13.7981 91.549
13.9779 74.5978
14.1577 70.8701
14.3376 69.4952
14.5175 67.6182
14.6974 69.6311
14.8774 110.044
15.0574 137.383
15.2374 68.6771
15.4175 65.47
15.5976 64.7479
15.7778 93.244
15.958 145.263
16.1382 60.5776
16.3185 56.8589
16.4988 54.3689
16.6792 53.412
16.8596 53.8353
17.04 54.8696
17.2205 65.7776
17.401 67.5933
17.5815 58.1862
17.7622 60.5094
17.9428 72.2827
18.1237 139.438
18.3044 90.7066
18.4852 72.9116
18.666 59.1881
18.8469 56.9914
19.0278 55.8319
19.2088 58.1989
19.3898 74.8602
19.5709 53.0644
19.752 52.4104
19.9332 55.1508
20.1144 69.4564
20.2957 63.8624
20.477 51.8867
20.6586 48.711
20.84 47.9252
21.0215 47.8726
21.203 50.3831
21.3846 48.0296
21.5662 48.0433
21.7479 51.9821
21.9297 64.2469
22.1115 55.5717
22.2933 48.8105
22.4753 47.8201
22.6572 48.0614
22.8393 51.3654
23.0214 56.221
23.2037 47.8976
23.3859 48.8789
23.5682 57.0066
23.7505 47.0389
23.9329 44.4975
24.1154 43.5154
24.2979 42.6311
24.4805 42.257
24.6631 42.0411
24.8458 41.5631
25.0286 42.2045
25.2114 44.0565
25.3943 43.7169
25.5773 40.1105
25.7605 39.8008
25.9436 40.1977
26.1268 41.034
26.31 39.4804
26.4933 40.0771
26.6767 41.6342
26.8601 39.8847
27.0437 38.2137
27.2272 38.0186
27.4109 37.8514
27.5946 37.744
27.7784 37.2042
27.9623 37.9461
28.1462 38.2124
28.3304 36.3552
28.5145 35.338
28.6987 35.0447
28.8829 34.8961
29.0673 34.0951
29.2517 33.6771
29.4361 33.605
29.6207 32.5749
29.8053 32.3028
29.99 32.0082
30.1748 31.8508
30.3597 31.6623
30.5447 31.6651
30.7297 31.675
30.915 31.0331
31.1002 30.6114
31.2855 30.3196
31.4708 30.3896
31.6563 29.8412
31.8418 29.6273
32.0275 29.4097
32.2132 28.8409
32.399 28.4788
32.5848 28.0352
32.7708 27.7761
32.9569 27.6353
33.143 27.4037
33.3293 26.9005
33.5158 26.5895
33.7022 26.1959
33.8887 25.9337
34.0753 25.5131
34.262 25.1811
34.4488 24.88
34.6357 24.5345
34.8227 24.2904
35.0098 24.1123
35.1969 23.7731
35.3842 23.6025
35.5716 23.4479
35.759 23.0515
35.9468 22.723
36.1345 22.4723
36.3222 22.3022
36.5101 22.0276
36.6981 21.7333
36.8861 21.4224
37.0743 21.123
37.2626 20.863
37.451 20.6308
37.6395 20.4887
37.8281 20.1396
38.0168 19.8836
38.2056 19.6229
38.3945 19.3463
38.5837 19.1459
38.7728 18.8742
38.9621 18.6802
39.1514 18.3884
39.3409 18.1482
39.5304 17.9587
39.7201 17.7701
39.9099 17.5216
40.0999 17.2888
40.2899 17.0559
40.48 16.714
40.6703 16.6094
40.8607 16.469
41.0512 16.2673
41.242 15.9566
41.4327 15.7796
41.6236 15.553
41.8146 15.3499
42.0057 15.1475
42.1969 14.9733
42.3882 14.7921
42.5797 14.5981
42.7713 14.3593
42.963 14.1673
43.1549 14.0098
43.3468 13.7454
43.5389 13.6281
43.7312 13.3973
43.9237 13.2339
44.1162 13.0298
44.3088 12.8392
44.5016 12.6721
44.6945 12.4529
44.8875 12.3351
45.0806 12.2094
45.2739 11.9689
45.4673 11.853
45.6609 11.6041
45.8546 11.4991
46.0484 11.2866
46.2424 11.1591
46.4365 11.0239
46.631 10.8652
46.8254 10.7295
47.0199 10.5329
47.2146 10.3665
47.4095 10.1983
47.6044 10.0625
47.7996 9.88979
47.9948 9.79513
48.1902 9.61339
48.3858 9.49295
48.5815 9.36454
48.7774 9.22798
48.9734 9.07246
49.1696 8.93708
49.3661 8.77302
49.5626 8.64896
49.7592 8.57676
49.956 8.44455
50.153 8.27696
50.3501 8.15821
50.5474 8.01752
50.7448 7.91738
50.9424 7.80134
51.1402 7.70053
51.3381 7.52403
51.5362 7.4171
51.7344 7.31529
51.9328 7.21691
52.1316 7.07016
52.3304 6.98798
52.5293 6.85122
52.7284 6.70944
52.9276 6.65832
53.1271 6.51442
53.3267 6.39697
53.5265 6.28807
53.7264 6.17989
53.9266 6.09923
54.1269 5.96382
54.3274 5.85705
54.528 5.68565
54.7289 5.58861
54.9301 5.44893
55.1314 5.2383
55.3328 5.02961
55.5344 4.82688
55.7361 4.72675

File: Ni3Fe_FD0915.xy
TT I
1.27165 7.65277
1.45013 5.53984
1.62863 5.13827
1.80712 4.46969
1.98562 4.49302
2.16411 4.26045
2.34263 5.44262
2.52115 6.90226
2.69965 9.08911
2.87818 8.80483
3.05672 11.2284
3.23527 15.1928
3.4138 18.9478
3.59237 23.2123
3.77094 26.1679
3.9495 29.5702
4.12809 33.9484
4.30669 117.528
4.4853 55.2754
4.6639 54.8039
4.84253 67.6853
5.02118 86.2658
5.19981 358.852
5.37848 183.48
5.55716 100.833
5.73586 91.585
5.91455 93.4342
6.09328 4734.72
6.27201 79.376
6.45075 68.5047
6.62952 62.2591
6.8083 58.6382
6.98711 55.114
7.16591 55.1957
7.34475 69.6773
7.5236 53.66
7.70247 56.0347
7.88135 57.2399
8.06026 61.7493
8.23919 68.5783
8.41812 83.1675
8.59709 1214.48
8.77609 96.1482
8.9551 89.0788
9.13412 81.8588
9.31318 83.2033
9.49226 83.6505
9.67134 94.7603
9.85047 99.7503
10.0296 332.942
10.2088 317.115
10.388 103.094
10.5672 553.252
10.7465 84.8415
10.9257 76.8998
11.105 70.1808
11.2844 67.8801
11.4637 63.8993
11.6431 62.7272
11.8225 61.7817
12.002 63.163
12.1814 158.105
12.3609 66.0455
12.5405 63.9167
12.72 67.1031
12.8996 70.3201
13.0792 78.953
13.2589 245.849
13.4386 113.644
13.6183 258.922
13.7981 91.1314
13.9779 74.5922
14.1577 70.9786
14.3376 69.5931
14.5175 67.8338
14.6974 69.6861
14.8774 110.185
15.0574 135.912
15.2374 68.5624
15.4175 65.218
15.5976 65.0163
15.7778 93.8995
15.958 143.643
16.1382 60.7104
16.3185 57.1737
16.4988 54.4622
16.6792 53.7513
16.8596 53.9752
17.04 55.0825
17.2205 66.2123
17.401 67.3594
17.5815 58.1609
17.7622 60.3573
17.9428 72.3596
18.1237 139.664
18.3044 90.8435
18.4852 72.6678
18.666 59.3336
18.8469 57.1071
19.0278 55.7569
19.2088 58.3155
19.3898 74.9965
19.5709 53.1016
19.752 52.3796
19.9332 55.2202
20.1144 69.1201
20.2957 64.2251
20.477 51.9909
20.6586 48.8332
20.84 47.8929
21.0215 47.6985
21.203 50.3027
21.3846 47.9765
21.5662 48.1222
21.7479 51.8834
21.9297 64.0986
22.1115 55.3885
22.2933 48.7547
22.4753 48.0017
22.6572 48.15
22.8393 51.3236
23.0214 56.0466
23.2037 47.9433
23.3859 48.9577
23.5682 56.7575
23.7505 46.8857
23.9329 44.323
24.1154 43.2765
24.2979 42.7446
24.4805 42.3221
24.6631 42.1293
24.8458 41.5211
25.0286 42.108
25.2114 43.9861
25.3943 43.7391
25.5773 40.079
25.7605 39.8368
25.9436 40.0872
26.1268 40.9396
26.31 39.3274
26.4933 40.0473
26.6767 41.5704
26.8601 39.6874
27.0437 38.1945
27.2272 37.9946
27.4109 37.8075
27.5946 37.8156
27.7784 37.3694
27.9623 37.9456
28.1462 38.1059
28.3304 36.4265
28.5145 35.2836
28.6987 35.1231
28.8829 34.7776
29.0673 33.9922
29.2517 33.7752
29.4361 33.6005
29.6207 32.6188
29.8053 32.3258
29.99 32.0514
30.1748 31.9199
30.3597 31.6263
30.5447 31.5836
30.7297 31.6481
30.915 31.0721
31.1002 30.6085
31.2855 30.3406
31.4708 30.3229
31.6563 29.8248
31.8418 29.6935
32.0275 29.4962
32.2132 28.8321
32.399 28.4263
32.5848 27.9877
32.7708 27.7341
32.9569 27.5755
33.143 27.3915
33.3293 26.9451
33.5158 26.5814
33.7022 26.1126
33.8887 25.8582
34.0753 25.497
34.262 25.2116
34.4488 24.8394
34.6357 24.4928
34.8227 24.2472
35.0098 24.0443
35.1969 23.8329
35.3842 23.6082
35.5716 23.3168
35.759 22.9758
35.9468 22.7914
36.1345 22.5052
36.3222 22.3258
36.5101 22.0876
36.6981 21.7546
36.8861 21.4288
37.0743 21.1103
37.2626 20.8961
37.451 20.6197
37.6395 20.4572
37.8281 20.1132
38.0168 19.8549
38.2056 19.6531
38.3945 19.3659
38.5837 19.1136
38.7728 18.8715
38.9621 18.6005
39.1514 18.3472
39.3409 18.18
39.5304 17.9078
39.7201 17.7137
39.9099 17.5204
40.0999 17.2792
40.2899 17.0487
40.48 16.7951
40.6703 16.5826
40.8607 16.4696
41.0512 16.1871
41.242 15.9417
41.4327 15.809
41.6236 15.5822
41.8146 15.341
42.0057 15.1865
42.1969 14.9606
42.3882 14.8072
42.5797 14.5578
42.7713 14.3533
42.963 14.1578
43.1549 13.9993
43.3468 13.7638
43.5389 13.6224
43.7312 13.3847
43.9237 13.2466
44.1162 13.0305
44.3088 12.8824
44.5016 12.6578
44.6945 12.4764
44.8875 12.3403
45.0806 12.1161
45.2739 11.9862
45.4673 11.8611
45.6609 11.6924
45.8546 11.5066
46.0484 11.3001
46.2424 11.1287
46.4365 11.0598
46.631 10.8285
46.8254 10.6489
47.0199 10.5518
47.2146 10.3872
47.4095 10.2247
47.6044 10.0493
47.7996 9.86286
47.9948 9.75154
48.1902 9.63576
48.3858 9.50608
48.5815 9.39391
48.7774 9.22548
48.9734 9.09841
49.1696 8.94596
49.3661 8.79092
49.5626 8.69882
49.7592 8.53622
49.956 8.39322
50.153 8.26095
50.3501 8.16136
50.5474 8.04454
50.7448 7.91369
50.9424 7.79226
51.1402 7.68426
51.3381 7.54253
51.5362 7.43143
51.7344 7.28828
51.9328 7.10234
52.1316 7.01667
52.3304 6.98409
52.5293 6.84466
52.7284 6.75033
52.9276 6.61156
53.1271 6.51449
53.3267 6.40709
53.5265 6.3123
53.7264 6.18351
53.9266 6.10009
54.1269 5.96914
54.3274 5.89966
54.528 5.71846
54.7289 5.57689
54.9301 5.3747
55.1314 5.24722
55.3328 5.09927
55.5344 4.8775
55.7361 4.74524

File: Ni3Fe_FD0916.xy
TT I
1.27165 6.91112
1.45013 5.54916
1.62863 4.59374
1.80712 4.29185
1.98562 5.12411
2.16411 4.87564
2.34263 6.3703
2.52115 7.2446
2.69965 8.31054
2.87818 8.92943
3.05672 11.5943
3.23527 14.9298
3.4138 18.7021
3.59237 23.6268
3.77094 25.8737
3.9495 29.6178
4.12809 33.5982
4.30669 117.701
4.4853 55.0826
4.6639 54.8088
4.84253 67.7553
5.02118 85.7839
5.19981 355.976
5.37848 185.151
5.55716 100.264
5.73586 91.0738
5.91455 93.265
6.09328 4619.11
6.27201 78.9096
6.45075 68.4933
6.62952 62.1983
6.8083 58.3951
6.98711 54.8378
7.16591 55.1041
7.34475 70.3415
7.5236 53.6249
7.70247 55.8238
7.88135 56.6938
8.06026 61.8075
8.23919 68.3665
8.41812 82.6478
8.59709 1201.59
8.77609 95.4541
8.9551 88.7713
9.13412 81.7123
9.31318 83.1414
9.49226 83.7026
9.67134 94.1978
9.85047 99.8039
10.0296 328.189
10.2088 323.82
10.388 102.916
10.5672 544.464
10.7465 84.7635
10.9257 76.6093
11.105 70.1391
11.2844 67.606
11.4637 63.755
11.6431 62.3082
11.8225 61.3965
12.002 62.9327
12.1814 158.375
12.3609 66.2037
12.5405 63.9258
12.72 67.0053
12.8996 70.1868
13.0792 78.4897
13.2589 244.406
13.4386 114.093
13.6183 257.901
13.7981 91.7547
13.9779 74.4371
14.1577 70.8249
14.3376 69.4975
14.5175 67.8155
14.6974 69.4569
14.8774 110.036
15.0574 137.499
15.2374 68.3064
15.4175 65.3232
15.5976 64.8415
15.7778 93.6096
15.958 146.464
16.1382 60.4352
16.3185 56.8654
16.4988 54.4642
16.6792 53.3858
16.8596 53.9683
17.04 54.6629
17.2205 65.8671
17.401 67.4189
17.5815 58.1428
17.7622 60.1465
17.9428 72.2327
18.1237 139.771
18.3044 90.6964
18.4852 72.9937
18.666 59.1735
18.8469 56.985
19.0278 55.7366
19.2088 58.2031
19.3898 74.9044
19.5709 52.7805
19.752 52.486
19.9332 55.1216
20.1144 69.4046
20.2957 64.1342
20.477 51.8208
20.6586 48.7353
20.84 47.9718
21.0215 47.8291
21.203 50.1202
21.3846 47.8605
21.5662 48.1721
21.7479 51.7989
21.9297 64.3259
22.1115 55.4421
22.2933 48.7663
22.4753 47.7945
22.6572 48.2063
22.8393 51.2405
23.0214 56.0728
23.2037 47.7093
23.3859 48.8627
23.5682 56.793
23.7505 47.021
23.9329 44.4307
24.1154 43.4198
24.2979 42.5854
24.4805 42.282
24.6631 42.0109
24.8458 41.4467
25.0286 42.2163
25.2114 43.9352
25.3943 43.8558
25.5773 40.082
25.7605 39.6907
25.9436 40.1899
26.1268 40.9252
26.31 39.3394
26.4933 40.0462
26.6767 41.3905
26.8601 39.6419
27.0437 38.1546
27.2272 37.9495
27.4109 37.8328
27.5946 37.6872
27.7784 37.2308
27.9623 37.7806
28.1462 38.1064
28.3304 36.5318
28.5145 35.2482
28.6987 34.998
28.8829 34.8283
29.0673 34.0208
29.2517 33.7975
29.4361 33.5931
29.6207 32.5899
29.8053 32.3173
29.99 32.0594
30.1748 32.0006
30.3597 31.6125
30.5447 31.643
30.7297 31.7337
30.915 31.0035
31.1002 30.5754
31.2855 30.3847
31.4708 30.3297
31.6563 29.8429
31.8418 29.5952
32.0275 29.451
32.2132 28.774
32.399 28.3698
32.5848 27.9459
32.7708 27.688
32.9569 27.4457
33.143 27.3833
33.3293 26.9569
33.5158 26.5181
33.7022 26.1368
33.8887 25.8555
34.0753 25.5036
34.262 25.1714
34.4488 24.9052
34.6357 24.5435
34.8227 24.2955
35.0098 24.1122
35.1969 23.7458
35.3842 23.5806
35.5716 23.3519
35.759 23.0326
35.9468 22.7896
36.1345 22.5364
36.3222 22.2568
36.5101 22.0702
36.6981 21.7085
36.8861 21.4812
37.0743 21.1264
37.2626 20.9149
37.451 20.6815
37.6395 20.4611
37.8281 20.1246
38.0168 19.9023
38.2056 19.6227
38.3945 19.4119
38.5837 19.1543
38.7728 18.8419
38.9621 18.6128
39.1514 18.3856
39.3409 18.1586
39.5304 17.9026
39.7201 17.7514
39.9099 17.506
40.0999 17.2199
40.2899 17.1387
40.48 16.7527
40.6703 16.6319
40.8607 16.4847
41.0512 16.2187
41.242 15.9755
41.4327 15.7934
41.6236 15.561
41.8146 15.3846
42.0057 15.201
42.1969 14.9807
42.3882 14.7769
42.5797 14.5849
42.7713 14.3747
42.963 14.1528
43.1549 13.9642
43.3468 13.8262
43.5389 13.5589
43.7312 13.4636
43.9237 13.2093
44.1162 12.9884
44.3088 12.8587
44.5016 12.6446
44.6945 12.5108
44.8875 12.3823
45.0806 12.1411
45.2739 11.9639
45.4673 11.8543
45.6609 11.6631
45.8546 11.4888
46.0484 11.3071
46.2424 11.1488
46.4365 11.0193
46.631 10.8289
46.8254 10.6688
47.0199 10.5318
47.2146 10.3831
47.4095 10.2109
47.6044 10.0494
47.7996 9.89942
47.9948 9.74028
48.1902 9.6254
48.3858 9.53562
48.5815 9.36019
48.7774 9.25057
48.9734 9.10037
49.1696 8.94862
49.3661 8.76433
49.5626 8.63722
49.7592 8.4974
49.956 8.41646
50.153 8.30613
50.3501 8.13951
50.5474 8.03078
50.7448 7.92733
50.9424 7.7808
51.1402 7.65884
51.3381 7.5496
51.5362 7.38465
51.7344 7.28056
51.9328 7.1606
52.1316 7.08107
52.3304 6.92051
52.5293 6.78398
52.7284 6.70978
52.9276 6.60747
53.1271 6.54403
53.3267 6.33777
53.5265 6.26556
53.7264 6.13193
53.9266 6.08343
54.1269 5.9475
54.3274 5.83884
54.528 5.68564
54.7289 5.54819
54.9301 5.39256
55.1314 5.28328
55.3328 5.10855
55.5344 4.85729
55.7361 4.76243