Folder: NiFe_MOF_catalyst_paper/XRD (part 159)

File: Ni3Fe_FD0863.xy
TT I
1.27165 7.19661
1.45013 6.41957
1.62863 5.36868
1.80712 5.19072
1.98562 5.17423
2.16411 4.67554
2.34263 6.05253
2.52115 8.01588
2.69965 7.97622
2.87818 8.88233
3.05672 11.5451
3.23527 14.9928
3.4138 19.2717
3.59237 23.6792
3.77094 26.1897
3.9495 29.8812
4.12809 34.7243
4.30669 229.828
4.4853 66.6626
4.6639 54.2608
4.84253 65.8886
5.02118 85.2065
5.19981 294.405
5.37848 177.42
5.55716 100.494
5.73586 90.0753
5.91455 90.9244
6.09328 4383.87
6.27201 81.843
6.45075 66.7178
6.62952 62.1554
6.8083 58.0616
6.98711 55.2385
7.16591 54.7
7.34475 93.0138
7.5236 54.0757
7.70247 55.4401
7.88135 57.1109
8.06026 61.5332
8.23919 68.4838
8.41812 83.4245
8.59709 1140.36
8.77609 97.3457
8.9551 91.1157
9.13412 80.5955
9.31318 81.4267
9.49226 83.4277
9.67134 97.6644
9.85047 98.0973
10.0296 302.894
10.2088 401.722
10.388 102.882
10.5672 519.971
10.7465 85.252
10.9257 77.6315
11.105 70.9262
11.2844 69.7159
11.4637 64.1504
11.6431 62.6443
11.8225 61.7318
12.002 62.3727
12.1814 151.498
12.3609 70.1769
12.5405 63.6652
12.72 69.4031
12.8996 69.737
13.0792 78.2842
13.2589 228.845
13.4386 123.038
13.6183 244.604
13.7981 95.6363
13.9779 74.8526
14.1577 71.3016
14.3376 70.8615
14.5175 67.6652
14.6974 69.2982
14.8774 105.381
15.0574 145.983
15.2374 70.492
15.4175 65.4419
15.5976 64.6606
15.7778 90.6979
15.958 155.401
16.1382 61.9953
16.3185 57.9274
16.4988 54.8194
16.6792 53.8493
16.8596 54.6295
17.04 54.7713
17.2205 65.4899
17.401 70.2724
17.5815 58.2572
17.7622 60.1957
17.9428 71.2053
18.1237 138.395
18.3044 89.6944
18.4852 76.6541
18.666 59.8376
18.8469 57.2416
19.0278 56.1203
19.2088 58.3505
19.3898 76.1663
19.5709 53.4136
19.752 52.6203
19.9332 55.2469
20.1144 68.8594
20.2957 63.7286
20.477 53.0118
20.6586 49.0136
20.84 48.1637
21.0215 47.8785
21.203 50.4487
21.3846 48.4203
21.5662 48.0928
21.7479 51.6552
21.9297 63.7271
22.1115 55.5753
22.2933 49.188
22.4753 48.2844
22.6572 48.1248
22.8393 51.1047
23.0214 56.6736
23.2037 48.2331
23.3859 48.7881
23.5682 56.5734
23.7505 47.5256
23.9329 44.5417
24.1154 43.5807
24.2979 42.9521
24.4805 42.39
24.6631 42.3262
24.8458 41.6285
25.0286 42.2016
25.2114 44.0364
25.3943 43.9916
25.5773 40.2972
25.7605 39.9536
25.9436 40.3306
26.1268 41.1758
26.31 39.4958
26.4933 40.1613
26.6767 41.5717
26.8601 39.9126
27.0437 38.3294
27.2272 37.9427
27.4109 37.9892
27.5946 37.888
27.7784 37.328
27.9623 37.8711
28.1462 38.3991
28.3304 36.5776
28.5145 35.6653
28.6987 35.1601
28.8829 35.0289
29.0673 34.1861
29.2517 33.8982
29.4361 33.6622
29.6207 32.7055
29.8053 32.4972
29.99 32.132
30.1748 32.0527
30.3597 31.7314
30.5447 31.7127
30.7297 31.7067
30.915 31.2222
31.1002 30.7267
31.2855 30.43
31.4708 30.4004
31.6563 30.0461
31.8418 29.8493
32.0275 29.519
32.2132 29.0278
32.399 28.6843
32.5848 28.0673
32.7708 27.7503
32.9569 27.6075
33.143 27.3989
33.3293 27.1012
33.5158 26.6873
33.7022 26.2657
33.8887 25.9813
34.0753 25.6832
34.262 25.3544
34.4488 25.0127
34.6357 24.6719
34.8227 24.4679
35.0098 24.2136
35.1969 23.9489
35.3842 23.6817
35.5716 23.4763
35.759 23.1425
35.9468 22.8931
36.1345 22.6289
36.3222 22.3294
36.5101 22.1865
36.6981 21.7533
36.8861 21.5332
37.0743 21.1567
37.2626 21.0359
37.451 20.7105
37.6395 20.6261
37.8281 20.2495
38.0168 19.9875
38.2056 19.766
38.3945 19.3849
38.5837 19.2589
38.7728 19.0299
38.9621 18.7312
39.1514 18.4975
39.3409 18.2783
39.5304 17.987
39.7201 17.8707
39.9099 17.5728
40.0999 17.4223
40.2899 17.2176
40.48 16.9014
40.6703 16.7397
40.8607 16.5561
41.0512 16.3381
41.242 16.0855
41.4327 15.8652
41.6236 15.6651
41.8146 15.4802
42.0057 15.2765
42.1969 15.0512
42.3882 14.8891
42.5797 14.6715
42.7713 14.4833
42.963 14.261
43.1549 14.1145
43.3468 13.8279
43.5389 13.6864
43.7312 13.4252
43.9237 13.3037
44.1162 13.1282
44.3088 12.9626
44.5016 12.7291
44.6945 12.592
44.8875 12.4015
45.0806 12.2109
45.2739 12.0786
45.4673 11.9241
45.6609 11.708
45.8546 11.5713
46.0484 11.4181
46.2424 11.2457
46.4365 11.0709
46.631 10.8669
46.8254 10.7457
47.0199 10.5733
47.2146 10.4504
47.4095 10.3102
47.6044 10.09
47.7996 10.0102
47.9948 9.81983
48.1902 9.67789
48.3858 9.54511
48.5815 9.42885
48.7774 9.28954
48.9734 9.10722
49.1696 8.99215
49.3661 8.858
49.5626 8.71262
49.7592 8.59625
49.956 8.50163
50.153 8.31698
50.3501 8.197
50.5474 8.06085
50.7448 7.98062
50.9424 7.83028
51.1402 7.70633
51.3381 7.59045
51.5362 7.47654
51.7344 7.33851
51.9328 7.20387
52.1316 7.10046
52.3304 6.97239
52.5293 6.88051
52.7284 6.73434
52.9276 6.64437
53.1271 6.53751
53.3267 6.42038
53.5265 6.29459
53.7264 6.21799
53.9266 6.10475
54.1269 6.00531
54.3274 5.87229
54.528 5.73755
54.7289 5.61935
54.9301 5.42307
55.1314 5.22823
55.3328 5.10189
55.5344 4.94881
55.7361 4.75541

File: Ni3Fe_FD0864.xy
TT I
1.27165 6.98827
1.45013 6.12698
1.62863 5.4426
1.80712 4.75155
1.98562 4.70351
2.16411 5.0964
2.34263 4.99309
2.52115 7.2812
2.69965 8.11235
2.87818 8.83789
3.05672 11.5237
3.23527 15.5851
3.4138 18.9969
3.59237 24.2133
3.77094 26.3533
3.9495 29.5203
4.12809 34.8138
4.30669 233.102
4.4853 66.5382
4.6639 54.2107
4.84253 65.9951
5.02118 84.4591
5.19981 292.304
5.37848 177.191
5.55716 99.6187
5.73586 90.4153
5.91455 91.0039
6.09328 4350.05
6.27201 81.3486
6.45075 66.519
6.62952 62.4786
6.8083 57.9281
6.98711 55.4045
7.16591 54.8215
7.34475 93.4394
7.5236 54.0505
7.70247 55.6466
7.88135 56.9959
8.06026 61.4456
8.23919 68.8262
8.41812 83.5722
8.59709 1129.7
8.77609 97.7085
8.9551 90.3559
9.13412 80.833
9.31318 81.3387
9.49226 82.9046
9.67134 97.7937
9.85047 97.9503
10.0296 301.308
10.2088 405.182
10.388 102.423
10.5672 521.641
10.7465 85.1235
10.9257 77.6627
11.105 71.0873
11.2844 69.7303
11.4637 64.3207
11.6431 62.9259
11.8225 61.6241
12.002 62.281
12.1814 150.371
12.3609 70.2241
12.5405 63.7214
12.72 69.1641
12.8996 69.9917
13.0792 78.5305
13.2589 228.259
13.4386 122.531
13.6183 242.944
13.7981 95.9246
13.9779 74.4752
14.1577 71.2381
14.3376 70.6744
14.5175 67.6356
14.6974 69.2068
14.8774 105.032
15.0574 147.146
15.2374 70.2101
15.4175 65.199
15.5976 64.5963
15.7778 90.3935
15.958 155.853
16.1382 61.7867
16.3185 57.9771
16.4988 54.6336
16.6792 53.6846
16.8596 54.374
17.04 54.8948
17.2205 65.1948
17.401 70.3582
17.5815 58.254
17.7622 60.2619
17.9428 71.3737
18.1237 138.719
18.3044 89.4181
18.4852 76.7198
18.666 59.6209
18.8469 57.1282
19.0278 56.0022
19.2088 58.2262
19.3898 76.0744
19.5709 53.3865
19.752 52.5082
19.9332 55.3007
20.1144 69.0381
20.2957 63.6905
20.477 53.009
20.6586 48.8002
20.84 48.1318
21.0215 47.8117
21.203 50.253
21.3846 48.2689
21.5662 47.9988
21.7479 51.5118
21.9297 63.7292
22.1115 55.7319
22.2933 49.2201
22.4753 48.1083
22.6572 48.0567
22.8393 50.9952
23.0214 56.7174
23.2037 48.0673
23.3859 48.7667
23.5682 56.3611
23.7505 47.7868
23.9329 44.5876
24.1154 43.4906
24.2979 42.8926
24.4805 42.4025
24.6631 42.1167
24.8458 41.6839
25.0286 42.2333
25.2114 43.9682
25.3943 44.0712
25.5773 40.5536
25.7605 39.8376
25.9436 40.2521
26.1268 41.1288
26.31 39.5528
26.4933 40.1156
26.6767 41.6085
26.8601 39.8436
27.0437 38.3284
27.2272 37.972
27.4109 37.8225
27.5946 37.9343
27.7784 37.1499
27.9623 37.915
28.1462 38.2377
28.3304 36.7034
28.5145 35.4856
28.6987 35.1369
28.8829 35.0664
29.0673 34.3332
29.2517 33.9419
29.4361 33.8675
29.6207 32.7083
29.8053 32.4503
29.99 32.1242
30.1748 32.0024
30.3597 31.821
30.5447 31.766
30.7297 31.8086
30.915 31.2643
31.1002 30.7817
31.2855 30.4408
31.4708 30.3384
31.6563 30.0241
31.8418 29.7065
32.0275 29.46
32.2132 29.0517
32.399 28.5522
32.5848 28.0808
32.7708 27.8096
32.9569 27.6759
33.143 27.4125
33.3293 26.997
33.5158 26.6644
33.7022 26.2191
33.8887 25.9803
34.0753 25.6888
34.262 25.4188
34.4488 24.974
34.6357 24.6311
34.8227 24.357
35.0098 24.2471
35.1969 23.8168
35.3842 23.6705
35.5716 23.4414
35.759 23.0824
35.9468 22.8195
36.1345 22.6576
36.3222 22.3758
36.5101 22.2039
36.6981 21.8569
36.8861 21.5392
37.0743 21.1837
37.2626 20.9732
37.451 20.7707
37.6395 20.5601
37.8281 20.2831
38.0168 19.9341
38.2056 19.7341
38.3945 19.4175
38.5837 19.1553
38.7728 18.9021
38.9621 18.7543
39.1514 18.5063
39.3409 18.2457
39.5304 18.0055
39.7201 17.8454
39.9099 17.6444
40.0999 17.3411
40.2899 17.1366
40.48 16.9318
40.6703 16.6735
40.8607 16.5698
41.0512 16.3652
41.242 16.0519
41.4327 15.8453
41.6236 15.6551
41.8146 15.4563
42.0057 15.2433
42.1969 15.0596
42.3882 14.877
42.5797 14.6189
42.7713 14.4566
42.963 14.2472
43.1549 14.0923
43.3468 13.7893
43.5389 13.6545
43.7312 13.4915
43.9237 13.3191
44.1162 13.0686
44.3088 12.9266
44.5016 12.7252
44.6945 12.551
44.8875 12.413
45.0806 12.2377
45.2739 12.0585
45.4673 11.8841
45.6609 11.7068
45.8546 11.5526
46.0484 11.3858
46.2424 11.2531
46.4365 11.0553
46.631 10.8848
46.8254 10.7005
47.0199 10.5954
47.2146 10.4675
47.4095 10.2682
47.6044 10.1338
47.7996 9.99369
47.9948 9.7865
48.1902 9.67396
48.3858 9.54
48.5815 9.40685
48.7774 9.27632
48.9734 9.12657
49.1696 9.00912
49.3661 8.86717
49.5626 8.68665
49.7592 8.58145
49.956 8.44646
50.153 8.37001
50.3501 8.22775
50.5474 8.08621
50.7448 7.97
50.9424 7.84926
51.1402 7.72324
51.3381 7.57715
51.5362 7.45404
51.7344 7.33923
51.9328 7.17023
52.1316 7.10577
52.3304 6.99976
52.5293 6.87077
52.7284 6.7262
52.9276 6.64061
53.1271 6.54652
53.3267 6.45232
53.5265 6.28678
53.7264 6.16391
53.9266 6.11398
54.1269 6.0111
54.3274 5.87582
54.528 5.74514
54.7289 5.60452
54.9301 5.43786
55.1314 5.31591
55.3328 5.05532
55.5344 4.91847
55.7361 4.73021

File: Ni3Fe_FD0865.xy
TT I
1.27165 6.83227
1.45013 6.03485
1.62863 5.30611
1.80712 4.52402
1.98562 4.19566
2.16411 4.82973
2.34263 5.94343
2.52115 7.28043
2.69965 8.77315
2.87818 8.54759
3.05672 10.922
3.23527 15.2884
3.4138 19.0831
3.59237 23.9494
3.77094 26.3191
3.9495 29.756
4.12809 34.7208
4.30669 233.682
4.4853 67.1455
4.6639 54.6516
4.84253 65.8461
5.02118 85.1704
5.19981 292.692
5.37848 177.738
5.55716 100.021
5.73586 90.4576
5.91455 91.0443
6.09328 4318.45
6.27201 81.5747
6.45075 66.18
6.62952 62.1388
6.8083 57.9626
6.98711 55.1144
7.16591 54.9102
7.34475 93.979
7.5236 54.4023
7.70247 55.6328
7.88135 57.2751
8.06026 61.368
8.23919 68.5107
8.41812 83.6897
8.59709 1132.11
8.77609 97.2618
8.9551 91.0287
9.13412 80.8539
9.31318 80.9628
9.49226 83.0348
9.67134 98.3785
9.85047 97.7875
10.0296 302.191
10.2088 405.019
10.388 102.726
10.5672 522.685
10.7465 85.0646
10.9257 77.5564
11.105 71.0364
11.2844 69.7396
11.4637 63.9684
11.6431 62.4806
11.8225 61.801
12.002 62.2084
12.1814 150.095
12.3609 70.1454
12.5405 63.6886
12.72 69.5055
12.8996 69.6601
13.0792 78.3663
13.2589 228.616
13.4386 123.042
13.6183 243.24
13.7981 96.0122
13.9779 74.5957
14.1577 71.5718
14.3376 70.6633
14.5175 67.735
14.6974 69.2112
14.8774 105.065
15.0574 146.182
15.2374 70.3127
15.4175 65.3695
15.5976 64.8753
15.7778 90.4155
15.958 155.23
16.1382 62.0468
16.3185 57.9955
16.4988 54.702
16.6792 53.7363
16.8596 54.5042
17.04 54.8071
17.2205 65.1768
17.401 70.213
17.5815 58.3556
17.7622 60.178
17.9428 70.8551
18.1237 138.476
18.3044 89.3166
18.4852 76.6378
18.666 59.4606
18.8469 57.1712
19.0278 56.1158
19.2088 58.2646
19.3898 76.0942
19.5709 53.3359
19.752 52.5054
19.9332 55.0434
20.1144 68.932
20.2957 63.7712
20.477 53.2433
20.6586 48.9564
20.84 48.2266
21.0215 47.8868
21.203 50.3179
21.3846 48.3803
21.5662 47.9525
21.7479 51.6404
21.9297 63.861
22.1115 55.6105
22.2933 49.1817
22.4753 48.3335
22.6572 48.0149
22.8393 51.0788
23.0214 56.5593
23.2037 48.0169
23.3859 48.6509
23.5682 56.4985
23.7505 47.7101
23.9329 44.5839
24.1154 43.4996
24.2979 42.804
24.4805 42.409
24.6631 42.3475
24.8458 41.5879
25.0286 42.173
25.2114 44.1232
25.3943 44.07
25.5773 40.4115
25.7605 39.7832
25.9436 40.3127
26.1268 41.1679
26.31 39.5758
26.4933 40.1824
26.6767 41.5884
26.8601 39.9284
27.0437 38.3763
27.2272 37.9226
27.4109 37.7734
27.5946 37.7601
27.7784 37.2938
27.9623 37.9338
28.1462 38.3534
28.3304 36.6419
28.5145 35.3853
28.6987 35.0605
28.8829 34.9183
29.0673 34.2507
29.2517 33.8482
29.4361 33.7541
29.6207 32.7163
29.8053 32.5062
29.99 32.073
30.1748 32.1183
30.3597 31.7577
30.5447 31.747
30.7297 31.7306
30.915 31.264
31.1002 30.6884
31.2855 30.5139
31.4708 30.4208
31.6563 29.9904
31.8418 29.7087
32.0275 29.592
32.2132 29.038
32.399 28.6267
32.5848 28.1346
32.7708 27.7636
32.9569 27.5898
33.143 27.4347
33.3293 26.97
33.5158 26.6938
33.7022 26.2238
33.8887 26.0017
34.0753 25.5811
34.262 25.3743
34.4488 24.9682
34.6357 24.6923
34.8227 24.342
35.0098 24.2069
35.1969 23.8408
35.3842 23.6814
35.5716 23.5149
35.759 23.2012
35.9468 22.8454
36.1345 22.6216
36.3222 22.4096
36.5101 22.1323
36.6981 21.7475
36.8861 21.5431
37.0743 21.218
37.2626 21.0265
37.451 20.7698
37.6395 20.5605
37.8281 20.2398
38.0168 20.0053
38.2056 19.7105
38.3945 19.4351
38.5837 19.1875
38.7728 18.9678
38.9621 18.7268
39.1514 18.5117
39.3409 18.2163
39.5304 18.0251
39.7201 17.8465
39.9099 17.6256
40.0999 17.3723
40.2899 17.1577
40.48 16.9238
40.6703 16.7091
40.8607 16.5193
41.0512 16.3217
41.242 16.0207
41.4327 15.8507
41.6236 15.6042
41.8146 15.5043
42.0057 15.2208
42.1969 15.0364
42.3882 14.8347
42.5797 14.652
42.7713 14.4456
42.963 14.2518
43.1549 14.0743
43.3468 13.855
43.5389 13.6597
43.7312 13.4294
43.9237 13.2788
44.1162 13.1415
44.3088 12.9286
44.5016 12.7644
44.6945 12.5706
44.8875 12.3884
45.0806 12.1841
45.2739 12.0392
45.4673 11.8917
45.6609 11.6607
45.8546 11.5783
46.0484 11.4268
46.2424 11.2291
46.4365 11.1005
46.631 10.8895
46.8254 10.6925
47.0199 10.5415
47.2146 10.4787
47.4095 10.2239
47.6044 10.0982
47.7996 9.99106
47.9948 9.81337
48.1902 9.6811
48.3858 9.56321
48.5815 9.40213
48.7774 9.27061
48.9734 9.12506
49.1696 9.00009
49.3661 8.84454
49.5626 8.71556
49.7592 8.59909
49.956 8.47602
50.153 8.35288
50.3501 8.18436
50.5474 8.05978
50.7448 7.98795
50.9424 7.83297
51.1402 7.71108
51.3381 7.57799
51.5362 7.44484
51.7344 7.34622
51.9328 7.2344
52.1316 7.1065
52.3304 6.99432
52.5293 6.87808
52.7284 6.7762
52.9276 6.60617
53.1271 6.50847
53.3267 6.4361
53.5265 6.23944
53.7264 6.20943
53.9266 6.10348
54.1269 6.00168
54.3274 5.89404
54.528 5.80683
54.7289 5.53465
54.9301 5.44347
55.1314 5.28253
55.3328 5.09756
55.5344 4.90144
55.7361 4.80004

File: Ni3Fe_FD0866.xy
TT I
1.27165 7.43801
1.45013 5.88152
1.62863 5.4153
1.80712 4.52922
1.98562 4.98532
2.16411 4.96292
2.34263 6.34265
2.52115 7.36717
2.69965 8.48122
2.87818 8.98371
3.05672 10.9944
3.23527 15.5332
3.4138 18.9311
3.59237 24.0446
3.77094 26.2
3.9495 29.2855
4.12809 35.5471
4.30669 233.867
4.4853 66.8699
4.6639 54.9004
4.84253 66.2514
5.02118 84.5356
5.19981 294.41
5.37848 177.406
5.55716 100.461
5.73586 90.6809
5.91455 91.3039
6.09328 4327.84
6.27201 81.6882
6.45075 66.9121
6.62952 62.3146
6.8083 58.2019
6.98711 55.3862
7.16591 54.7744
7.34475 93.8594
7.5236 54.5235
7.70247 55.5142
7.88135 57.2211
8.06026 61.374
8.23919 68.8852
8.41812 84.011
8.59709 1135.89
8.77609 97.6889
8.9551 90.9707
9.13412 80.4137
9.31318 81.2924
9.49226 83.3429
9.67134 97.9041
9.85047 98.1119
10.0296 302.828
10.2088 398.336
10.388 102.863
10.5672 527.576
10.7465 85.2662
10.9257 77.7692
11.105 70.9613
11.2844 70.1481
11.4637 64.0634
11.6431 62.8169
11.8225 61.8137
12.002 62.5429
12.1814 150.051
12.3609 70.0773
12.5405 63.5963
12.72 69.1963
12.8996 69.9376
13.0792 78.0655
13.2589 228.662
13.4386 122.237
13.6183 243.053
13.7981 95.9228
13.9779 74.7939
14.1577 71.4695
14.3376 70.8672
14.5175 67.9627
14.6974 69.2741
14.8774 105.377
15.0574 145.361
15.2374 70.4208
15.4175 65.4114
15.5976 64.8104
15.7778 90.4035
15.958 153.994
16.1382 62.008
16.3185 58.2277
16.4988 54.5928
16.6792 53.8436
16.8596 54.583
17.04 54.9316
17.2205 65.2044
17.401 70.2224
17.5815 58.3187
17.7622 60.3029
17.9428 71.0728
18.1237 138.45
18.3044 89.4834
18.4852 76.5137
18.666 59.5793
18.8469 57.1689
19.0278 56.0917
19.2088 58.2283
19.3898 76.1352
19.5709 53.4199
19.752 52.5775
19.9332 55.2116
20.1144 69.0728
20.2957 63.5558
20.477 53.0958
20.6586 48.9582
20.84 48.315
21.0215 47.7832
21.203 50.3361
21.3846 48.3118
21.5662 48.0663
21.7479 51.5484
21.9297 63.9158
22.1115 55.4725
22.2933 49.2611
22.4753 48.3902
22.6572 48.1044
22.8393 50.9202
23.0214 56.6095
23.2037 48.0743
23.3859 48.8123
23.5682 56.4873
23.7505 47.8357
23.9329 44.5289
24.1154 43.5699
24.2979 42.9247
24.4805 42.3702
24.6631 42.2582
24.8458 41.5597
25.0286 42.1448
25.2114 44.0446
25.3943 44.0491
25.5773 40.3769
25.7605 39.9019
25.9436 40.2944
26.1268 41.2592
26.31 39.5612
26.4933 40.1495
26.6767 41.6389
26.8601 39.8319
27.0437 38.2957
27.2272 38.0274
27.4109 37.8648
27.5946 38.0359
27.7784 37.3177
27.9623 37.9677
28.1462 38.1926
28.3304 36.7342
28.5145 35.4841
28.6987 35.1295
28.8829 35.0577
29.0673 34.1665
29.2517 33.8243
29.4361 33.6922
29.6207 32.7075
29.8053 32.5043
29.99 32.162
30.1748 32.0607
30.3597 31.8743
30.5447 31.7221
30.7297 31.7862
30.915 31.2265
31.1002 30.7531
31.2855 30.5088
31.4708 30.4907
31.6563 30.0023
31.8418 29.7251
32.0275 29.6152
32.2132 29.1114
32.399 28.5352
32.5848 28.108
32.7708 27.848
32.9569 27.6876
33.143 27.4204
33.3293 27.0197
33.5158 26.7259
33.7022 26.2477
33.8887 26.0294
34.0753 25.6651
34.262 25.3314
34.4488 25.0108
34.6357 24.6327
34.8227 24.3721
35.0098 24.1744
35.1969 23.8897
35.3842 23.7034
35.5716 23.5311
35.759 23.0681
35.9468 22.8475
36.1345 22.5971
36.3222 22.3256
36.5101 22.1943
36.6981 21.8604
36.8861 21.5449
37.0743 21.1915
37.2626 20.9298
37.451 20.7789
37.6395 20.5247
37.8281 20.2286
38.0168 19.8849
38.2056 19.6791
38.3945 19.4144
38.5837 19.2172
38.7728 18.9905
38.9621 18.7545
39.1514 18.4485
39.3409 18.1914
39.5304 18.0724
39.7201 17.8171
39.9099 17.6067
40.0999 17.4056
40.2899 17.0694
40.48 16.9334
40.6703 16.6824
40.8607 16.568
41.0512 16.3546
41.242 16.0195
41.4327 15.8431
41.6236 15.5904
41.8146 15.4447
42.0057 15.2124
42.1969 15.0204
42.3882 14.8544
42.5797 14.6871
42.7713 14.4545
42.963 14.2311
43.1549 14.0466
43.3468 13.829
43.5389 13.6862
43.7312 13.5049
43.9237 13.322
44.1162 13.1299
44.3088 12.9337
44.5016 12.7513
44.6945 12.5382
44.8875 12.3983
45.0806 12.2428
45.2739 12.0479
45.4673 11.9605
45.6609 11.7013
45.8546 11.5318
46.0484 11.3889
46.2424 11.1864
46.4365 11.0795
46.631 10.897
46.8254 10.7228
47.0199 10.6148
47.2146 10.4157
47.4095 10.2952
47.6044 10.1435
47.7996 9.98476
47.9948 9.84018
48.1902 9.69062
48.3858 9.5665
48.5815 9.42967
48.7774 9.28959
48.9734 9.1366
49.1696 9.00277
49.3661 8.89824
49.5626 8.6968
49.7592 8.61694
49.956 8.47493
50.153 8.34207
50.3501 8.20147
50.5474 8.09932
50.7448 7.98567
50.9424 7.83649
51.1402 7.71874
51.3381 7.60223
51.5362 7.45515
51.7344 7.3332
51.9328 7.21084
52.1316 7.0613
52.3304 7.00141
52.5293 6.88074
52.7284 6.73698
52.9276 6.67184
53.1271 6.5457
53.3267 6.42828
53.5265 6.26874
53.7264 6.21036
53.9266 6.0821
54.1269 5.98357
54.3274 5.89649
54.528 5.73323
54.7289 5.57273
54.9301 5.41162
55.1314 5.33821
55.3328 5.09735
55.5344 4.88931
55.7361 4.7416

File: Ni3Fe_FD0867.xy
TT I
1.27165 7.2181
1.45013 5.82418
1.62863 5.50874
1.80712 5.08753
1.98562 4.45943
2.16411 5.22618
2.34263 5.33118
2.52115 7.14965
2.69965 8.62801
2.87818 9.11713
3.05672 11.0635
3.23527 14.8132
3.4138 19.087
3.59237 23.7904
3.77094 25.6055
3.9495 29.3582
4.12809 35.3069
4.30669 238.253
4.4853 67.0283
4.6639 54.7143
4.84253 66.1775
5.02118 84.6738
5.19981 292.742
5.37848 177.524
5.55716 100.27
5.73586 90.4434
5.91455 90.8461
6.09328 4376.0
6.27201 81.6541
6.45075 66.5019
6.62952 62.0716
6.8083 58.1317
6.98711 55.2515
7.16591 54.4647
7.34475 94.9199
7.5236 54.2198
7.70247 55.3952
7.88135 57.0353
8.06026 61.0585
8.23919 68.3503
8.41812 83.6203
8.59709 1119.74
8.77609 97.6897
8.9551 90.6896
9.13412 80.6574
9.31318 81.2723
9.49226 83.4224
9.67134 97.7463
9.85047 97.9943
10.0296 301.567
10.2088 405.371
10.388 102.705
10.5672 515.34
10.7465 85.1923
10.9257 77.4253
11.105 71.0035
11.2844 69.7771
11.4637 64.226
11.6431 62.913
11.8225 61.5517
12.002 62.3995
12.1814 150.027
12.3609 70.1981
12.5405 63.5775
12.72 69.3489
12.8996 69.5638
13.0792 77.36
13.2589 229.011
13.4386 123.657
13.6183 243.674
13.7981 96.2271
13.9779 74.6579
14.1577 71.7226
14.3376 70.848
14.5175 67.6432
14.6974 69.1829
14.8774 104.978
15.0574 145.887
15.2374 70.0563
15.4175 65.47
15.5976 64.7448
15.7778 90.1699
15.958 155.745
16.1382 61.8658
16.3185 57.927
16.4988 54.6605
16.6792 53.5556
16.8596 54.5428
17.04 54.8526
17.2205 65.2676
17.401 69.9253
17.5815 58.2931
17.7622 60.4122
17.9428 70.9815
18.1237 138.989
18.3044 89.0021
18.4852 76.6262
18.666 59.5374
18.8469 57.2432
19.0278 55.97
19.2088 58.1986
19.3898 76.2063
19.5709 53.3948
19.752 52.4767
19.9332 55.1637
20.1144 69.0554
20.2957 63.4565
20.477 53.06
20.6586 49.0379
20.84 48.2229
21.0215 47.7139
21.203 50.2256
21.3846 48.4704
21.5662 48.0168
21.7479 51.4486
21.9297 63.8934
22.1115 55.4461
22.2933 49.1741
22.4753 48.2654
22.6572 48.0283
22.8393 50.9516
23.0214 56.884
23.2037 48.0431
23.3859 48.8431
23.5682 56.445
23.7505 47.7807
23.9329 44.5811
24.1154 43.5539
24.2979 42.9238
24.4805 42.416
24.6631 42.3357
24.8458 41.7083
25.0286 42.2525
25.2114 43.966
25.3943 44.0391
25.5773 40.4205
25.7605 39.8699
25.9436 40.3192
26.1268 41.2228
26.31 39.6401
26.4933 40.1921
26.6767 41.4946
26.8601 39.827
27.0437 38.4038
27.2272 37.9625
27.4109 37.9969
27.5946 37.8955
27.7784 37.2945
27.9623 37.8736
28.1462 38.4238
28.3304 36.5734
28.5145 35.4842
28.6987 35.1504
28.8829 35.0046
29.0673 34.2801
29.2517 33.8869
29.4361 33.7975
29.6207 32.7083
29.8053 32.5123
29.99 32.188
30.1748 32.0798
30.3597 31.806
30.5447 31.7234
30.7297 31.7701
30.915 31.3011
31.1002 30.5967
31.2855 30.4046
31.4708 30.4378
31.6563 29.9199
31.8418 29.699
32.0275 29.5515
32.2132 28.9908
32.399 28.5775
32.5848 28.161
32.7708 27.7532
32.9569 27.688
33.143 27.4699
33.3293 27.008
33.5158 26.6834
33.7022 26.1822
33.8887 26.0085
34.0753 25.674
34.262 25.3174
34.4488 25.0249
34.6357 24.6315
34.8227 24.3897
35.0098 24.1104
35.1969 23.8786
35.3842 23.7114
35.5716 23.433
35.759 23.1862
35.9468 22.8276
36.1345 22.643
36.3222 22.3621
36.5101 22.111
36.6981 21.8366
36.8861 21.4816
37.0743 21.2558
37.2626 20.9454
37.451 20.7287
37.6395 20.6161
37.8281 20.2013
38.0168 19.9175
38.2056 19.7292
38.3945 19.4519
38.5837 19.1722
38.7728 18.9244
38.9621 18.7826
39.1514 18.4707
39.3409 18.2385
39.5304 18.0101
39.7201 17.8408
39.9099 17.5759
40.0999 17.3505
40.2899 17.137
40.48 16.9018
40.6703 16.682
40.8607 16.5518
41.0512 16.3337
41.242 16.022
41.4327 15.8804
41.6236 15.6049
41.8146 15.4807
42.0057 15.2559
42.1969 15.0245
42.3882 14.9143
42.5797 14.618
42.7713 14.4532
42.963 14.2389
43.1549 14.1073
43.3468 13.8124
43.5389 13.6383
43.7312 13.4798
43.9237 13.2793
44.1162 13.1057
44.3088 12.9169
44.5016 12.7032
44.6945 12.575
44.8875 12.4006
45.0806 12.2198
45.2739 12.0528
45.4673 11.8497
45.6609 11.7047
45.8546 11.5252
46.0484 11.4311
46.2424 11.2445
46.4365 11.0929
46.631 10.8659
46.8254 10.7014
47.0199 10.5688
47.2146 10.3822
47.4095 10.2698
47.6044 10.112
47.7996 9.94463
47.9948 9.8324
48.1902 9.70338
48.3858 9.53038
48.5815 9.3726
48.7774 9.26571
48.9734 9.14373
49.1696 8.98716
49.3661 8.87211
49.5626 8.68932
49.7592 8.57841
49.956 8.44747
50.153 8.30343
50.3501 8.18157
50.5474 8.06147
50.7448 7.94454
50.9424 7.82558
51.1402 7.7133
51.3381 7.5943
51.5362 7.46809
51.7344 7.36862
51.9328 7.21213
52.1316 7.09252
52.3304 6.98149
52.5293 6.8972
52.7284 6.73905
52.9276 6.69131
53.1271 6.5287
53.3267 6.41609
53.5265 6.31016
53.7264 6.21791
53.9266 6.07103
54.1269 6.01933
54.3274 5.83541
54.528 5.75244
54.7289 5.56454
54.9301 5.3929
55.1314 5.29354
55.3328 5.0922
55.5344 4.87844
55.7361 4.76376