Folder: NiFe_MOF_catalyst_paper/XRD (part 197)

File: Ni3Fe_FD1063.xy
TT I
1.27165 6.94675
1.45013 6.24403
1.62863 4.56874
1.80712 4.37382
1.98562 4.10279
2.16411 4.48003
2.34263 4.96656
2.52115 7.23666
2.69965 8.35115
2.87818 9.03422
3.05672 11.1171
3.23527 14.5154
3.4138 17.898
3.59237 21.7656
3.77094 24.2662
3.9495 28.0998
4.12809 32.3507
4.30669 56.565
4.4853 46.225
4.6639 52.7841
4.84253 64.1084
5.02118 83.1445
5.19981 230.371
5.37848 209.812
5.55716 97.4334
5.73586 88.0735
5.91455 88.9418
6.09328 4579.09
6.27201 75.9986
6.45075 63.6233
6.62952 58.1899
6.8083 54.4559
6.98711 52.6454
7.16591 51.8369
7.34475 56.0314
7.5236 58.448
7.70247 52.8755
7.88135 55.2685
8.06026 59.281
8.23919 65.6884
8.41812 78.1297
8.59709 1099.85
8.77609 95.1288
8.9551 82.4577
9.13412 79.0075
9.31318 88.8557
9.49226 81.2164
9.67134 86.7342
9.85047 94.2611
10.0296 348.992
10.2088 449.589
10.388 97.7024
10.5672 510.893
10.7465 86.4651
10.9257 73.6716
11.105 68.3049
11.2844 65.1381
11.4637 61.6443
11.6431 60.7386
11.8225 59.7731
12.002 66.3669
12.1814 146.79
12.3609 64.8603
12.5405 61.5673
12.72 63.7515
12.8996 68.3296
13.0792 76.5719
13.2589 229.578
13.4386 127.965
13.6183 236.822
13.7981 100.624
13.9779 73.5164
14.1577 74.9355
14.3376 67.5472
14.5175 66.6439
14.6974 67.5742
14.8774 110.343
15.0574 160.12
15.2374 66.7459
15.4175 63.9338
15.5976 63.5161
15.7778 94.8608
15.958 169.592
16.1382 60.0064
16.3185 55.6472
16.4988 53.3417
16.6792 52.662
16.8596 52.9054
17.04 53.9848
17.2205 65.1088
17.401 72.4747
17.5815 57.3941
17.7622 60.1491
17.9428 73.579
18.1237 142.924
18.3044 89.0178
18.4852 79.4815
18.666 58.952
18.8469 56.8364
19.0278 55.1955
19.2088 58.1324
19.3898 76.2367
19.5709 53.07
19.752 51.8741
19.9332 55.224
20.1144 70.471
20.2957 63.573
20.477 53.0772
20.6586 48.3646
20.84 47.8401
21.0215 47.4743
21.203 49.7203
21.3846 48.0401
21.5662 47.6617
21.7479 51.8706
21.9297 65.5175
22.1115 55.8969
22.2933 49.0497
22.4753 47.5922
22.6572 47.6398
22.8393 51.4607
23.0214 57.4578
23.2037 47.9106
23.3859 49.5152
23.5682 57.3226
23.7505 48.3568
23.9329 44.2937
24.1154 43.1158
24.2979 42.443
24.4805 42.1771
24.6631 42.0363
24.8458 41.4092
25.0286 41.9269
25.2114 44.2822
25.3943 44.4844
25.5773 40.1876
25.7605 39.6847
25.9436 40.1244
26.1268 41.2687
26.31 39.5354
26.4933 40.1605
26.6767 41.9592
26.8601 40.1663
27.0437 38.2848
27.2272 37.9581
27.4109 37.8189
27.5946 38.0403
27.7784 37.527
27.9623 38.1743
28.1462 38.8355
28.3304 36.8747
28.5145 35.4687
28.6987 35.0653
28.8829 34.8996
29.0673 34.1851
29.2517 33.8641
29.4361 33.7258
29.6207 32.6568
29.8053 32.4769
29.99 32.1404
30.1748 31.9542
30.3597 31.8138
30.5447 31.7458
30.7297 31.8669
30.915 31.2645
31.1002 30.7195
31.2855 30.5978
31.4708 30.495
31.6563 30.0232
31.8418 29.7902
32.0275 29.7361
32.2132 28.9717
32.399 28.5608
32.5848 28.0043
32.7708 27.8078
32.9569 27.6844
33.143 27.5193
33.3293 27.0862
33.5158 26.7394
33.7022 26.1313
33.8887 25.9531
34.0753 25.6091
34.262 25.3416
34.4488 24.9963
34.6357 24.5816
34.8227 24.3265
35.0098 24.1244
35.1969 23.8007
35.3842 23.7396
35.5716 23.558
35.759 23.1531
35.9468 22.8084
36.1345 22.6152
36.3222 22.4377
36.5101 22.2167
36.6981 21.8703
36.8861 21.4587
37.0743 21.254
37.2626 21.004
37.451 20.6724
37.6395 20.5916
37.8281 20.1798
38.0168 19.9506
38.2056 19.7384
38.3945 19.3746
38.5837 19.2029
38.7728 19.0534
38.9621 18.7328
39.1514 18.4277
39.3409 18.1891
39.5304 17.9508
39.7201 17.8147
39.9099 17.5707
40.0999 17.4128
40.2899 17.1824
40.48 16.9138
40.6703 16.7011
40.8607 16.5964
41.0512 16.3695
41.242 16.0503
41.4327 15.8445
41.6236 15.6253
41.8146 15.4554
42.0057 15.24
42.1969 15.0295
42.3882 14.8752
42.5797 14.6292
42.7713 14.4287
42.963 14.221
43.1549 14.0504
43.3468 13.8337
43.5389 13.6598
43.7312 13.4984
43.9237 13.2907
44.1162 13.053
44.3088 12.9343
44.5016 12.7382
44.6945 12.6168
44.8875 12.4103
45.0806 12.1874
45.2739 12.0359
45.4673 11.876
45.6609 11.7087
45.8546 11.5725
46.0484 11.3951
46.2424 11.2038
46.4365 11.1016
46.631 10.9005
46.8254 10.7643
47.0199 10.6101
47.2146 10.4283
47.4095 10.251
47.6044 10.1221
47.7996 9.95031
47.9948 9.82106
48.1902 9.66783
48.3858 9.56205
48.5815 9.43131
48.7774 9.25396
48.9734 9.10904
49.1696 8.95739
49.3661 8.8417
49.5626 8.67735
49.7592 8.58695
49.956 8.49845
50.153 8.34458
50.3501 8.20732
50.5474 8.06557
50.7448 7.95661
50.9424 7.82536
51.1402 7.72178
51.3381 7.57715
51.5362 7.45682
51.7344 7.36861
51.9328 7.23493
52.1316 7.05318
52.3304 6.98206
52.5293 6.88431
52.7284 6.75608
52.9276 6.63576
53.1271 6.53104
53.3267 6.42629
53.5265 6.30875
53.7264 6.18319
53.9266 6.07075
54.1269 5.93325
54.3274 5.90743
54.528 5.75243
54.7289 5.59362
54.9301 5.40728
55.1314 5.27766
55.3328 5.0867
55.5344 4.88445
55.7361 4.77295

File: Ni3Fe_FD1065.xy
TT I
1.27165 6.9201
1.45013 6.16385
1.62863 4.78536
1.80712 4.52378
1.98562 4.13151
2.16411 3.98855
2.34263 5.52829
2.52115 7.02957
2.69965 8.49432
2.87818 8.25609
3.05672 10.8351
3.23527 14.5612
3.4138 17.7614
3.59237 21.2374
3.77094 24.7019
3.9495 28.3197
4.12809 32.2536
4.30669 56.7678
4.4853 46.349
4.6639 52.5877
4.84253 64.2086
5.02118 83.3856
5.19981 231.071
5.37848 208.828
5.55716 97.3863
5.73586 88.5897
5.91455 89.2912
6.09328 4578.47
6.27201 76.1691
6.45075 63.6625
6.62952 57.9817
6.8083 54.6048
6.98711 52.8281
7.16591 51.7073
7.34475 55.6649
7.5236 58.8686
7.70247 53.3068
7.88135 55.0819
8.06026 59.1791
8.23919 66.1996
8.41812 78.2352
8.59709 1106.5
8.77609 95.1383
8.9551 82.5899
9.13412 79.3891
9.31318 88.7966
9.49226 81.6244
9.67134 86.8158
9.85047 94.1223
10.0296 350.67
10.2088 444.796
10.388 97.7822
10.5672 513.023
10.7465 86.614
10.9257 73.5744
11.105 68.2186
11.2844 64.7093
11.4637 62.2085
11.6431 60.8069
11.8225 60.0749
12.002 66.3117
12.1814 147.061
12.3609 64.9342
12.5405 61.4335
12.72 64.3082
12.8996 68.1108
13.0792 77.0613
13.2589 230.574
13.4386 126.837
13.6183 237.909
13.7981 100.137
13.9779 73.7544
14.1577 75.3141
14.3376 67.6194
14.5175 66.9481
14.6974 67.6741
14.8774 110.924
15.0574 159.342
15.2374 66.8247
15.4175 64.4822
15.5976 63.4904
15.7778 95.1174
15.958 169.375
16.1382 59.7166
16.3185 55.8147
16.4988 53.6393
16.6792 52.9193
16.8596 53.0925
17.04 53.9447
17.2205 64.9299
17.401 72.3519
17.5815 57.5187
17.7622 60.1796
17.9428 73.5007
18.1237 142.606
18.3044 89.1144
18.4852 78.9344
18.666 59.0563
18.8469 56.6421
19.0278 55.3733
19.2088 58.2446
19.3898 76.2032
19.5709 52.9761
19.752 51.899
19.9332 55.3046
20.1144 70.5659
20.2957 63.699
20.477 52.8693
20.6586 48.5046
20.84 48.0698
21.0215 47.2699
21.203 49.8883
21.3846 47.9555
21.5662 47.7835
21.7479 52.0896
21.9297 65.3739
22.1115 55.9458
22.2933 49.2432
22.4753 47.5641
22.6572 47.797
22.8393 51.5746
23.0214 57.4508
23.2037 47.9856
23.3859 49.506
23.5682 57.5425
23.7505 48.4435
23.9329 44.4129
24.1154 43.3614
24.2979 42.6469
24.4805 41.9527
24.6631 42.1429
24.8458 41.4104
25.0286 42.143
25.2114 44.3288
25.3943 44.459
25.5773 40.306
25.7605 39.6467
25.9436 40.222
26.1268 41.3085
26.31 39.5213
26.4933 40.1732
26.6767 41.9949
26.8601 40.1227
27.0437 38.3797
27.2272 37.9112
27.4109 37.8401
27.5946 38.0187
27.7784 37.5417
27.9623 38.1585
28.1462 38.7624
28.3304 36.8687
28.5145 35.3981
28.6987 35.1343
28.8829 34.8776
29.0673 34.1636
29.2517 33.9005
29.4361 33.7256
29.6207 32.6713
29.8053 32.2983
29.99 32.0996
30.1748 32.0456
30.3597 31.8628
30.5447 31.6638
30.7297 31.8839
30.915 31.3103
31.1002 30.7282
31.2855 30.5125
31.4708 30.4745
31.6563 30.0607
31.8418 29.8089
32.0275 29.5843
32.2132 29.0748
32.399 28.6051
32.5848 28.0977
32.7708 27.7366
32.9569 27.6683
33.143 27.4752
33.3293 27.133
33.5158 26.696
33.7022 26.2246
33.8887 26.0041
34.0753 25.6744
34.262 25.3289
34.4488 24.9433
34.6357 24.6262
34.8227 24.3915
35.0098 24.1875
35.1969 23.8618
35.3842 23.7454
35.5716 23.4936
35.759 23.2402
35.9468 22.8208
36.1345 22.6555
36.3222 22.4144
36.5101 22.2068
36.6981 21.8738
36.8861 21.5383
37.0743 21.1932
37.2626 20.9813
37.451 20.7968
37.6395 20.5262
37.8281 20.2715
38.0168 19.953
38.2056 19.6654
38.3945 19.4024
38.5837 19.2269
38.7728 19.0076
38.9621 18.7301
39.1514 18.5017
39.3409 18.2363
39.5304 18.0273
39.7201 17.845
39.9099 17.5948
40.0999 17.3484
40.2899 17.1433
40.48 16.8843
40.6703 16.7207
40.8607 16.5469
41.0512 16.3398
41.242 16.0576
41.4327 15.8479
41.6236 15.611
41.8146 15.4763
42.0057 15.2657
42.1969 15.0162
42.3882 14.8635
42.5797 14.6333
42.7713 14.4328
42.963 14.2156
43.1549 14.0504
43.3468 13.8599
43.5389 13.6977
43.7312 13.4912
43.9237 13.3164
44.1162 13.0981
44.3088 12.922
44.5016 12.7442
44.6945 12.5725
44.8875 12.3875
45.0806 12.2397
45.2739 12.04
45.4673 11.9078
45.6609 11.7215
45.8546 11.5561
46.0484 11.4107
46.2424 11.2465
46.4365 11.054
46.631 10.8606
46.8254 10.7419
47.0199 10.579
47.2146 10.4131
47.4095 10.2815
47.6044 10.0326
47.7996 9.94302
47.9948 9.82976
48.1902 9.72177
48.3858 9.54437
48.5815 9.38955
48.7774 9.27709
48.9734 9.1242
49.1696 9.00605
49.3661 8.85037
49.5626 8.68155
49.7592 8.57392
49.956 8.47304
50.153 8.31007
50.3501 8.18948
50.5474 8.0713
50.7448 7.99244
50.9424 7.81835
51.1402 7.71362
51.3381 7.59434
51.5362 7.45852
51.7344 7.2805
51.9328 7.18201
52.1316 7.05269
52.3304 6.9858
52.5293 6.87191
52.7284 6.71644
52.9276 6.61195
53.1271 6.54393
53.3267 6.40058
53.5265 6.31428
53.7264 6.17788
53.9266 6.10152
54.1269 5.9796
54.3274 5.81918
54.528 5.74272
54.7289 5.60773
54.9301 5.43787
55.1314 5.26542
55.3328 5.07793
55.5344 4.88035
55.7361 4.83869

File: Ni3Fe_FD1066.xy
TT I
1.27165 7.21651
1.45013 5.5233
1.62863 5.15846
1.80712 4.62878
1.98562 4.09667
2.16411 4.38672
2.34263 4.50845
2.52115 6.63543
2.69965 8.63012
2.87818 9.12909
3.05672 11.1223
3.23527 14.473
3.4138 17.8927
3.59237 21.2262
3.77094 24.5188
3.9495 28.1507
4.12809 32.6201
4.30669 56.3316
4.4853 46.2353
4.6639 52.9696
4.84253 64.327
5.02118 83.1052
5.19981 229.996
5.37848 209.05
5.55716 97.7003
5.73586 88.2277
5.91455 88.8764
6.09328 4558.41
6.27201 76.199
6.45075 63.4741
6.62952 57.9428
6.8083 54.7762
6.98711 52.5293
7.16591 51.7081
7.34475 55.8194
7.5236 58.4037
7.70247 53.0414
7.88135 54.8568
8.06026 58.9054
8.23919 65.5865
8.41812 77.8133
8.59709 1104.2
8.77609 95.0465
8.9551 82.1763
9.13412 79.3175
9.31318 88.8602
9.49226 80.7521
9.67134 86.8568
9.85047 94.1947
10.0296 349.124
10.2088 450.009
10.388 98.0546
10.5672 512.288
10.7465 86.0378
10.9257 73.701
11.105 68.4556
11.2844 64.7615
11.4637 61.7461
11.6431 60.8026
11.8225 59.5713
12.002 66.4934
12.1814 146.722
12.3609 64.6191
12.5405 61.6207
12.72 64.1488
12.8996 67.8835
13.0792 76.5958
13.2589 230.496
13.4386 127.475
13.6183 237.089
13.7981 100.588
13.9779 73.6614
14.1577 75.1668
14.3376 67.5722
14.5175 66.4049
14.6974 67.5758
14.8774 110.42
15.0574 160.158
15.2374 66.3553
15.4175 64.3145
15.5976 63.4668
15.7778 94.983
15.958 169.872
16.1382 59.731
16.3185 55.5016
16.4988 53.4852
16.6792 52.6342
16.8596 52.7972
17.04 53.839
17.2205 64.8422
17.401 72.3417
17.5815 57.444
17.7622 60.1483
17.9428 73.4869
18.1237 142.85
18.3044 88.9745
18.4852 79.2565
18.666 58.9289
18.8469 56.5416
19.0278 55.2414
19.2088 58.1283
19.3898 76.3533
19.5709 53.0885
19.752 51.9685
19.9332 55.2233
20.1144 70.5343
20.2957 63.5961
20.477 52.9661
20.6586 48.3515
20.84 47.9111
21.0215 47.3437
21.203 49.6126
21.3846 47.9774
21.5662 47.7219
21.7479 51.8814
21.9297 65.4266
22.1115 55.9846
22.2933 49.1324
22.4753 47.5484
22.6572 47.7534
22.8393 51.377
23.0214 57.5285
23.2037 47.9395
23.3859 49.4725
23.5682 57.3438
23.7505 48.4594
23.9329 44.3359
24.1154 43.1964
24.2979 42.4898
24.4805 42.0969
24.6631 41.9991
24.8458 41.3402
25.0286 41.9737
25.2114 44.4257
25.3943 44.3244
25.5773 40.2646
25.7605 39.7103
25.9436 40.0734
26.1268 41.3714
26.31 39.4789
26.4933 40.1903
26.6767 42.0256
26.8601 40.1137
27.0437 38.3354
27.2272 37.965
27.4109 37.9002
27.5946 37.8369
27.7784 37.3902
27.9623 38.159
28.1462 38.611
28.3304 36.9301
28.5145 35.4736
28.6987 35.0354
28.8829 34.9563
29.0673 34.2028
29.2517 33.8732
29.4361 33.6863
29.6207 32.5814
29.8053 32.2473
29.99 32.04
30.1748 31.9497
30.3597 31.8561
30.5447 31.6708
30.7297 31.9332
30.915 31.212
31.1002 30.766
31.2855 30.4264
31.4708 30.5174
31.6563 30.0515
31.8418 29.8502
32.0275 29.6144
32.2132 29.1438
32.399 28.5653
32.5848 28.1091
32.7708 27.7341
32.9569 27.6438
33.143 27.4805
33.3293 27.1679
33.5158 26.7735
33.7022 26.3252
33.8887 26.0499
34.0753 25.608
34.262 25.299
34.4488 24.9465
34.6357 24.6495
34.8227 24.3669
35.0098 24.1277
35.1969 23.8108
35.3842 23.7458
35.5716 23.5337
35.759 23.1273
35.9468 22.7809
36.1345 22.6143
36.3222 22.4459
36.5101 22.1797
36.6981 21.9098
36.8861 21.565
37.0743 21.2382
37.2626 20.9809
37.451 20.7347
37.6395 20.5558
37.8281 20.248
38.0168 19.9194
38.2056 19.7015
38.3945 19.4458
38.5837 19.218
38.7728 18.9566
38.9621 18.7273
39.1514 18.4824
39.3409 18.1645
39.5304 18.0279
39.7201 17.854
39.9099 17.6353
40.0999 17.3545
40.2899 17.1061
40.48 16.8735
40.6703 16.7025
40.8607 16.4959
41.0512 16.3664
41.242 16.0659
41.4327 15.795
41.6236 15.6061
41.8146 15.4917
42.0057 15.2156
42.1969 15.011
42.3882 14.8078
42.5797 14.6012
42.7713 14.4146
42.963 14.2579
43.1549 13.9803
43.3468 13.8261
43.5389 13.646
43.7312 13.4713
43.9237 13.2883
44.1162 13.1123
44.3088 12.9248
44.5016 12.7141
44.6945 12.5521
44.8875 12.4009
45.0806 12.1969
45.2739 12.027
45.4673 11.8581
45.6609 11.705
45.8546 11.5802
46.0484 11.3525
46.2424 11.2264
46.4365 11.0746
46.631 10.8593
46.8254 10.7428
47.0199 10.5767
47.2146 10.457
47.4095 10.2266
47.6044 10.0611
47.7996 9.91203
47.9948 9.78428
48.1902 9.67338
48.3858 9.51891
48.5815 9.40559
48.7774 9.27525
48.9734 9.1101
49.1696 8.95804
49.3661 8.85706
49.5626 8.70254
49.7592 8.58404
49.956 8.46915
50.153 8.31079
50.3501 8.19853
50.5474 8.04721
50.7448 7.93903
50.9424 7.85045
51.1402 7.69249
51.3381 7.56375
51.5362 7.4558
51.7344 7.35476
51.9328 7.19339
52.1316 7.11355
52.3304 6.99353
52.5293 6.8674
52.7284 6.72921
52.9276 6.62162
53.1271 6.55384
53.3267 6.40166
53.5265 6.30023
53.7264 6.24588
53.9266 6.12657
54.1269 5.96792
54.3274 5.87353
54.528 5.71367
54.7289 5.57271
54.9301 5.40929
55.1314 5.30038
55.3328 5.12576
55.5344 4.94732
55.7361 4.78057

File: Ni3Fe_FD1067.xy
TT I
1.27165 7.11011
1.45013 5.62811
1.62863 4.44368
1.80712 3.85279
1.98562 4.60763
2.16411 4.12
2.34263 4.62545
2.52115 7.15702
2.69965 8.52777
2.87818 9.1093
3.05672 10.417
3.23527 14.9556
3.4138 18.4527
3.59237 21.4755
3.77094 24.5757
3.9495 28.2216
4.12809 32.2986
4.30669 56.7743
4.4853 45.8851
4.6639 52.7189
4.84253 64.1036
5.02118 83.3089
5.19981 229.647
5.37848 210.039
5.55716 97.5555
5.73586 88.108
5.91455 88.7092
6.09328 4531.94
6.27201 76.1451
6.45075 63.5958
6.62952 57.9091
6.8083 54.6693
6.98711 52.4877
7.16591 51.7706
7.34475 55.8339
7.5236 58.3095
7.70247 53.2558
7.88135 55.1056
8.06026 59.1968
8.23919 65.9808
8.41812 77.9084
8.59709 1103.61
8.77609 94.9347
8.9551 82.2472
9.13412 79.2566
9.31318 88.7849
9.49226 81.362
9.67134 86.5797
9.85047 94.2047
10.0296 349.13
10.2088 449.375
10.388 98.0809
10.5672 512.362
10.7465 86.5173
10.9257 73.5625
11.105 68.2999
11.2844 64.8444
11.4637 61.9754
11.6431 60.4964
11.8225 59.868
12.002 66.7023
12.1814 146.855
12.3609 64.8309
12.5405 61.4591
12.72 64.0736
12.8996 67.8771
13.0792 76.7128
13.2589 230.278
13.4386 127.356
13.6183 237.03
13.7981 100.682
13.9779 73.5589
14.1577 75.1976
14.3376 67.1313
14.5175 66.4283
14.6974 67.519
14.8774 110.611
15.0574 160.19
15.2374 66.7384
15.4175 63.969
15.5976 63.6551
15.7778 95.114
15.958 169.923
16.1382 59.865
16.3185 55.7116
16.4988 53.5643
16.6792 52.6194
16.8596 52.8751
17.04 53.9269
17.2205 65.0515
17.401 72.4061
17.5815 57.5069
17.7622 60.0698
17.9428 73.4261
18.1237 142.515
18.3044 89.1459
18.4852 79.3269
18.666 59.0428
18.8469 56.5869
19.0278 55.1809
19.2088 58.2868
19.3898 76.4373
19.5709 53.0156
19.752 51.7566
19.9332 55.2449
20.1144 70.6546
20.2957 63.5679
20.477 52.8947
20.6586 48.4708
20.84 48.074
21.0215 47.3548
21.203 49.6268
21.3846 48.0072
21.5662 47.6934
21.7479 51.9156
21.9297 65.3513
22.1115 56.1183
22.2933 49.104
22.4753 47.6322
22.6572 47.7783
22.8393 51.4329
23.0214 57.3986
23.2037 47.8043
23.3859 49.4488
23.5682 57.2767
23.7505 48.2932
23.9329 44.4145
24.1154 43.2135
24.2979 42.4704
24.4805 42.0856
24.6631 42.0401
24.8458 41.3872
25.0286 42.0379
25.2114 44.3059
25.3943 44.504
25.5773 40.2476
25.7605 39.6678
25.9436 40.1673
26.1268 41.387
26.31 39.4949
26.4933 40.1363
26.6767 42.085
26.8601 40.0653
27.0437 38.4266
27.2272 37.8949
27.4109 37.7555
27.5946 37.9123
27.7784 37.3623
27.9623 38.0719
28.1462 38.7762
28.3304 36.9936
28.5145 35.4089
28.6987 35.0724
28.8829 34.9592
29.0673 34.1408
29.2517 33.7459
29.4361 33.8195
29.6207 32.6953
29.8053 32.3737
29.99 32.0042
30.1748 32.0499
30.3597 31.8171
30.5447 31.76
30.7297 31.917
30.915 31.3049
31.1002 30.7599
31.2855 30.5297
31.4708 30.5041
31.6563 29.8943
31.8418 29.8468
32.0275 29.6408
32.2132 29.0691
32.399 28.5091
32.5848 28.0719
32.7708 27.767
32.9569 27.7668
33.143 27.4857
33.3293 27.1197
33.5158 26.7089
33.7022 26.2492
33.8887 26.0694
34.0753 25.775
34.262 25.1901
34.4488 24.8906
34.6357 24.6941
34.8227 24.3734
35.0098 24.1911
35.1969 23.8857
35.3842 23.6966
35.5716 23.5188
35.759 23.1857
35.9468 22.8475
36.1345 22.6114
36.3222 22.3251
36.5101 22.1941
36.6981 21.8432
36.8861 21.5506
37.0743 21.2439
37.2626 20.9473
37.451 20.7596
37.6395 20.537
37.8281 20.25
38.0168 19.9812
38.2056 19.7292
38.3945 19.4376
38.5837 19.2416
38.7728 19.008
38.9621 18.7169
39.1514 18.4912
39.3409 18.2739
39.5304 18.0292
39.7201 17.8341
39.9099 17.6038
40.0999 17.3712
40.2899 17.1701
40.48 16.9278
40.6703 16.6987
40.8607 16.5628
41.0512 16.3312
41.242 16.09
41.4327 15.8624
41.6236 15.6193
41.8146 15.4558
42.0057 15.2299
42.1969 15.0073
42.3882 14.8859
42.5797 14.6975
42.7713 14.4467
42.963 14.2689
43.1549 14.0789
43.3468 13.8349
43.5389 13.6893
43.7312 13.4612
43.9237 13.2041
44.1162 13.0706
44.3088 12.9236
44.5016 12.7383
44.6945 12.5333
44.8875 12.4174
45.0806 12.2066
45.2739 12.0553
45.4673 11.8469
45.6609 11.697
45.8546 11.5373
46.0484 11.4084
46.2424 11.211
46.4365 11.0979
46.631 10.8969
46.8254 10.6833
47.0199 10.5691
47.2146 10.4541
47.4095 10.2566
47.6044 10.0936
47.7996 9.95267
47.9948 9.80663
48.1902 9.64101
48.3858 9.54594
48.5815 9.38558
48.7774 9.25688
48.9734 9.1019
49.1696 8.94654
49.3661 8.87695
49.5626 8.70576
49.7592 8.59364
49.956 8.44632
50.153 8.32758
50.3501 8.2082
50.5474 8.08472
50.7448 7.95247
50.9424 7.81765
51.1402 7.7207
51.3381 7.54978
51.5362 7.45041
51.7344 7.33764
51.9328 7.22852
52.1316 7.07773
52.3304 6.97667
52.5293 6.8575
52.7284 6.72706
52.9276 6.6521
53.1271 6.5121
53.3267 6.4065
53.5265 6.31735
53.7264 6.16657
53.9266 6.08857
54.1269 5.93292
54.3274 5.885
54.528 5.69885
54.7289 5.56987
54.9301 5.43957
55.1314 5.30474
55.3328 5.07323
55.5344 4.90244
55.7361 4.75366

File: Ni3Fe_FD1068.xy
TT I
1.27165 7.04798
1.45013 5.69512
1.62863 4.86742
1.80712 4.6024
1.98562 4.3171
2.16411 4.14181
2.34263 5.36323
2.52115 7.0848
2.69965 8.56898
2.87818 8.4644
3.05672 10.4555
3.23527 14.6411
3.4138 17.92
3.59237 21.3627
3.77094 24.4854
3.9495 28.0087
4.12809 32.1156
4.30669 56.5339
4.4853 46.2519
4.6639 52.7124
4.84253 64.0188
5.02118 82.7138
5.19981 228.888
5.37848 209.586
5.55716 97.5175
5.73586 88.0614
5.91455 89.0385
6.09328 4559.51
6.27201 75.9902
6.45075 63.5403
6.62952 57.8573
6.8083 54.3221
6.98711 52.7602
7.16591 51.3634
7.34475 56.0339
7.5236 58.3106
7.70247 52.991
7.88135 54.9497
8.06026 59.0296
8.23919 65.6127
8.41812 77.8359
8.59709 1103.64
8.77609 95.0724
8.9551 82.5744
9.13412 78.919
9.31318 88.8884
9.49226 81.1713
9.67134 86.6191
9.85047 93.9943
10.0296 347.601
10.2088 453.483
10.388 97.8298
10.5672 511.441
10.7465 86.3155
10.9257 73.6597
11.105 68.0314
11.2844 64.6838
11.4637 62.0546
11.6431 60.7097
11.8225 59.8331
12.002 66.031
12.1814 146.777
12.3609 64.8357
12.5405 61.5936
12.72 64.0032
12.8996 68.1011
13.0792 76.833
13.2589 229.264
13.4386 127.428
13.6183 236.927
13.7981 100.212
13.9779 73.6405
14.1577 74.901
14.3376 67.3664
14.5175 66.3071
14.6974 67.5165
14.8774 110.163
15.0574 160.229
15.2374 66.7294
15.4175 64.2762
15.5976 63.4202
15.7778 95.0707
15.958 169.969
16.1382 59.8461
16.3185 55.6243
16.4988 53.266
16.6792 52.4632
16.8596 52.7971
17.04 53.9271
17.2205 64.8876
17.401 72.5605
17.5815 57.3353
17.7622 59.9524
17.9428 73.4504
18.1237 142.639
18.3044 88.7528
18.4852 79.3326
18.666 59.222
18.8469 56.6923
19.0278 55.2137
19.2088 58.0883
19.3898 76.2396
19.5709 53.0418
19.752 51.8051
19.9332 55.346
20.1144 70.6188
20.2957 63.7152
20.477 52.8545
20.6586 48.4874
20.84 47.8462
21.0215 47.4199
21.203 49.5813
21.3846 47.9591
21.5662 47.7053
21.7479 52.1148
21.9297 65.479
22.1115 55.7634
22.2933 49.1285
22.4753 47.5642
22.6572 47.7676
22.8393 51.396
23.0214 57.4367
23.2037 47.8595
23.3859 49.4965
23.5682 57.2779
23.7505 48.497
23.9329 44.3387
24.1154 43.2247
24.2979 42.5208
24.4805 41.9597
24.6631 42.0022
24.8458 41.3582
25.0286 42.0827
25.2114 44.3991
25.3943 44.4071
25.5773 40.2003
25.7605 39.7178
25.9436 40.2005
26.1268 41.4478
26.31 39.4768
26.4933 40.1217
26.6767 42.0072
26.8601 40.2009
27.0437 38.3238
27.2272 37.9494
27.4109 37.8198
27.5946 37.9352
27.7784 37.3614
27.9623 37.8628
28.1462 38.6761
28.3304 36.846
28.5145 35.4182
28.6987 34.9946
28.8829 34.9661
29.0673 34.0973
29.2517 33.7679
29.4361 33.7539
29.6207 32.7112
29.8053 32.2776
29.99 32.1028
30.1748 31.9963
30.3597 31.8515
30.5447 31.886
30.7297 31.8457
30.915 31.3464
31.1002 30.7305
31.2855 30.4632
31.4708 30.4856
31.6563 30.0629
31.8418 29.7101
32.0275 29.6108
32.2132 29.0365
32.399 28.4824
32.5848 28.1191
32.7708 27.7823
32.9569 27.5966
33.143 27.418
33.3293 27.1565
33.5158 26.6904
33.7022 26.2599
33.8887 26.0371
34.0753 25.6947
34.262 25.2361
34.4488 24.8971
34.6357 24.6663
34.8227 24.3903
35.0098 24.1228
35.1969 23.8756
35.3842 23.6722
35.5716 23.5108
35.759 23.2109
35.9468 22.8604
36.1345 22.66
36.3222 22.353
36.5101 22.1837
36.6981 21.8918
36.8861 21.5191
37.0743 21.2306
37.2626 21.0227
37.451 20.7949
37.6395 20.5355
37.8281 20.2662
38.0168 19.9674
38.2056 19.7151
38.3945 19.3347
38.5837 19.1895
38.7728 18.9612
38.9621 18.7206
39.1514 18.47
39.3409 18.2407
39.5304 18.0286
39.7201 17.7843
39.9099 17.612
40.0999 17.3674
40.2899 17.1158
40.48 16.9316
40.6703 16.6877
40.8607 16.5332
41.0512 16.3073
41.242 16.0682
41.4327 15.8397
41.6236 15.6623
41.8146 15.4923
42.0057 15.2369
42.1969 15.0206
42.3882 14.8793
42.5797 14.6323
42.7713 14.4372
42.963 14.2673
43.1549 14.0468
43.3468 13.8735
43.5389 13.6745
43.7312 13.4656
43.9237 13.2681
44.1162 13.0574
44.3088 12.8473
44.5016 12.7241
44.6945 12.5928
44.8875 12.3587
45.0806 12.1707
45.2739 12.0274
45.4673 11.8945
45.6609 11.6867
45.8546 11.5456
46.0484 11.3711
46.2424 11.2157
46.4365 11.0643
46.631 10.8784
46.8254 10.7288
47.0199 10.5751
47.2146 10.4235
47.4095 10.2519
47.6044 10.0774
47.7996 9.95339
47.9948 9.76853
48.1902 9.70234
48.3858 9.53715
48.5815 9.41299
48.7774 9.27659
48.9734 9.15285
49.1696 9.01946
49.3661 8.82998
49.5626 8.69804
49.7592 8.58663
49.956 8.48313
50.153 8.3345
50.3501 8.17849
50.5474 8.09766
50.7448 7.97397
50.9424 7.85651
51.1402 7.68156
51.3381 7.54896
51.5362 7.44686
51.7344 7.32291
51.9328 7.19179
52.1316 7.08845
52.3304 6.99802
52.5293 6.83619
52.7284 6.73048
52.9276 6.63316
53.1271 6.51838
53.3267 6.4217
53.5265 6.30684
53.7264 6.19339
53.9266 6.03578
54.1269 5.99781
54.3274 5.81727
54.528 5.72294
54.7289 5.52805
54.9301 5.41395
55.1314 5.27541
55.3328 5.07067
55.5344 4.91965
55.7361 4.77593