Folder: NiFe_MOF_catalyst_paper/XRD (part 124)

File: Ni3Fe_FD0669.xy
TT I
1.27165 7.50774
1.45013 5.83071
1.62863 5.04477
1.80712 4.73939
1.98562 4.50407
2.16411 4.67924
2.34263 5.22239
2.52115 6.86815
2.69965 7.65339
2.87818 8.58283
3.05672 11.224
3.23527 15.169
3.4138 18.728
3.59237 23.4208
3.77094 25.8203
3.9495 29.6914
4.12809 34.2782
4.30669 171.424
4.4853 60.5392
4.6639 55.6549
4.84253 67.5283
5.02118 87.533
5.19981 371.535
5.37848 181.491
5.55716 101.719
5.73586 92.3084
5.91455 94.5812
6.09328 4476.39
6.27201 81.6054
6.45075 66.9788
6.62952 62.4665
6.8083 58.2408
6.98711 55.6431
7.16591 54.9949
7.34475 81.986
7.5236 54.5834
7.70247 55.8747
7.88135 57.7143
8.06026 62.1539
8.23919 69.3821
8.41812 84.9074
8.59709 1215.94
8.77609 98.6173
8.9551 89.6418
9.13412 81.6557
9.31318 82.7259
9.49226 84.3618
9.67134 96.4856
9.85047 99.9299
10.0296 357.222
10.2088 373.236
10.388 104.562
10.5672 512.648
10.7465 86.2184
10.9257 77.9163
11.105 71.4345
11.2844 69.4326
11.4637 64.5231
11.6431 63.275
11.8225 62.3077
12.002 63.5996
12.1814 152.939
12.3609 68.9008
12.5405 63.9881
12.72 68.9878
12.8996 71.0309
13.0792 79.3984
13.2589 245.125
13.4386 120.68
13.6183 252.955
13.7981 94.4513
13.9779 75.7365
14.1577 72.1854
14.3376 70.9759
14.5175 68.5778
14.6974 70.4335
14.8774 111.735
15.0574 142.444
15.2374 70.2312
15.4175 66.1763
15.5976 65.8303
15.7778 95.753
15.958 153.321
16.1382 62.0082
16.3185 58.32
16.4988 55.4395
16.6792 54.2462
16.8596 55.1294
17.04 55.4663
17.2205 66.8863
17.401 69.9609
17.5815 58.9804
17.7622 61.319
17.9428 74.0733
18.1237 142.743
18.3044 90.9326
18.4852 75.6022
18.666 60.1882
18.8469 57.8771
19.0278 56.6056
19.2088 59.2921
19.3898 76.5817
19.5709 54.0697
19.752 53.1106
19.9332 56.1407
20.1144 69.7416
20.2957 63.9848
20.477 52.9801
20.6586 49.4886
20.84 48.6928
21.0215 48.435
21.203 50.831
21.3846 48.5996
21.5662 48.6854
21.7479 52.7405
21.9297 64.7396
22.1115 56.1738
22.2933 49.6436
22.4753 48.7757
22.6572 48.6455
22.8393 52.1181
23.0214 57.1459
23.2037 48.5702
23.3859 49.7282
23.5682 57.2516
23.7505 47.8973
23.9329 44.982
24.1154 44.0184
24.2979 43.4201
24.4805 42.8495
24.6631 42.6578
24.8458 42.2369
25.0286 42.8863
25.2114 44.6956
25.3943 44.5183
25.5773 40.8318
25.7605 40.3422
25.9436 40.8014
26.1268 41.6793
26.31 40.0873
26.4933 40.7883
26.6767 42.0794
26.8601 40.2979
27.0437 38.6921
27.2272 38.412
27.4109 38.3858
27.5946 38.2328
27.7784 37.7365
27.9623 38.3724
28.1462 38.7294
28.3304 36.9957
28.5145 35.912
28.6987 35.5649
28.8829 35.4521
29.0673 34.6346
29.2517 34.209
29.4361 34.095
29.6207 33.1814
29.8053 32.733
29.99 32.5544
30.1748 32.3876
30.3597 32.169
30.5447 32.0954
30.7297 32.1082
30.915 31.4445
31.1002 31.0395
31.2855 30.8398
31.4708 30.7412
31.6563 30.2706
31.8418 30.0824
32.0275 29.8089
32.2132 29.2832
32.399 28.9329
32.5848 28.4373
32.7708 27.9909
32.9569 27.9209
33.143 27.7397
33.3293 27.3961
33.5158 26.9746
33.7022 26.5285
33.8887 26.2961
34.0753 25.9441
34.262 25.6491
34.4488 25.2674
34.6357 24.8968
34.8227 24.6806
35.0098 24.5116
35.1969 24.1578
35.3842 23.9652
35.5716 23.6972
35.759 23.3874
35.9468 23.0645
36.1345 22.8513
36.3222 22.6534
36.5101 22.3441
36.6981 22.0243
36.8861 21.7938
37.0743 21.4531
37.2626 21.2393
37.451 20.9509
37.6395 20.8106
37.8281 20.4161
38.0168 20.1503
38.2056 19.967
38.3945 19.6406
38.5837 19.4064
38.7728 19.2183
38.9621 18.9496
39.1514 18.67
39.3409 18.4629
39.5304 18.2185
39.7201 18.0154
39.9099 17.804
40.0999 17.5594
40.2899 17.3286
40.48 17.0877
40.6703 16.8994
40.8607 16.7005
41.0512 16.4984
41.242 16.2925
41.4327 16.0377
41.6236 15.7848
41.8146 15.6493
42.0057 15.3932
42.1969 15.1913
42.3882 15.0409
42.5797 14.815
42.7713 14.5993
42.963 14.3862
43.1549 14.2148
43.3468 13.9961
43.5389 13.827
43.7312 13.6304
43.9237 13.444
44.1162 13.2564
44.3088 13.0567
44.5016 12.886
44.6945 12.6622
44.8875 12.5669
45.0806 12.363
45.2739 12.1606
45.4673 12.0191
45.6609 11.8291
45.8546 11.7044
46.0484 11.5245
46.2424 11.3433
46.4365 11.1924
46.631 11.0148
46.8254 10.8431
47.0199 10.7085
47.2146 10.5247
47.4095 10.3497
47.6044 10.2144
47.7996 10.0841
47.9948 9.90919
48.1902 9.80449
48.3858 9.63855
48.5815 9.51405
48.7774 9.36061
48.9734 9.28458
49.1696 9.10985
49.3661 8.96476
49.5626 8.78507
49.7592 8.64407
49.956 8.58049
50.153 8.43244
50.3501 8.27522
50.5474 8.16584
50.7448 8.0995
50.9424 7.94203
51.1402 7.7714
51.3381 7.69364
51.5362 7.56698
51.7344 7.404
51.9328 7.30721
52.1316 7.12187
52.3304 7.08595
52.5293 6.96488
52.7284 6.84902
52.9276 6.68566
53.1271 6.61373
53.3267 6.48484
53.5265 6.38174
53.7264 6.27074
53.9266 6.17467
54.1269 6.05069
54.3274 5.91598
54.528 5.82348
54.7289 5.61506
54.9301 5.48338
55.1314 5.36237
55.3328 5.13193
55.5344 4.91838
55.7361 4.8119

File: Ni3Fe_FD0670.xy
TT I
1.27165 7.30477
1.45013 6.25205
1.62863 5.3062
1.80712 4.96604
1.98562 4.89281
2.16411 4.93003
2.34263 4.88175
2.52115 7.3109
2.69965 8.18539
2.87818 9.52838
3.05672 10.9522
3.23527 15.1349
3.4138 18.925
3.59237 23.547
3.77094 26.0597
3.9495 29.8665
4.12809 35.085
4.30669 167.741
4.4853 60.7044
4.6639 55.7462
4.84253 67.5739
5.02118 87.2712
5.19981 375.616
5.37848 181.337
5.55716 101.877
5.73586 92.4996
5.91455 94.8627
6.09328 4508.61
6.27201 81.892
6.45075 67.1729
6.62952 62.6545
6.8083 58.1607
6.98711 55.6259
7.16591 55.0688
7.34475 81.2217
7.5236 54.634
7.70247 55.9919
7.88135 57.4845
8.06026 62.183
8.23919 69.5377
8.41812 85.154
8.59709 1224.48
8.77609 98.2805
8.9551 90.1204
9.13412 81.823
9.31318 82.3459
9.49226 84.7452
9.67134 96.6221
9.85047 99.5879
10.0296 358.926
10.2088 372.093
10.388 104.248
10.5672 511.505
10.7465 86.2045
10.9257 77.5942
11.105 71.5571
11.2844 69.1601
11.4637 64.8215
11.6431 63.6017
11.8225 62.3062
12.002 63.7229
12.1814 153.163
12.3609 68.9822
12.5405 64.3404
12.72 68.9598
12.8996 70.8625
13.0792 79.4474
13.2589 245.696
13.4386 120.674
13.6183 253.092
13.7981 94.0375
13.9779 75.4135
14.1577 72.2156
14.3376 70.9261
14.5175 68.9044
14.6974 70.1484
14.8774 112.373
15.0574 142.175
15.2374 70.1742
15.4175 66.1398
15.5976 65.6112
15.7778 95.8837
15.958 153.472
16.1382 61.9358
16.3185 58.2239
16.4988 55.5005
16.6792 54.3937
16.8596 54.998
17.04 55.7322
17.2205 67.0672
17.401 69.7682
17.5815 59.1317
17.7622 61.0337
17.9428 74.1469
18.1237 142.653
18.3044 91.1524
18.4852 75.5769
18.666 60.1508
18.8469 57.7527
19.0278 56.7056
19.2088 59.4577
19.3898 76.7281
19.5709 54.0972
19.752 53.2551
19.9332 56.2218
20.1144 69.9462
20.2957 64.057
20.477 53.0284
20.6586 49.5132
20.84 48.6148
21.0215 48.4188
21.203 50.846
21.3846 48.8237
21.5662 48.7166
21.7479 52.5977
21.9297 64.9004
22.1115 56.2388
22.2933 49.5896
22.4753 48.5593
22.6572 48.9812
22.8393 52.0456
23.0214 57.1079
23.2037 48.7355
23.3859 49.5957
23.5682 57.2522
23.7505 47.8679
23.9329 45.0323
24.1154 43.9586
24.2979 43.3551
24.4805 42.8102
24.6631 42.6847
24.8458 42.3827
25.0286 42.9479
25.2114 44.5599
25.3943 44.4609
25.5773 40.8288
25.7605 40.3044
25.9436 40.8824
26.1268 41.6597
26.31 39.9644
26.4933 40.6468
26.6767 42.2342
26.8601 40.4031
27.0437 38.9747
27.2272 38.3449
27.4109 38.4664
27.5946 38.2703
27.7784 37.8255
27.9623 38.4661
28.1462 38.726
28.3304 37.0326
28.5145 35.9408
28.6987 35.6429
28.8829 35.4135
29.0673 34.6324
29.2517 34.2697
29.4361 34.0915
29.6207 33.1182
29.8053 32.887
29.99 32.4956
30.1748 32.4042
30.3597 32.2632
30.5447 32.1206
30.7297 32.1586
30.915 31.5304
31.1002 31.1365
31.2855 30.8254
31.4708 30.7585
31.6563 30.2754
31.8418 30.1072
32.0275 29.838
32.2132 29.2815
32.399 28.8424
32.5848 28.3245
32.7708 28.0791
32.9569 28.0074
33.143 27.7126
33.3293 27.3494
33.5158 26.9999
33.7022 26.6256
33.8887 26.3058
34.0753 25.9181
34.262 25.6774
34.4488 25.2722
34.6357 24.9628
34.8227 24.698
35.0098 24.4272
35.1969 24.2241
35.3842 24.0112
35.5716 23.7303
35.759 23.4201
35.9468 23.0536
36.1345 22.9639
36.3222 22.6409
36.5101 22.348
36.6981 22.0526
36.8861 21.7647
37.0743 21.4437
37.2626 21.2787
37.451 20.9998
37.6395 20.7811
37.8281 20.4913
38.0168 20.1938
38.2056 19.8991
38.3945 19.6339
38.5837 19.4897
38.7728 19.1555
38.9621 18.9385
39.1514 18.7176
39.3409 18.514
39.5304 18.1848
39.7201 18.0348
39.9099 17.7991
40.0999 17.555
40.2899 17.2939
40.48 17.0643
40.6703 16.8849
40.8607 16.7024
41.0512 16.4954
41.242 16.2459
41.4327 16.0346
41.6236 15.8821
41.8146 15.6082
42.0057 15.4184
42.1969 15.2291
42.3882 15.0283
42.5797 14.7992
42.7713 14.6104
42.963 14.3777
43.1549 14.2199
43.3468 13.9959
43.5389 13.8379
43.7312 13.5662
43.9237 13.4417
44.1162 13.2447
44.3088 13.0847
44.5016 12.8687
44.6945 12.7241
44.8875 12.5536
45.0806 12.3437
45.2739 12.1792
45.4673 12.0249
45.6609 11.852
45.8546 11.6865
46.0484 11.5661
46.2424 11.3278
46.4365 11.216
46.631 10.9927
46.8254 10.8614
47.0199 10.6816
47.2146 10.5565
47.4095 10.3429
47.6044 10.2486
47.7996 10.0878
47.9948 9.93434
48.1902 9.769
48.3858 9.63699
48.5815 9.55918
48.7774 9.3504
48.9734 9.18881
49.1696 9.06633
49.3661 8.94778
49.5626 8.80665
49.7592 8.73946
49.956 8.56867
50.153 8.40235
50.3501 8.28718
50.5474 8.16557
50.7448 8.03189
50.9424 7.92469
51.1402 7.79031
51.3381 7.6534
51.5362 7.5284
51.7344 7.43385
51.9328 7.27409
52.1316 7.16298
52.3304 7.03834
52.5293 6.9324
52.7284 6.85145
52.9276 6.67176
53.1271 6.61442
53.3267 6.46149
53.5265 6.40182
53.7264 6.26035
53.9266 6.19563
54.1269 6.06697
54.3274 5.90586
54.528 5.80494
54.7289 5.65792
54.9301 5.47789
55.1314 5.35285
55.3328 5.10268
55.5344 4.96565
55.7361 4.796

File: Ni3Fe_FD0672.xy
TT I
1.27165 7.40722
1.45013 6.15791
1.62863 5.20257
1.80712 4.68762
1.98562 4.97634
2.16411 4.81172
2.34263 5.54434
2.52115 7.10389
2.69965 7.87471
2.87818 8.92464
3.05672 11.7153
3.23527 15.0993
3.4138 18.6707
3.59237 23.1267
3.77094 26.2954
3.9495 29.8952
4.12809 34.5526
4.30669 163.091
4.4853 59.9218
4.6639 55.5858
4.84253 67.3989
5.02118 87.3061
5.19981 383.562
5.37848 181.271
5.55716 101.828
5.73586 92.2679
5.91455 95.4072
6.09328 4528.96
6.27201 81.6945
6.45075 67.1699
6.62952 62.1967
6.8083 58.3321
6.98711 55.7037
7.16591 55.1899
7.34475 80.5081
7.5236 54.7389
7.70247 55.8939
7.88135 57.8181
8.06026 62.2436
8.23919 69.9006
8.41812 85.0326
8.59709 1228.9
8.77609 98.252
8.9551 89.7253
9.13412 81.9453
9.31318 82.4328
9.49226 84.1145
9.67134 96.0775
9.85047 99.8572
10.0296 362.129
10.2088 377.397
10.388 104.53
10.5672 512.623
10.7465 86.284
10.9257 77.5625
11.105 71.6984
11.2844 69.5101
11.4637 64.9013
11.6431 63.3268
11.8225 62.3337
12.002 63.9319
12.1814 154.115
12.3609 68.7793
12.5405 64.2659
12.72 68.9552
12.8996 70.8666
13.0792 79.3945
13.2589 246.785
13.4386 120.003
13.6183 253.975
13.7981 94.088
13.9779 75.5129
14.1577 72.1377
14.3376 70.8114
14.5175 69.0265
14.6974 70.2468
14.8774 112.466
15.0574 141.507
15.2374 70.2426
15.4175 66.2596
15.5976 65.9002
15.7778 96.0957
15.958 152.428
16.1382 61.8701
16.3185 58.3399
16.4988 55.4618
16.6792 54.4634
16.8596 55.1753
17.04 56.0108
17.2205 67.0769
17.401 69.7995
17.5815 59.291
17.7622 61.1306
17.9428 74.3002
18.1237 142.694
18.3044 91.014
18.4852 75.4496
18.666 60.1956
18.8469 57.8633
19.0278 56.7504
19.2088 59.395
19.3898 76.6675
19.5709 53.9973
19.752 53.1869
19.9332 56.3809
20.1144 70.0046
20.2957 64.1661
20.477 52.8486
20.6586 49.5923
20.84 48.7011
21.0215 48.4231
21.203 50.751
21.3846 48.7787
21.5662 48.7916
21.7479 52.7574
21.9297 64.8267
22.1115 55.986
22.2933 49.7017
22.4753 48.662
22.6572 48.8671
22.8393 52.1141
23.0214 57.0875
23.2037 48.6476
23.3859 49.7076
23.5682 57.2255
23.7505 47.8357
23.9329 45.1722
24.1154 44.0727
24.2979 43.289
24.4805 42.9713
24.6631 42.825
24.8458 42.1582
25.0286 42.8139
25.2114 44.8034
25.3943 44.4265
25.5773 40.7435
25.7605 40.3393
25.9436 40.8002
26.1268 41.6104
26.31 40.0862
26.4933 40.7547
26.6767 42.137
26.8601 40.3302
27.0437 38.9619
27.2272 38.5449
27.4109 38.3367
27.5946 38.2851
27.7784 37.881
27.9623 38.3456
28.1462 38.7806
28.3304 36.9771
28.5145 35.7805
28.6987 35.578
28.8829 35.4287
29.0673 34.656
29.2517 34.2917
29.4361 34.1194
29.6207 33.1733
29.8053 32.8586
29.99 32.4756
30.1748 32.4335
30.3597 32.2421
30.5447 32.1238
30.7297 32.1408
30.915 31.6026
31.1002 31.1468
31.2855 30.8351
31.4708 30.7698
31.6563 30.345
31.8418 30.1436
32.0275 29.9649
32.2132 29.3166
32.399 28.9115
32.5848 28.4787
32.7708 28.1488
32.9569 27.9992
33.143 27.8205
33.3293 27.413
33.5158 26.9894
33.7022 26.5139
33.8887 26.3076
34.0753 26.0095
34.262 25.665
34.4488 25.3179
34.6357 24.9324
34.8227 24.6859
35.0098 24.5275
35.1969 24.1839
35.3842 24.0045
35.5716 23.8271
35.759 23.4284
35.9468 23.0908
36.1345 22.9295
36.3222 22.7045
36.5101 22.3614
36.6981 22.0858
36.8861 21.7866
37.0743 21.5054
37.2626 21.1816
37.451 20.96
37.6395 20.83
37.8281 20.4872
38.0168 20.1768
38.2056 19.9636
38.3945 19.7152
38.5837 19.4785
38.7728 19.1951
38.9621 18.9279
39.1514 18.6809
39.3409 18.4226
39.5304 18.2459
39.7201 18.0071
39.9099 17.7891
40.0999 17.5127
40.2899 17.2687
40.48 17.1281
40.6703 16.9391
40.8607 16.7173
41.0512 16.457
41.242 16.2362
41.4327 16.0353
41.6236 15.7851
41.8146 15.6865
42.0057 15.4127
42.1969 15.1677
42.3882 15.037
42.5797 14.8154
42.7713 14.6262
42.963 14.4096
43.1549 14.2499
43.3468 13.9854
43.5389 13.8333
43.7312 13.605
43.9237 13.4152
44.1162 13.2366
44.3088 13.0637
44.5016 12.8982
44.6945 12.7395
44.8875 12.5325
45.0806 12.367
45.2739 12.1423
45.4673 12.0524
45.6609 11.8339
45.8546 11.6649
46.0484 11.4715
46.2424 11.3359
46.4365 11.1473
46.631 11.0034
46.8254 10.8777
47.0199 10.6758
47.2146 10.5608
47.4095 10.37
47.6044 10.2245
47.7996 10.0616
47.9948 9.92373
48.1902 9.76998
48.3858 9.65649
48.5815 9.49901
48.7774 9.37527
48.9734 9.23828
49.1696 9.08806
49.3661 8.94352
49.5626 8.81113
49.7592 8.67572
49.956 8.55607
50.153 8.43448
50.3501 8.29677
50.5474 8.15893
50.7448 8.05125
50.9424 7.93883
51.1402 7.78845
51.3381 7.64656
51.5362 7.56579
51.7344 7.43687
51.9328 7.3077
52.1316 7.16147
52.3304 7.06089
52.5293 6.93271
52.7284 6.88875
52.9276 6.67613
53.1271 6.61205
53.3267 6.51661
53.5265 6.41421
53.7264 6.24656
53.9266 6.14938
54.1269 6.04344
54.3274 5.92643
54.528 5.80067
54.7289 5.62879
54.9301 5.45479
55.1314 5.37533
55.3328 5.15775
55.5344 4.95591
55.7361 4.80017

File: Ni3Fe_FD0673.xy
TT I
1.27165 6.78661
1.45013 6.39007
1.62863 5.27726
1.80712 5.28723
1.98562 4.20172
2.16411 4.53362
2.34263 5.64321
2.52115 7.16636
2.69965 7.86209
2.87818 8.74449
3.05672 11.2198
3.23527 14.9405
3.4138 18.9264
3.59237 22.949
3.77094 26.0262
3.9495 29.4097
4.12809 34.7326
4.30669 159.835
4.4853 59.0185
4.6639 55.5042
4.84253 67.5502
5.02118 87.1708
5.19981 384.915
5.37848 182.209
5.55716 101.893
5.73586 92.3102
5.91455 95.1974
6.09328 4564.21
6.27201 81.7215
6.45075 67.2823
6.62952 62.1599
6.8083 58.1565
6.98711 55.5263
7.16591 55.462
7.34475 80.1825
7.5236 54.4086
7.70247 55.927
7.88135 57.6878
8.06026 62.1356
8.23919 69.3736
8.41812 84.9773
8.59709 1221.18
8.77609 98.0546
8.9551 89.6655
9.13412 82.2034
9.31318 82.7035
9.49226 84.5408
9.67134 95.6973
9.85047 99.5293
10.0296 360.627
10.2088 373.272
10.388 104.389
10.5672 514.109
10.7465 86.2946
10.9257 77.52
11.105 71.4604
11.2844 69.4888
11.4637 64.8383
11.6431 63.4319
11.8225 62.2756
12.002 63.8173
12.1814 155.371
12.3609 68.6915
12.5405 64.038
12.72 68.9497
12.8996 70.8459
13.0792 79.4787
13.2589 245.705
13.4386 119.971
13.6183 253.756
13.7981 93.6159
13.9779 75.2904
14.1577 72.0881
14.3376 71.0218
14.5175 68.756
14.6974 70.4466
14.8774 112.256
15.0574 141.125
15.2374 69.974
15.4175 66.2097
15.5976 65.8291
15.7778 96.368
15.958 151.508
16.1382 61.8196
16.3185 58.044
16.4988 55.351
16.6792 54.3191
16.8596 55.0881
17.04 55.7339
17.2205 67.099
17.401 69.8423
17.5815 59.1566
17.7622 60.9296
17.9428 74.1572
18.1237 142.728
18.3044 91.1358
18.4852 75.351
18.666 60.2975
18.8469 57.98
19.0278 56.7853
19.2088 59.4822
19.3898 76.6506
19.5709 53.8714
19.752 53.1584
19.9332 56.0369
20.1144 69.6989
20.2957 64.0791
20.477 52.8382
20.6586 49.4589
20.84 48.6552
21.0215 48.3963
21.203 50.8348
21.3846 48.7277
21.5662 48.5808
21.7479 52.6335
21.9297 64.8602
22.1115 56.0717
22.2933 49.5922
22.4753 48.7065
22.6572 48.8466
22.8393 51.9519
23.0214 57.0459
23.2037 48.7077
23.3859 49.6168
23.5682 57.146
23.7505 47.8171
23.9329 45.1034
24.1154 43.9017
24.2979 43.2807
24.4805 42.6506
24.6631 42.6795
24.8458 42.2039
25.0286 42.8372
25.2114 44.6415
25.3943 44.489
25.5773 40.7514
25.7605 40.293
25.9436 40.7782
26.1268 41.7016
26.31 40.0285
26.4933 40.5681
26.6767 42.1123
26.8601 40.4438
27.0437 38.6982
27.2272 38.4234
27.4109 38.3172
27.5946 38.3332
27.7784 37.881
27.9623 38.4489
28.1462 38.6322
28.3304 36.9825
28.5145 35.7732
28.6987 35.5812
28.8829 35.3904
29.0673 34.5695
29.2517 34.4283
29.4361 34.0438
29.6207 33.0872
29.8053 32.7734
29.99 32.4495
30.1748 32.3609
30.3597 32.2255
30.5447 32.2766
30.7297 32.138
30.915 31.5078
31.1002 31.053
31.2855 30.7766
31.4708 30.7312
31.6563 30.1915
31.8418 30.2242
32.0275 29.8179
32.2132 29.2811
32.399 28.9167
32.5848 28.4106
32.7708 28.0936
32.9569 27.9708
33.143 27.7312
33.3293 27.3027
33.5158 26.9676
33.7022 26.521
33.8887 26.2565
34.0753 25.9509
34.262 25.6211
34.4488 25.1952
34.6357 24.9927
34.8227 24.6315
35.0098 24.3745
35.1969 24.1888
35.3842 23.9732
35.5716 23.7178
35.759 23.4748
35.9468 23.0461
36.1345 22.7746
36.3222 22.6255
36.5101 22.3846
36.6981 22.0157
36.8861 21.7408
37.0743 21.4727
37.2626 21.3077
37.451 20.9727
37.6395 20.7515
37.8281 20.4084
38.0168 20.1955
38.2056 19.8773
38.3945 19.6331
38.5837 19.4394
38.7728 19.1637
38.9621 18.922
39.1514 18.6877
39.3409 18.4704
39.5304 18.2041
39.7201 18.015
39.9099 17.7716
40.0999 17.5491
40.2899 17.384
40.48 17.0441
40.6703 16.8596
40.8607 16.7099
41.0512 16.468
41.242 16.1676
41.4327 16.0541
41.6236 15.7762
41.8146 15.5458
42.0057 15.3487
42.1969 15.1763
42.3882 14.9996
42.5797 14.7293
42.7713 14.6604
42.963 14.4324
43.1549 14.1812
43.3468 13.9845
43.5389 13.8313
43.7312 13.5879
43.9237 13.4629
44.1162 13.2317
44.3088 13.0535
44.5016 12.8624
44.6945 12.678
44.8875 12.5616
45.0806 12.3429
45.2739 12.1445
45.4673 12.0383
45.6609 11.85
45.8546 11.6708
46.0484 11.5101
46.2424 11.3165
46.4365 11.1885
46.631 10.9866
46.8254 10.8501
47.0199 10.6867
47.2146 10.5742
47.4095 10.3742
47.6044 10.2396
47.7996 10.0662
47.9948 9.90875
48.1902 9.81012
48.3858 9.65718
48.5815 9.52269
48.7774 9.35083
48.9734 9.21768
49.1696 9.06894
49.3661 8.92738
49.5626 8.7701
49.7592 8.69654
49.956 8.56099
50.153 8.45725
50.3501 8.24296
50.5474 8.13823
50.7448 8.04271
50.9424 7.93787
51.1402 7.78134
51.3381 7.64466
51.5362 7.49878
51.7344 7.40068
51.9328 7.30373
52.1316 7.13957
52.3304 7.05014
52.5293 6.93736
52.7284 6.80588
52.9276 6.68734
53.1271 6.6059
53.3267 6.49377
53.5265 6.36468
53.7264 6.25777
53.9266 6.15995
54.1269 6.05453
54.3274 5.95631
54.528 5.77024
54.7289 5.6399
54.9301 5.48949
55.1314 5.31434
55.3328 5.1453
55.5344 4.94285
55.7361 4.84244

File: Ni3Fe_FD0674.xy
TT I
1.27165 7.46449
1.45013 6.28813
1.62863 4.93676
1.80712 4.95614
1.98562 5.03846
2.16411 5.07719
2.34263 5.97089
2.52115 6.46766
2.69965 7.98578
2.87818 9.05231
3.05672 11.1002
3.23527 14.807
3.4138 19.0511
3.59237 23.3998
3.77094 26.0023
3.9495 29.7774
4.12809 34.5667
4.30669 158.061
4.4853 59.5203
4.6639 55.2149
4.84253 67.447
5.02118 87.7133
5.19981 389.584
5.37848 182.276
5.55716 102.194
5.73586 92.6657
5.91455 94.7859
6.09328 4558.91
6.27201 81.5233
6.45075 67.2108
6.62952 62.0761
6.8083 58.2957
6.98711 55.4737
7.16591 54.8872
7.34475 79.3719
7.5236 54.6938
7.70247 56.1503
7.88135 57.8039
8.06026 62.7111
8.23919 69.267
8.41812 85.2474
8.59709 1227.87
8.77609 98.3335
8.9551 89.2262
9.13412 82.1363
9.31318 82.6521
9.49226 84.8034
9.67134 96.0322
9.85047 99.6318
10.0296 362.68
10.2088 374.588
10.388 104.652
10.5672 513.565
10.7465 86.3827
10.9257 77.7279
11.105 71.4486
11.2844 69.1477
11.4637 64.3642
11.6431 63.4484
11.8225 62.3462
12.002 64.1028
12.1814 154.13
12.3609 68.4555
12.5405 64.3959
12.72 68.7723
12.8996 70.9114
13.0792 79.7393
13.2589 247.307
13.4386 119.911
13.6183 254.661
13.7981 93.6117
13.9779 75.5892
14.1577 71.9689
14.3376 71.0787
14.5175 69.0439
14.6974 70.4147
14.8774 113.017
15.0574 141.341
15.2374 69.857
15.4175 66.0406
15.5976 65.8702
15.7778 96.425
15.958 152.08
16.1382 61.8927
16.3185 58.0435
16.4988 55.4071
16.6792 54.4889
16.8596 54.8508
17.04 55.9131
17.2205 67.196
17.401 69.8721
17.5815 59.1364
17.7622 61.2659
17.9428 74.3671
18.1237 142.798
18.3044 91.1707
18.4852 75.4761
18.666 60.3393
18.8469 57.9896
19.0278 56.6072
19.2088 59.4786
19.3898 76.4363
19.5709 54.0412
19.752 53.3724
19.9332 56.3911
20.1144 69.7943
20.2957 64.1521
20.477 52.8475
20.6586 49.5086
20.84 48.798
21.0215 48.5536
21.203 50.9521
21.3846 48.6467
21.5662 48.8687
21.7479 52.7246
21.9297 64.8942
22.1115 55.9852
22.2933 49.7427
22.4753 48.5628
22.6572 48.9704
22.8393 52.1292
23.0214 57.1885
23.2037 48.5279
23.3859 49.6642
23.5682 57.427
23.7505 47.8567
23.9329 45.1147
24.1154 44.0008
24.2979 43.2556
24.4805 43.0771
24.6631 42.753
24.8458 42.1255
25.0286 42.8523
25.2114 44.6966
25.3943 44.4882
25.5773 40.8183
25.7605 40.4293
25.9436 40.9068
26.1268 41.5756
26.31 40.098
26.4933 40.7825
26.6767 42.1543
26.8601 40.3326
27.0437 38.7584
27.2272 38.5845
27.4109 38.4446
27.5946 38.4289
27.7784 37.8174
27.9623 38.4643
28.1462 38.6502
28.3304 36.9592
28.5145 35.8275
28.6987 35.6095
28.8829 35.4028
29.0673 34.5764
29.2517 34.24
29.4361 34.0601
29.6207 33.0053
29.8053 32.8182
29.99 32.4774
30.1748 32.4218
30.3597 32.2529
30.5447 32.0604
30.7297 32.1576
30.915 31.4802
31.1002 31.0903
31.2855 30.8199
31.4708 30.7973
31.6563 30.3672
31.8418 30.0821
32.0275 29.798
32.2132 29.4426
32.399 28.8954
32.5848 28.4058
32.7708 28.0191
32.9569 28.0986
33.143 27.784
33.3293 27.3622
33.5158 27.012
33.7022 26.4525
33.8887 26.317
34.0753 25.977
34.262 25.5295
34.4488 25.2913
34.6357 24.8901
34.8227 24.6577
35.0098 24.4474
35.1969 24.0914
35.3842 24.014
35.5716 23.6932
35.759 23.381
35.9468 23.1496
36.1345 22.9063
36.3222 22.5923
36.5101 22.3803
36.6981 22.087
36.8861 21.759
37.0743 21.4887
37.2626 21.2182
37.451 20.9987
37.6395 20.8532
37.8281 20.4736
38.0168 20.1494
38.2056 19.9184
38.3945 19.6441
38.5837 19.4523
38.7728 19.1429
38.9621 18.924
39.1514 18.7347
39.3409 18.4517
39.5304 18.2937
39.7201 18.0568
39.9099 17.8205
40.0999 17.5662
40.2899 17.337
40.48 17.0616
40.6703 16.9098
40.8607 16.7037
41.0512 16.5137
41.242 16.21
41.4327 16.0446
41.6236 15.8104
41.8146 15.6739
42.0057 15.37
42.1969 15.2336
42.3882 14.9931
42.5797 14.7638
42.7713 14.6299
42.963 14.3358
43.1549 14.1994
43.3468 14.0231
43.5389 13.824
43.7312 13.6318
43.9237 13.432
44.1162 13.2286
44.3088 13.0353
44.5016 12.8865
44.6945 12.7184
44.8875 12.56
45.0806 12.3717
45.2739 12.2326
45.4673 12.0507
45.6609 11.7984
45.8546 11.6871
46.0484 11.4851
46.2424 11.3599
46.4365 11.1705
46.631 11.0155
46.8254 10.8408
47.0199 10.7186
47.2146 10.5597
47.4095 10.3747
47.6044 10.2424
47.7996 10.0708
47.9948 9.92177
48.1902 9.81983
48.3858 9.64962
48.5815 9.48957
48.7774 9.39232
48.9734 9.22267
49.1696 9.10058
49.3661 8.91955
49.5626 8.80009
49.7592 8.69321
49.956 8.55225
50.153 8.40815
50.3501 8.26438
50.5474 8.18071
50.7448 8.03494
50.9424 7.91823
51.1402 7.77137
51.3381 7.64271
51.5362 7.53299
51.7344 7.40265
51.9328 7.27408
52.1316 7.14152
52.3304 7.09198
52.5293 6.91743
52.7284 6.83657
52.9276 6.66144
53.1271 6.60671
53.3267 6.4945
53.5265 6.37914
53.7264 6.27966
53.9266 6.17684
54.1269 6.0743
54.3274 5.92888
54.528 5.75642
54.7289 5.59012
54.9301 5.45575
55.1314 5.32952
55.3328 5.14814
55.5344 4.94025
55.7361 4.81544