Folder: NiFe_MOF_catalyst_paper/XRD (part 20)

File: Ni3Fe_FD0100.xy
TT I
1.27165 8.87407
1.45013 7.50271
1.62863 5.97858
1.80712 5.60156
1.98562 5.75904
2.16411 5.00425
2.34263 4.34502
2.52115 4.64767
2.69965 5.18773
2.87818 7.69072
3.05672 10.8253
3.23527 14.8463
3.4138 18.3436
3.59237 21.2342
3.77094 24.4669
3.9495 28.3052
4.12809 32.2301
4.30669 37.3377
4.4853 44.4038
4.6639 52.8236
4.84253 66.1264
5.02118 93.1374
5.19981 666.217
5.37848 678.937
5.55716 111.572
5.73586 97.4039
5.91455 111.692
6.09328 2151.93
6.27201 95.6789
6.45075 66.4203
6.62952 59.2113
6.8083 54.6077
6.98711 52.6129
7.16591 51.8724
7.34475 51.5455
7.5236 58.3405
7.70247 53.0953
7.88135 55.2157
8.06026 59.8968
8.23919 66.8611
8.41812 84.3021
8.59709 755.809
8.77609 129.77
8.9551 84.9672
9.13412 80.4835
9.31318 94.9604
9.49226 82.244
9.67134 87.2086
9.85047 98.0448
10.0296 589.254
10.2088 1202.83
10.388 104.882
10.5672 261.697
10.7465 94.981
10.9257 74.981
11.105 68.951
11.2844 65.1366
11.4637 62.3449
11.6431 61.0724
11.8225 60.0935
12.002 69.0504
12.1814 103.727
12.3609 81.4905
12.5405 61.6757
12.72 63.9989
12.8996 68.4779
13.0792 78.6555
13.2589 184.583
13.4386 253.691
13.6183 167.642
13.7981 187.628
13.9779 74.9323
14.1577 76.4805
14.3376 67.829
14.5175 67.1725
14.6974 68.5103
14.8774 120.164
15.0574 206.327
15.2374 68.4531
15.4175 65.0568
15.5976 64.7306
15.7778 107.966
15.958 175.037
16.1382 62.0201
16.3185 56.4056
16.4988 53.8985
16.6792 52.9675
16.8596 53.2297
17.04 54.5215
17.2205 62.977
17.401 80.8752
17.5815 57.9191
17.7622 60.6771
17.9428 85.035
18.1237 99.987
18.3044 87.5914
18.4852 99.6366
18.666 60.2033
18.8469 57.141
19.0278 55.7979
19.2088 61.3675
19.3898 64.9267
19.5709 56.8594
19.752 52.5316
19.9332 57.679
20.1144 63.2935
20.2957 59.4421
20.477 60.5512
20.6586 49.1092
20.84 48.3477
21.0215 48.2345
21.203 48.4486
21.3846 50.2673
21.5662 48.1418
21.7479 53.265
21.9297 58.4593
22.1115 55.94
22.2933 53.1579
22.4753 48.1541
22.6572 48.2812
22.8393 50.8194
23.0214 54.4924
23.2037 49.7163
23.3859 51.225
23.5682 50.9696
23.7505 54.7559
23.9329 44.9324
24.1154 43.5514
24.2979 42.9956
24.4805 42.1587
24.6631 42.3355
24.8458 41.8213
25.0286 42.1688
25.2114 43.2862
25.3943 43.6483
25.5773 41.5289
25.7605 40.1114
25.9436 40.2543
26.1268 40.5122
26.31 40.6414
26.4933 40.0312
26.6767 40.7937
26.8601 40.8256
27.0437 39.1067
27.2272 38.2892
27.4109 37.8549
27.5946 37.9118
27.7784 38.0387
27.9623 37.7622
28.1462 38.3975
28.3304 37.4287
28.5145 35.7542
28.6987 35.406
28.8829 34.8472
29.0673 34.6613
29.2517 33.7974
29.4361 33.4895
29.6207 33.1094
29.8053 32.5766
29.99 32.2507
30.1748 31.8646
30.3597 31.9218
30.5447 31.7948
30.7297 31.5973
30.915 31.5388
31.1002 30.8737
31.2855 30.4847
31.4708 30.4085
31.6563 30.3564
31.8418 29.7469
32.0275 29.5953
32.2132 29.2461
32.399 28.6344
32.5848 28.2054
32.7708 27.8258
32.9569 27.7533
33.143 27.4199
33.3293 27.0837
33.5158 26.8713
33.7022 26.2432
33.8887 26.0458
34.0753 25.7197
34.262 25.3861
34.4488 24.9574
34.6357 24.6026
34.8227 24.3468
35.0098 24.2039
35.1969 23.9034
35.3842 23.6293
35.5716 23.4616
35.759 23.2953
35.9468 22.8491
36.1345 22.5513
36.3222 22.4795
36.5101 22.1524
36.6981 21.8791
36.8861 21.6644
37.0743 21.2141
37.2626 20.9775
37.451 20.781
37.6395 20.6144
37.8281 20.2856
38.0168 20.0225
38.2056 19.7944
38.3945 19.4929
38.5837 19.2289
38.7728 18.9954
38.9621 18.7672
39.1514 18.5191
39.3409 18.2713
39.5304 18.0563
39.7201 17.892
39.9099 17.6138
40.0999 17.4436
40.2899 17.1328
40.48 16.9211
40.6703 16.7472
40.8607 16.5444
41.0512 16.3142
41.242 16.0553
41.4327 15.8804
41.6236 15.6423
41.8146 15.4831
42.0057 15.2473
42.1969 15.0176
42.3882 14.889
42.5797 14.6235
42.7713 14.4337
42.963 14.311
43.1549 14.0456
43.3468 13.8854
43.5389 13.664
43.7312 13.4675
43.9237 13.2774
44.1162 13.1129
44.3088 13.0001
44.5016 12.7314
44.6945 12.5551
44.8875 12.4065
45.0806 12.2065
45.2739 12.0323
45.4673 11.9122
45.6609 11.7189
45.8546 11.5299
46.0484 11.3828
46.2424 11.216
46.4365 11.0623
46.631 10.899
46.8254 10.723
47.0199 10.571
47.2146 10.44
47.4095 10.2783
47.6044 10.1058
47.7996 9.95767
47.9948 9.83328
48.1902 9.67093
48.3858 9.57405
48.5815 9.41378
48.7774 9.27746
48.9734 9.13832
49.1696 9.00724
49.3661 8.88482
49.5626 8.74014
49.7592 8.61678
49.956 8.50292
50.153 8.34436
50.3501 8.20885
50.5474 8.10049
50.7448 7.98294
50.9424 7.86668
51.1402 7.74588
51.3381 7.62841
51.5362 7.49671
51.7344 7.32923
51.9328 7.21057
52.1316 7.11775
52.3304 7.02391
52.5293 6.90618
52.7284 6.75161
52.9276 6.64217
53.1271 6.62012
53.3267 6.39322
53.5265 6.33818
53.7264 6.1992
53.9266 6.10154
54.1269 6.00097
54.3274 5.87187
54.528 5.68659
54.7289 5.51626
54.9301 5.36751
55.1314 5.21183
55.3328 5.00604
55.5344 4.78056
55.7361 4.62904

File: Ni3Fe_FD0101.xy
TT I
1.27165 9.29907
1.45013 6.95103
1.62863 6.7713
1.80712 5.62688
1.98562 5.30737
2.16411 5.08521
2.34263 4.14982
2.52115 4.65839
2.69965 5.15012
2.87818 7.5488
3.05672 10.7668
3.23527 14.84
3.4138 18.8787
3.59237 21.2093
3.77094 24.5892
3.9495 28.2968
4.12809 32.4917
4.30669 37.0653
4.4853 44.2322
4.6639 53.3678
4.84253 65.4288
5.02118 93.3725
5.19981 665.17
5.37848 669.925
5.55716 111.431
5.73586 97.5695
5.91455 111.509
6.09328 2184.34
6.27201 95.9757
6.45075 66.7578
6.62952 58.9762
6.8083 54.9132
6.98711 53.1247
7.16591 51.3978
7.34475 51.4346
7.5236 58.172
7.70247 53.1708
7.88135 55.3625
8.06026 60.0092
8.23919 66.8418
8.41812 84.0758
8.59709 759.294
8.77609 128.363
8.9551 84.6801
9.13412 80.6187
9.31318 94.6082
9.49226 82.4082
9.67134 87.7806
9.85047 97.9989
10.0296 587.777
10.2088 1197.56
10.388 105.148
10.5672 264.374
10.7465 94.7282
10.9257 74.81
11.105 69.2382
11.2844 65.2137
11.4637 62.3588
11.6431 60.9873
11.8225 60.1098
12.002 69.0467
12.1814 104.366
12.3609 80.754
12.5405 62.273
12.72 63.8773
12.8996 68.6025
13.0792 78.7771
13.2589 184.529
13.4386 248.32
13.6183 168.642
13.7981 183.877
13.9779 75.3286
14.1577 76.3733
14.3376 67.798
14.5175 66.9774
14.6974 68.7254
14.8774 119.915
15.0574 206.552
15.2374 68.209
15.4175 65.1709
15.5976 64.6707
15.7778 107.446
15.958 175.498
16.1382 61.9201
16.3185 56.388
16.4988 54.171
16.6792 52.9323
16.8596 53.2167
17.04 54.3814
17.2205 63.0462
17.401 80.9009
17.5815 57.9083
17.7622 60.4846
17.9428 84.6499
18.1237 101.038
18.3044 87.1549
18.4852 99.0022
18.666 60.1677
18.8469 57.2462
19.0278 55.7987
19.2088 61.296
19.3898 65.0255
19.5709 56.7958
19.752 52.4194
19.9332 57.6353
20.1144 63.5305
20.2957 59.3945
20.477 60.3829
20.6586 48.9701
20.84 48.466
21.0215 48.1948
21.203 48.3317
21.3846 50.2327
21.5662 48.1786
21.7479 53.2333
21.9297 58.6604
22.1115 55.8803
22.2933 52.6379
22.4753 48.0153
22.6572 48.1421
22.8393 50.9156
23.0214 54.5279
23.2037 49.4961
23.3859 51.315
23.5682 51.1815
23.7505 54.4257
23.9329 45.0589
24.1154 43.5784
24.2979 42.9203
24.4805 42.1716
24.6631 42.4551
24.8458 41.6815
25.0286 42.2932
25.2114 43.3267
25.3943 43.6316
25.5773 41.3836
25.7605 40.1192
25.9436 40.299
26.1268 40.5594
26.31 40.5727
26.4933 40.0485
26.6767 40.8101
26.8601 40.9651
27.0437 39.0723
27.2272 38.2445
27.4109 37.8352
27.5946 38.0398
27.7784 38.0821
27.9623 37.8343
28.1462 38.4554
28.3304 37.4256
28.5145 35.8003
28.6987 35.27
28.8829 34.8039
29.0673 34.705
29.2517 33.8745
29.4361 33.6339
29.6207 33.1891
29.8053 32.4856
29.99 32.1635
30.1748 31.9478
30.3597 32.1166
30.5447 31.7544
30.7297 31.6248
30.915 31.6321
31.1002 30.9555
31.2855 30.6234
31.4708 30.2857
31.6563 30.3637
31.8418 29.8283
32.0275 29.5496
32.2132 29.2151
32.399 28.6893
32.5848 28.1877
32.7708 27.8353
32.9569 27.7494
33.143 27.3498
33.3293 27.1678
33.5158 26.7919
33.7022 26.2824
33.8887 25.9279
34.0753 25.7369
34.262 25.3507
34.4488 25.0293
34.6357 24.6541
34.8227 24.4546
35.0098 24.2218
35.1969 23.9447
35.3842 23.6338
35.5716 23.5271
35.759 23.1985
35.9468 22.8498
36.1345 22.5905
36.3222 22.4179
36.5101 22.1792
36.6981 21.9033
36.8861 21.6442
37.0743 21.2768
37.2626 21.0327
37.451 20.7333
37.6395 20.6099
37.8281 20.3261
38.0168 19.9603
38.2056 19.7048
38.3945 19.4569
38.5837 19.238
38.7728 18.9351
38.9621 18.7823
39.1514 18.5183
39.3409 18.2233
39.5304 17.9991
39.7201 17.8392
39.9099 17.6251
40.0999 17.4409
40.2899 17.1857
40.48 16.959
40.6703 16.7306
40.8607 16.5647
41.0512 16.3455
41.242 16.1129
41.4327 15.8523
41.6236 15.6259
41.8146 15.4606
42.0057 15.2658
42.1969 15.0605
42.3882 14.8646
42.5797 14.6709
42.7713 14.4665
42.963 14.2787
43.1549 14.0444
43.3468 13.8354
43.5389 13.6992
43.7312 13.475
43.9237 13.2969
44.1162 13.1511
44.3088 12.945
44.5016 12.7524
44.6945 12.5667
44.8875 12.3996
45.0806 12.2579
45.2739 12.0547
45.4673 11.9069
45.6609 11.7184
45.8546 11.5446
46.0484 11.3957
46.2424 11.2504
46.4365 11.1124
46.631 10.8738
46.8254 10.7706
47.0199 10.5702
47.2146 10.4298
47.4095 10.2724
47.6044 10.0834
47.7996 9.99461
47.9948 9.83711
48.1902 9.679
48.3858 9.58141
48.5815 9.43602
48.7774 9.29802
48.9734 9.14929
49.1696 9.00614
49.3661 8.88518
49.5626 8.73394
49.7592 8.59485
49.956 8.46927
50.153 8.36267
50.3501 8.22438
50.5474 8.09682
50.7448 8.01464
50.9424 7.84892
51.1402 7.73291
51.3381 7.58056
51.5362 7.50183
51.7344 7.35642
51.9328 7.22327
52.1316 7.12631
52.3304 7.01385
52.5293 6.87694
52.7284 6.76346
52.9276 6.66942
53.1271 6.59083
53.3267 6.45263
53.5265 6.30056
53.7264 6.19321
53.9266 6.0936
54.1269 5.98104
54.3274 5.8508
54.528 5.68042
54.7289 5.54667
54.9301 5.35578
55.1314 5.21537
55.3328 4.97618
55.5344 4.77965
55.7361 4.70571

File: Ni3Fe_FD0102.xy
TT I
1.27165 8.30229
1.45013 6.98051
1.62863 6.03996
1.80712 5.6039
1.98562 5.82866
2.16411 4.48991
2.34263 4.03808
2.52115 3.61716
2.69965 5.55981
2.87818 7.42284
3.05672 11.2962
3.23527 14.4016
3.4138 18.6171
3.59237 21.0515
3.77094 24.6318
3.9495 27.9244
4.12809 32.1743
4.30669 36.6343
4.4853 44.4607
4.6639 53.0759
4.84253 66.0037
5.02118 93.1756
5.19981 659.973
5.37848 657.617
5.55716 110.748
5.73586 97.0549
5.91455 110.73
6.09328 2193.72
6.27201 95.0977
6.45075 66.6318
6.62952 59.4594
6.8083 54.8348
6.98711 52.6526
7.16591 51.3826
7.34475 50.9059
7.5236 58.2637
7.70247 53.2431
7.88135 55.4374
8.06026 59.7487
8.23919 66.6519
8.41812 84.159
8.59709 765.165
8.77609 127.52
8.9551 85.0009
9.13412 80.7919
9.31318 93.6619
9.49226 82.587
9.67134 87.4367
9.85047 98.0052
10.0296 586.886
10.2088 1168.45
10.388 104.962
10.5672 267.104
10.7465 93.9471
10.9257 74.9419
11.105 69.1757
11.2844 64.9706
11.4637 62.5406
11.6431 61.2723
11.8225 60.1562
12.002 68.5647
12.1814 104.793
12.3609 80.4503
12.5405 61.8339
12.72 64.145
12.8996 68.657
13.0792 78.6524
13.2589 185.746
13.4386 248.596
13.6183 169.472
13.7981 183.221
13.9779 74.9351
14.1577 76.5038
14.3376 67.7839
14.5175 67.3351
14.6974 68.7079
14.8774 120.031
15.0574 207.68
15.2374 68.544
15.4175 65.0538
15.5976 64.4792
15.7778 107.551
15.958 175.528
16.1382 61.9522
16.3185 56.5563
16.4988 54.2136
16.6792 53.2877
16.8596 53.4096
17.04 54.5295
17.2205 63.0835
17.401 80.7043
17.5815 58.0102
17.7622 60.4448
17.9428 84.7631
18.1237 101.112
18.3044 87.2767
18.4852 99.4907
18.666 60.2551
18.8469 57.1572
19.0278 55.6376
19.2088 61.3165
19.3898 65.0313
19.5709 56.8031
19.752 52.2894
19.9332 57.6373
20.1144 63.6125
20.2957 59.3961
20.477 60.3693
20.6586 49.046
20.84 48.3929
21.0215 48.2414
21.203 48.3708
21.3846 50.0342
21.5662 48.1274
21.7479 53.1516
21.9297 58.6838
22.1115 55.6786
22.2933 52.6987
22.4753 48.029
22.6572 48.2934
22.8393 50.9064
23.0214 54.5534
23.2037 49.3575
23.3859 51.2262
23.5682 50.9752
23.7505 54.4003
23.9329 44.9661
24.1154 43.7899
24.2979 42.8986
24.4805 42.3614
24.6631 42.3911
24.8458 41.7682
25.0286 42.3979
25.2114 43.5149
25.3943 43.6551
25.5773 41.4149
25.7605 40.0808
25.9436 40.2232
26.1268 40.6881
26.31 40.5667
26.4933 40.1604
26.6767 40.9611
26.8601 40.8074
27.0437 39.1191
27.2272 38.2711
27.4109 37.8665
27.5946 37.9929
27.7784 37.9431
27.9623 37.7869
28.1462 38.451
28.3304 37.3834
28.5145 35.8592
28.6987 35.3929
28.8829 34.7992
29.0673 34.71
29.2517 33.9957
29.4361 33.4778
29.6207 33.1349
29.8053 32.5054
29.99 32.237
30.1748 31.9889
30.3597 31.9856
30.5447 31.8716
30.7297 31.7144
30.915 31.5981
31.1002 30.9911
31.2855 30.5308
31.4708 30.4474
31.6563 30.385
31.8418 29.8297
32.0275 29.5409
32.2132 29.1847
32.399 28.6391
32.5848 28.2041
32.7708 27.8484
32.9569 27.7922
33.143 27.4165
33.3293 27.0683
33.5158 26.8386
33.7022 26.2877
33.8887 25.9873
34.0753 25.8024
34.262 25.3022
34.4488 24.9844
34.6357 24.701
34.8227 24.4195
35.0098 24.2016
35.1969 23.9533
35.3842 23.5968
35.5716 23.4592
35.759 23.2764
35.9468 22.7919
36.1345 22.569
36.3222 22.4679
36.5101 22.1312
36.6981 21.8489
36.8861 21.5514
37.0743 21.2333
37.2626 21.06
37.451 20.7451
37.6395 20.6197
37.8281 20.2197
38.0168 19.9297
38.2056 19.6927
38.3945 19.4174
38.5837 19.1938
38.7728 19.0058
38.9621 18.7543
39.1514 18.5219
39.3409 18.2739
39.5304 18.03
39.7201 17.8472
39.9099 17.6365
40.0999 17.3726
40.2899 17.1642
40.48 16.9358
40.6703 16.7676
40.8607 16.5524
41.0512 16.3216
41.242 16.0627
41.4327 15.8461
41.6236 15.6331
41.8146 15.4594
42.0057 15.2575
42.1969 15.0821
42.3882 14.9085
42.5797 14.6853
42.7713 14.4201
42.963 14.2978
43.1549 14.0924
43.3468 13.8795
43.5389 13.6969
43.7312 13.4881
43.9237 13.3003
44.1162 13.1372
44.3088 12.9538
44.5016 12.7751
44.6945 12.6032
44.8875 12.418
45.0806 12.2095
45.2739 12.0753
45.4673 11.8873
45.6609 11.6959
45.8546 11.57
46.0484 11.4066
46.2424 11.2412
46.4365 11.0964
46.631 10.9035
46.8254 10.7371
47.0199 10.5929
47.2146 10.4186
47.4095 10.2676
47.6044 10.1328
47.7996 9.95656
47.9948 9.79252
48.1902 9.68711
48.3858 9.56697
48.5815 9.42632
48.7774 9.28848
48.9734 9.14647
49.1696 8.99867
49.3661 8.85828
49.5626 8.74612
49.7592 8.60086
49.956 8.47267
50.153 8.34526
50.3501 8.23672
50.5474 8.11444
50.7448 7.98664
50.9424 7.88318
51.1402 7.74327
51.3381 7.59909
51.5362 7.46985
51.7344 7.36264
51.9328 7.25818
52.1316 7.09056
52.3304 7.01959
52.5293 6.85109
52.7284 6.82904
52.9276 6.63329
53.1271 6.54256
53.3267 6.46458
53.5265 6.31365
53.7264 6.2105
53.9266 6.10097
54.1269 5.94243
54.3274 5.88761
54.528 5.71445
54.7289 5.54723
54.9301 5.35019
55.1314 5.17498
55.3328 4.94342
55.5344 4.78629
55.7361 4.66246

File: Ni3Fe_FD0103.xy
TT I
1.27165 8.10477
1.45013 7.11584
1.62863 6.42111
1.80712 5.28648
1.98562 5.01698
2.16411 4.69531
2.34263 3.74293
2.52115 3.7426
2.69965 5.45516
2.87818 7.3752
3.05672 10.912
3.23527 14.8449
3.4138 18.1624
3.59237 21.5132
3.77094 24.4234
3.9495 28.0113
4.12809 31.866
4.30669 37.2486
4.4853 44.0349
4.6639 53.392
4.84253 65.349
5.02118 92.9596
5.19981 651.758
5.37848 646.06
5.55716 110.874
5.73586 97.1756
5.91455 109.792
6.09328 2217.83
6.27201 94.9771
6.45075 66.3694
6.62952 59.0794
6.8083 54.3826
6.98711 52.1065
7.16591 51.3082
7.34475 51.2425
7.5236 58.0563
7.70247 53.0352
7.88135 55.2586
8.06026 59.6893
8.23919 66.7916
8.41812 83.9282
8.59709 769.293
8.77609 127.615
8.9551 85.1277
9.13412 80.726
9.31318 93.3723
9.49226 82.597
9.67134 87.3792
9.85047 97.8324
10.0296 583.238
10.2088 1172.64
10.388 104.923
10.5672 269.067
10.7465 93.6298
10.9257 74.2529
11.105 69.1372
11.2844 64.8804
11.4637 62.5008
11.6431 61.0381
11.8225 60.0112
12.002 68.1131
12.1814 105.073
12.3609 80.5451
12.5405 62.2666
12.72 64.2426
12.8996 68.7795
13.0792 78.257
13.2589 186.682
13.4386 247.885
13.6183 170.682
13.7981 181.931
13.9779 75.1321
14.1577 75.9339
14.3376 67.8207
14.5175 67.1742
14.6974 68.7031
14.8774 120.224
15.0574 206.609
15.2374 68.4275
15.4175 64.8936
15.5976 64.5845
15.7778 107.774
15.958 176.816
16.1382 61.8723
16.3185 56.3657
16.4988 54.1112
16.6792 52.9994
16.8596 53.3381
17.04 54.383
17.2205 63.3142
17.401 81.0166
17.5815 58.0054
17.7622 60.2997
17.9428 84.6844
18.1237 101.647
18.3044 87.482
18.4852 99.1171
18.666 59.8448
18.8469 57.2768
19.0278 55.7325
19.2088 61.2587
19.3898 65.1892
19.5709 56.8048
19.752 52.3581
19.9332 57.6808
20.1144 63.611
20.2957 59.5843
20.477 60.6254
20.6586 49.0627
20.84 48.3729
21.0215 48.4006
21.203 48.4227
21.3846 50.2478
21.5662 48.1822
21.7479 53.3712
21.9297 58.7415
22.1115 55.9636
22.2933 52.6922
22.4753 47.9402
22.6572 48.3813
22.8393 50.9412
23.0214 54.6766
23.2037 49.6168
23.3859 51.27
23.5682 51.2318
23.7505 54.4827
23.9329 44.9474
24.1154 43.7187
24.2979 42.922
24.4805 42.309
24.6631 42.4219
24.8458 41.8359
25.0286 42.2563
25.2114 43.5112
25.3943 43.7879
25.5773 41.505
25.7605 40.1458
25.9436 40.3155
26.1268 40.6287
26.31 40.5246
26.4933 40.1675
26.6767 40.9908
26.8601 40.8967
27.0437 39.0061
27.2272 38.2436
27.4109 37.9911
27.5946 38.0081
27.7784 38.0846
27.9623 37.7913
28.1462 38.4451
28.3304 37.3835
28.5145 35.8593
28.6987 35.4414
28.8829 34.8783
29.0673 34.7916
29.2517 33.9041
29.4361 33.4687
29.6207 33.1073
29.8053 32.4663
29.99 32.2128
30.1748 32.0678
30.3597 32.0331
30.5447 31.7856
30.7297 31.5939
30.915 31.5364
31.1002 30.962
31.2855 30.485
31.4708 30.3949
31.6563 30.4122
31.8418 29.8919
32.0275 29.6747
32.2132 29.282
32.399 28.6896
32.5848 28.1781
32.7708 27.8741
32.9569 27.7787
33.143 27.4182
33.3293 27.0904
33.5158 26.8657
33.7022 26.2757
33.8887 26.0616
34.0753 25.8231
34.262 25.38
34.4488 25.0496
34.6357 24.6681
34.8227 24.3763
35.0098 24.2226
35.1969 23.9645
35.3842 23.6585
35.5716 23.5121
35.759 23.2615
35.9468 22.9392
36.1345 22.7326
36.3222 22.5116
36.5101 22.1741
36.6981 21.9022
36.8861 21.5945
37.0743 21.3107
37.2626 21.0816
37.451 20.8311
37.6395 20.5929
37.8281 20.2542
38.0168 19.9801
38.2056 19.7153
38.3945 19.4419
38.5837 19.2328
38.7728 19.0558
38.9621 18.768
39.1514 18.5334
39.3409 18.2578
39.5304 18.0622
39.7201 17.832
39.9099 17.6859
40.0999 17.4279
40.2899 17.1619
40.48 16.9405
40.6703 16.7679
40.8607 16.5832
41.0512 16.3687
41.242 16.1183
41.4327 15.9344
41.6236 15.6456
41.8146 15.5294
42.0057 15.2444
42.1969 15.1082
42.3882 14.919
42.5797 14.6883
42.7713 14.5054
42.963 14.2824
43.1549 14.1161
43.3468 13.8622
43.5389 13.7696
43.7312 13.5005
43.9237 13.3144
44.1162 13.1858
44.3088 12.9309
44.5016 12.7947
44.6945 12.6011
44.8875 12.4221
45.0806 12.1921
45.2739 12.0617
45.4673 11.8847
45.6609 11.7403
45.8546 11.5927
46.0484 11.4401
46.2424 11.2398
46.4365 11.093
46.631 10.9411
46.8254 10.6964
47.0199 10.5699
47.2146 10.4584
47.4095 10.2716
47.6044 10.1461
47.7996 9.97995
47.9948 9.83854
48.1902 9.71358
48.3858 9.54721
48.5815 9.40953
48.7774 9.30626
48.9734 9.14997
49.1696 9.03067
49.3661 8.89689
49.5626 8.71605
49.7592 8.60749
49.956 8.49993
50.153 8.39407
50.3501 8.198
50.5474 8.10277
50.7448 7.97058
50.9424 7.88123
51.1402 7.76475
51.3381 7.60464
51.5362 7.45513
51.7344 7.37554
51.9328 7.22233
52.1316 7.10608
52.3304 7.01318
52.5293 6.8844
52.7284 6.8016
52.9276 6.66138
53.1271 6.56855
53.3267 6.4397
53.5265 6.31334
53.7264 6.21042
53.9266 6.0955
54.1269 5.99716
54.3274 5.86775
54.528 5.70123
54.7289 5.53201
54.9301 5.38204
55.1314 5.18877
55.3328 4.96188
55.5344 4.80247
55.7361 4.68342

File: Ni3Fe_FD0104.xy
TT I
1.27165 8.67634
1.45013 7.58476
1.62863 6.07927
1.80712 5.66694
1.98562 5.14396
2.16411 5.19471
2.34263 4.38353
2.52115 3.73803
2.69965 5.36652
2.87818 7.52508
3.05672 10.7859
3.23527 14.7921
3.4138 18.6221
3.59237 21.6055
3.77094 25.0308
3.9495 28.4019
4.12809 32.529
4.30669 37.4485
4.4853 44.284
4.6639 53.0382
4.84253 66.0342
5.02118 93.0848
5.19981 656.312
5.37848 635.214
5.55716 110.867
5.73586 97.2269
5.91455 110.84
6.09328 2245.17
6.27201 94.3224
6.45075 66.4593
6.62952 59.0694
6.8083 55.1942
6.98711 52.6606
7.16591 51.6279
7.34475 51.497
7.5236 58.2366
7.70247 53.2269
7.88135 55.5164
8.06026 59.7129
8.23919 67.2936
8.41812 83.8755
8.59709 773.516
8.77609 126.632
8.9551 85.1658
9.13412 80.8453
9.31318 92.8948
9.49226 82.4355
9.67134 87.7831
9.85047 98.0911
10.0296 585.303
10.2088 1152.21
10.388 105.175
10.5672 271.923
10.7465 93.8442
10.9257 75.1057
11.105 69.7028
11.2844 65.4086
11.4637 62.6485
11.6431 61.2479
11.8225 60.3438
12.002 68.4523
12.1814 105.811
12.3609 80.7094
12.5405 62.3188
12.72 64.1554
12.8996 68.7657
13.0792 78.7827
13.2589 187.125
13.4386 243.743
13.6183 171.573
13.7981 178.002
13.9779 75.0561
14.1577 76.0928
14.3376 68.1318
14.5175 67.3756
14.6974 68.9153
14.8774 119.783
15.0574 205.506
15.2374 68.4355
15.4175 65.2178
15.5976 64.8192
15.7778 107.74
15.958 176.842
16.1382 61.6789
16.3185 56.6795
16.4988 54.1812
16.6792 53.2494
16.8596 53.1914
17.04 54.599
17.2205 63.4121
17.401 80.7448
17.5815 58.2817
17.7622 60.5322
17.9428 84.9433
18.1237 102.752
18.3044 87.118
18.4852 98.5474
18.666 60.168
18.8469 57.2513
19.0278 55.7826
19.2088 61.5482
19.3898 65.2299
19.5709 56.5211
19.752 52.4966
19.9332 57.8129
20.1144 63.9164
20.2957 59.5562
20.477 60.3976
20.6586 49.1978
20.84 48.4604
21.0215 48.4212
21.203 48.4683
21.3846 50.2167
21.5662 48.1788
21.7479 53.4074
21.9297 59.0308
22.1115 55.6977
22.2933 52.5903
22.4753 48.1478
22.6572 48.3377
22.8393 51.1369
23.0214 54.8229
23.2037 49.3679
23.3859 51.3157
23.5682 51.4021
23.7505 54.3378
23.9329 45.1833
24.1154 43.7314
24.2979 42.9494
24.4805 42.3397
24.6631 42.4864
24.8458 41.9166
25.0286 42.2779
25.2114 43.4096
25.3943 43.6564
25.5773 41.4715
25.7605 40.1326
25.9436 40.2669
26.1268 40.7143
26.31 40.6298
26.4933 40.2138
26.6767 40.9588
26.8601 40.8589
27.0437 39.1008
27.2272 38.4431
27.4109 38.0162
27.5946 38.0038
27.7784 37.988
27.9623 37.8572
28.1462 38.5288
28.3304 37.4015
28.5145 35.8601
28.6987 35.3558
28.8829 34.9447
29.0673 34.8189
29.2517 33.932
29.4361 33.6447
29.6207 33.1334
29.8053 32.5771
29.99 32.3371
30.1748 32.006
30.3597 32.1972
30.5447 31.8341
30.7297 31.6696
30.915 31.694
31.1002 31.1031
31.2855 30.5687
31.4708 30.4358
31.6563 30.4114
31.8418 29.9137
32.0275 29.6847
32.2132 29.279
32.399 28.7272
32.5848 28.3853
32.7708 27.8132
32.9569 27.8205
33.143 27.4435
33.3293 27.1908
33.5158 26.9326
33.7022 26.3769
33.8887 26.02
34.0753 25.8144
34.262 25.4225
34.4488 25.0975
34.6357 24.784
34.8227 24.4869
35.0098 24.2237
35.1969 23.9871
35.3842 23.6898
35.5716 23.6145
35.759 23.3443
35.9468 22.9248
36.1345 22.6644
36.3222 22.5251
36.5101 22.2447
36.6981 21.9077
36.8861 21.6475
37.0743 21.3019
37.2626 20.9858
37.451 20.8237
37.6395 20.6238
37.8281 20.3065
38.0168 20.0635
38.2056 19.8371
38.3945 19.4835
38.5837 19.2727
38.7728 19.0788
38.9621 18.8037
39.1514 18.4685
39.3409 18.3417
39.5304 18.0637
39.7201 17.8647
39.9099 17.7027
40.0999 17.4549
40.2899 17.2405
40.48 16.9844
40.6703 16.6908
40.8607 16.5672
41.0512 16.3484
41.242 16.1142
41.4327 15.9166
41.6236 15.676
41.8146 15.4759
42.0057 15.3174
42.1969 15.0959
42.3882 14.9177
42.5797 14.6419
42.7713 14.4639
42.963 14.2504
43.1549 14.1025
43.3468 13.9313
43.5389 13.7021
43.7312 13.516
43.9237 13.3618
44.1162 13.1586
44.3088 12.955
44.5016 12.7241
44.6945 12.5738
44.8875 12.4532
45.0806 12.2415
45.2739 12.1046
45.4673 11.9098
45.6609 11.7747
45.8546 11.5716
46.0484 11.4147
46.2424 11.2489
46.4365 11.0917
46.631 10.9124
46.8254 10.7115
47.0199 10.6075
47.2146 10.4572
47.4095 10.2748
47.6044 10.1209
47.7996 9.93926
47.9948 9.83426
48.1902 9.70624
48.3858 9.55957
48.5815 9.40539
48.7774 9.36512
48.9734 9.17628
49.1696 9.03016
49.3661 8.8483
49.5626 8.73777
49.7592 8.62621
49.956 8.52088
50.153 8.3801
50.3501 8.25328
50.5474 8.10554
50.7448 8.00423
50.9424 7.86196
51.1402 7.75009
51.3381 7.60571
51.5362 7.52533
51.7344 7.40053
51.9328 7.2414
52.1316 7.13145
52.3304 7.01863
52.5293 6.90473
52.7284 6.78827
52.9276 6.6461
53.1271 6.58372
53.3267 6.45578
53.5265 6.29883
53.7264 6.24541
53.9266 6.11261
54.1269 6.03062
54.3274 5.89121
54.528 5.73183
54.7289 5.5001
54.9301 5.32762
55.1314 5.23443
55.3328 4.98792
55.5344 4.80882
55.7361 4.70791