Folder: NiFe_MOF_catalyst_paper/XRD (part 56)

File: Ni3Fe_FD0291.xy
TT I
1.27165 7.60275
1.45013 6.46654
1.62863 5.68205
1.80712 4.93076
1.98562 5.45866
2.16411 4.77036
2.34263 4.76165
2.52115 5.48417
2.69965 6.89833
2.87818 8.46147
3.05672 11.1057
3.23527 15.3223
3.4138 19.5058
3.59237 25.3175
3.77094 27.0747
3.9495 30.5424
4.12809 35.9383
4.30669 278.083
4.4853 73.2436
4.6639 57.4502
4.84253 69.4789
5.02118 91.6702
5.19981 503.626
5.37848 258.176
5.55716 107.794
5.73586 97.1779
5.91455 101.074
6.09328 3691.25
6.27201 90.2868
6.45075 70.2817
6.62952 65.6526
6.8083 61.403
6.98711 58.1717
7.16591 57.9575
7.34475 106.832
7.5236 56.6526
7.70247 58.7776
7.88135 59.663
8.06026 64.6831
8.23919 72.0572
8.41812 89.2172
8.59709 1014.81
8.77609 108.567
8.9551 97.3116
9.13412 85.1066
9.31318 85.6941
9.49226 87.5026
9.67134 105.186
9.85047 104.168
10.0296 388.859
10.2088 610.063
10.388 110.482
10.5672 450.588
10.7465 91.2563
10.9257 82.0524
11.105 74.8807
11.2844 74.1699
11.4637 67.4527
11.6431 66.0203
11.8225 65.0188
12.002 66.2994
12.1814 138.19
12.3609 76.8928
12.5405 67.385
12.72 73.8169
12.8996 73.6058
13.0792 81.9276
13.2589 213.784
13.4386 149.987
13.6183 216.332
13.7981 113.624
13.9779 78.6475
14.1577 75.561
14.3376 74.8589
14.5175 71.2929
14.6974 73.4688
14.8774 110.195
15.0574 175.396
15.2374 74.6361
15.4175 68.9676
15.5976 68.3259
15.7778 96.5486
15.958 177.947
16.1382 65.9684
16.3185 61.0925
16.4988 57.684
16.6792 56.5875
16.8596 57.3883
17.04 58.1381
17.2205 67.3078
17.401 77.6335
17.5815 61.3831
17.7622 63.5114
17.9428 77.4582
18.1237 137.659
18.3044 89.2357
18.4852 85.5693
18.666 62.8763
18.8469 60.1677
19.0278 59.2862
19.2088 62.0855
19.3898 78.1236
19.5709 56.7533
19.752 55.3895
19.9332 58.3667
20.1144 71.4859
20.2957 64.29
20.477 57.1915
20.6586 51.6032
20.84 50.6269
21.0215 50.5651
21.203 52.415
21.3846 51.257
21.5662 50.6564
21.7479 54.2838
21.9297 66.4772
22.1115 57.6032
22.2933 52.2443
22.4753 50.9058
22.6572 50.8058
22.8393 53.2818
23.0214 60.095
23.2037 50.8811
23.3859 51.7092
23.5682 57.4402
23.7505 51.0309
23.9329 47.0889
24.1154 45.9983
24.2979 45.1758
24.4805 44.4057
24.6631 44.4239
24.8458 43.8828
25.0286 44.3071
25.2114 46.1472
25.3943 46.4566
25.5773 42.5305
25.7605 42.086
25.9436 42.2612
26.1268 43.2998
26.31 41.7639
26.4933 42.0654
26.6767 43.6755
26.8601 42.0389
27.0437 40.3761
27.2272 40.005
27.4109 39.6974
27.5946 40.0018
27.7784 39.4804
27.9623 39.6782
28.1462 40.2468
28.3304 38.7252
28.5145 37.4201
28.6987 36.844
28.8829 36.7294
29.0673 36.1003
29.2517 35.6206
29.4361 35.4228
29.6207 34.3812
29.8053 34.1908
29.99 33.8147
30.1748 33.5788
30.3597 33.5802
30.5447 33.3475
30.7297 33.4033
30.915 32.8072
31.1002 32.2956
31.2855 31.9527
31.4708 31.9238
31.6563 31.6004
31.8418 31.3082
32.0275 31.0629
32.2132 30.6236
32.399 29.9873
32.5848 29.5861
32.7708 29.2231
32.9569 29.1068
33.143 28.746
33.3293 28.4343
33.5158 28.1035
33.7022 27.5783
33.8887 27.2913
34.0753 27.0071
34.262 26.6329
34.4488 26.2322
34.6357 26.0127
34.8227 25.6157
35.0098 25.4083
35.1969 25.0987
35.3842 24.8452
35.5716 24.6587
35.759 24.4657
35.9468 23.9978
36.1345 23.7529
36.3222 23.5272
36.5101 23.264
36.6981 22.9519
36.8861 22.6566
37.0743 22.3466
37.2626 22.084
37.451 21.7941
37.6395 21.6601
37.8281 21.3199
38.0168 20.9026
38.2056 20.7235
38.3945 20.4394
38.5837 20.2148
38.7728 19.9604
38.9621 19.7158
39.1514 19.3838
39.3409 19.1995
39.5304 18.9774
39.7201 18.7655
39.9099 18.4894
40.0999 18.2492
40.2899 18.0427
40.48 17.8264
40.6703 17.5542
40.8607 17.4303
41.0512 17.1199
41.242 16.9076
41.4327 16.6507
41.6236 16.4372
41.8146 16.2883
42.0057 15.9864
42.1969 15.8082
42.3882 15.66
42.5797 15.4416
42.7713 15.1575
42.963 15.0327
43.1549 14.7505
43.3468 14.5566
43.5389 14.3972
43.7312 14.1642
43.9237 13.9566
44.1162 13.7852
44.3088 13.5746
44.5016 13.389
44.6945 13.2034
44.8875 13.0494
45.0806 12.8286
45.2739 12.6798
45.4673 12.517
45.6609 12.3219
45.8546 12.1449
46.0484 11.9522
46.2424 11.8222
46.4365 11.6253
46.631 11.4548
46.8254 11.2968
47.0199 11.1087
47.2146 10.99
47.4095 10.7685
47.6044 10.6133
47.7996 10.48
47.9948 10.2979
48.1902 10.1788
48.3858 10.0384
48.5815 9.90956
48.7774 9.77126
48.9734 9.612
49.1696 9.46207
49.3661 9.31209
49.5626 9.1561
49.7592 9.00566
49.956 8.90047
50.153 8.76053
50.3501 8.60727
50.5474 8.49329
50.7448 8.31608
50.9424 8.21688
51.1402 8.10784
51.3381 7.97854
51.5362 7.85044
51.7344 7.72231
51.9328 7.57692
52.1316 7.45195
52.3304 7.31359
52.5293 7.21475
52.7284 7.10399
52.9276 6.98186
53.1271 6.8944
53.3267 6.74404
53.5265 6.62525
53.7264 6.51027
53.9266 6.41032
54.1269 6.25082
54.3274 6.15911
54.528 6.01726
54.7289 5.84991
54.9301 5.6893
55.1314 5.56002
55.3328 5.30668
55.5344 5.11382
55.7361 4.95836

File: Ni3Fe_FD0292.xy
TT I
1.27165 7.83656
1.45013 5.92178
1.62863 5.34935
1.80712 5.47345
1.98562 4.78358
2.16411 4.91825
2.34263 4.76575
2.52115 6.3302
2.69965 6.49136
2.87818 8.3757
3.05672 11.1004
3.23527 15.4747
3.4138 19.6287
3.59237 25.2094
3.77094 26.9008
3.9495 30.6381
4.12809 36.2437
4.30669 282.072
4.4853 72.9947
4.6639 56.6913
4.84253 69.4417
5.02118 90.7981
5.19981 500.557
5.37848 259.389
5.55716 107.519
5.73586 96.6637
5.91455 100.788
6.09328 3721.3
6.27201 89.7857
6.45075 70.3596
6.62952 65.5581
6.8083 61.6037
6.98711 57.7643
7.16591 58.0683
7.34475 107.846
7.5236 56.9333
7.70247 58.4768
7.88135 60.0372
8.06026 64.5755
8.23919 72.0677
8.41812 89.2307
8.59709 1011.3
8.77609 108.462
8.9551 97.0713
9.13412 84.4611
9.31318 85.3573
9.49226 87.2043
9.67134 104.994
9.85047 103.932
10.0296 386.555
10.2088 606.477
10.388 110.697
10.5672 445.504
10.7465 90.8736
10.9257 82.0199
11.105 74.5202
11.2844 73.8487
11.4637 67.0593
11.6431 65.8215
11.8225 64.713
12.002 66.1057
12.1814 137.699
12.3609 76.8888
12.5405 67.0936
12.72 73.8516
12.8996 73.5606
13.0792 81.7932
13.2589 213.096
13.4386 149.774
13.6183 215.621
13.7981 114.474
13.9779 78.6855
14.1577 75.4368
14.3376 74.9326
14.5175 71.4733
14.6974 73.2768
14.8774 109.825
15.0574 176.512
15.2374 74.8331
15.4175 68.7772
15.5976 68.3022
15.7778 96.0567
15.958 178.668
16.1382 66.1141
16.3185 61.2722
16.4988 57.8019
16.6792 56.7169
16.8596 57.4046
17.04 57.8178
17.2205 67.1001
17.401 77.4338
17.5815 61.2849
17.7622 63.5336
17.9428 77.4202
18.1237 137.236
18.3044 89.1722
18.4852 85.7788
18.666 63.0397
18.8469 60.2582
19.0278 58.994
19.2088 61.8764
19.3898 78.1277
19.5709 56.728
19.752 55.2528
19.9332 58.5692
20.1144 71.5389
20.2957 63.9494
20.477 57.1131
20.6586 51.7564
20.84 50.7185
21.0215 50.5885
21.203 52.3591
21.3846 51.138
21.5662 50.5358
21.7479 54.1765
21.9297 66.5033
22.1115 57.7103
22.2933 52.4934
22.4753 51.0321
22.6572 50.8691
22.8393 53.109
23.0214 60.2284
23.2037 50.7353
23.3859 51.547
23.5682 57.4228
23.7505 51.1865
23.9329 47.0726
24.1154 45.7645
24.2979 45.15
24.4805 44.6071
24.6631 44.5319
24.8458 43.8901
25.0286 44.3441
25.2114 46.2759
25.3943 46.5187
25.5773 42.5935
25.7605 41.9597
25.9436 42.3103
26.1268 43.3792
26.31 41.6017
26.4933 42.259
26.6767 43.5458
26.8601 42.1599
27.0437 40.4471
27.2272 39.9724
27.4109 39.9203
27.5946 39.9077
27.7784 39.1953
27.9623 39.6823
28.1462 40.3679
28.3304 38.8154
28.5145 37.3588
28.6987 36.9589
28.8829 36.8504
29.0673 36.0371
29.2517 35.6903
29.4361 35.4416
29.6207 34.5961
29.8053 34.2244
29.99 33.8181
30.1748 33.6399
30.3597 33.6141
30.5447 33.3782
30.7297 33.3505
30.915 32.9536
31.1002 32.42
31.2855 31.9246
31.4708 31.928
31.6563 31.5146
31.8418 31.2925
32.0275 31.1224
32.2132 30.5395
32.399 29.9989
32.5848 29.5949
32.7708 29.2555
32.9569 29.0696
33.143 28.8291
33.3293 28.4505
33.5158 28.0894
33.7022 27.6376
33.8887 27.3873
34.0753 27.0059
34.262 26.6313
34.4488 26.2473
34.6357 25.8903
34.8227 25.7192
35.0098 25.5392
35.1969 25.114
35.3842 24.9123
35.5716 24.73
35.759 24.4013
35.9468 24.0219
36.1345 23.8057
36.3222 23.5026
36.5101 23.2994
36.6981 22.9112
36.8861 22.6483
37.0743 22.3283
37.2626 22.0648
37.451 21.8551
37.6395 21.6364
37.8281 21.2785
38.0168 21.0023
38.2056 20.7093
38.3945 20.4344
38.5837 20.2025
38.7728 19.9782
38.9621 19.7269
39.1514 19.439
39.3409 19.2435
39.5304 18.961
39.7201 18.6981
39.9099 18.5599
40.0999 18.2965
40.2899 18.0218
40.48 17.6975
40.6703 17.6219
40.8607 17.4001
41.0512 17.1552
41.242 16.885
41.4327 16.7125
41.6236 16.4103
41.8146 16.2852
42.0057 16.0608
42.1969 15.826
42.3882 15.5845
42.5797 15.3618
42.7713 15.2245
42.963 14.9876
43.1549 14.739
43.3468 14.5313
43.5389 14.3257
43.7312 14.1518
43.9237 13.9461
44.1162 13.8128
44.3088 13.5525
44.5016 13.3869
44.6945 13.2248
44.8875 13.0267
45.0806 12.7859
45.2739 12.6679
45.4673 12.5594
45.6609 12.2708
45.8546 12.1564
46.0484 11.9496
46.2424 11.7717
46.4365 11.6554
46.631 11.4459
46.8254 11.2909
47.0199 11.144
47.2146 10.9307
47.4095 10.7942
47.6044 10.65
47.7996 10.4932
47.9948 10.3307
48.1902 10.1589
48.3858 10.0225
48.5815 9.88099
48.7774 9.76913
48.9734 9.58319
49.1696 9.45588
49.3661 9.28303
49.5626 9.13441
49.7592 9.03553
49.956 8.94883
50.153 8.75153
50.3501 8.58799
50.5474 8.46597
50.7448 8.35494
50.9424 8.22882
51.1402 8.10742
51.3381 7.98774
51.5362 7.82239
51.7344 7.72237
51.9328 7.55213
52.1316 7.46584
52.3304 7.33694
52.5293 7.18899
52.7284 7.12525
52.9276 6.9742
53.1271 6.86788
53.3267 6.75114
53.5265 6.62101
53.7264 6.52715
53.9266 6.41873
54.1269 6.30762
54.3274 6.16254
54.528 6.00358
54.7289 5.84399
54.9301 5.68391
55.1314 5.56901
55.3328 5.33414
55.5344 5.13597
55.7361 4.99712

File: Ni3Fe_FD0293.xy
TT I
1.27165 7.63029
1.45013 6.91984
1.62863 5.6065
1.80712 4.96082
1.98562 5.00087
2.16411 5.63228
2.34263 4.82279
2.52115 5.459
2.69965 7.63115
2.87818 8.5725
3.05672 11.3722
3.23527 15.0352
3.4138 19.0733
3.59237 25.3107
3.77094 26.8223
3.9495 30.8229
4.12809 36.6027
4.30669 285.788
4.4853 73.3696
4.6639 57.2406
4.84253 69.172
5.02118 90.9483
5.19981 500.593
5.37848 258.104
5.55716 106.951
5.73586 96.4923
5.91455 100.737
6.09328 3732.37
6.27201 90.2975
6.45075 70.224
6.62952 65.7405
6.8083 61.2435
6.98711 57.9828
7.16591 58.0596
7.34475 108.515
7.5236 56.9297
7.70247 58.0906
7.88135 59.9928
8.06026 64.3045
8.23919 71.9489
8.41812 89.773
8.59709 1010.94
8.77609 108.551
8.9551 97.3329
9.13412 84.9736
9.31318 85.7241
9.49226 87.4992
9.67134 104.901
9.85047 104.149
10.0296 385.227
10.2088 603.191
10.388 110.669
10.5672 446.406
10.7465 90.8488
10.9257 82.0973
11.105 74.4337
11.2844 74.0658
11.4637 67.4234
11.6431 66.2812
11.8225 64.7411
12.002 66.2172
12.1814 138.465
12.3609 76.5493
12.5405 67.3873
12.72 73.9417
12.8996 73.3343
13.0792 81.6019
13.2589 213.004
13.4386 149.117
13.6183 215.59
13.7981 114.147
13.9779 78.8679
14.1577 75.5936
14.3376 74.8333
14.5175 71.2508
14.6974 73.1441
14.8774 109.858
15.0574 175.894
15.2374 74.5143
15.4175 68.8826
15.5976 68.191
15.7778 95.874
15.958 178.353
16.1382 66.0153
16.3185 61.1935
16.4988 57.7429
16.6792 56.7
16.8596 57.5108
17.04 57.9788
17.2205 67.1098
17.401 77.3126
17.5815 61.5451
17.7622 63.5434
17.9428 77.2363
18.1237 137.462
18.3044 89.0479
18.4852 85.4001
18.666 62.845
18.8469 60.1693
19.0278 59.0383
19.2088 61.9068
19.3898 78.6162
19.5709 56.7801
19.752 55.2542
19.9332 58.2817
20.1144 71.5086
20.2957 64.0557
20.477 57.1894
20.6586 51.5796
20.84 50.5929
21.0215 50.4531
21.203 52.2226
21.3846 51.2189
21.5662 50.5861
21.7479 54.1612
21.9297 66.3348
22.1115 57.7238
22.2933 52.1669
22.4753 50.8983
22.6572 50.6672
22.8393 53.0868
23.0214 60.1774
23.2037 50.7372
23.3859 51.6807
23.5682 57.4102
23.7505 51.1909
23.9329 47.0205
24.1154 45.7132
24.2979 45.2684
24.4805 44.4721
24.6631 44.4926
24.8458 43.7234
25.0286 44.3251
25.2114 46.0009
25.3943 46.4984
25.5773 42.7513
25.7605 41.9507
25.9436 42.1011
26.1268 43.2337
26.31 41.7723
26.4933 42.024
26.6767 43.6823
26.8601 42.1579
27.0437 40.4119
27.2272 39.9753
27.4109 39.7357
27.5946 39.8592
27.7784 39.2869
27.9623 39.5629
28.1462 40.3329
28.3304 38.7491
28.5145 37.3318
28.6987 36.8763
28.8829 36.7411
29.0673 35.9991
29.2517 35.5713
29.4361 35.5145
29.6207 34.4512
29.8053 34.1818
29.99 33.9425
30.1748 33.7316
30.3597 33.5273
30.5447 33.2501
30.7297 33.4491
30.915 32.8557
31.1002 32.2721
31.2855 32.1373
31.4708 31.876
31.6563 31.6454
31.8418 31.1856
32.0275 30.9736
32.2132 30.6438
32.399 30.0308
32.5848 29.5935
32.7708 29.2278
32.9569 29.092
33.143 28.8306
33.3293 28.429
33.5158 28.05
33.7022 27.5954
33.8887 27.3337
34.0753 26.9941
34.262 26.6339
34.4488 26.2309
34.6357 25.9368
34.8227 25.6213
35.0098 25.3914
35.1969 25.1329
35.3842 24.9548
35.5716 24.5473
35.759 24.3361
35.9468 24.004
36.1345 23.8146
36.3222 23.5203
36.5101 23.2492
36.6981 22.9482
36.8861 22.6298
37.0743 22.3331
37.2626 22.0282
37.451 21.7428
37.6395 21.6076
37.8281 21.2767
38.0168 20.965
38.2056 20.709
38.3945 20.4309
38.5837 20.1682
38.7728 19.9396
38.9621 19.6778
39.1514 19.4328
39.3409 19.1289
39.5304 18.9549
39.7201 18.8058
39.9099 18.4861
40.0999 18.2636
40.2899 18.0047
40.48 17.7827
40.6703 17.5764
40.8607 17.3412
41.0512 17.1618
41.242 16.8781
41.4327 16.6488
41.6236 16.4446
41.8146 16.23
42.0057 15.9622
42.1969 15.7313
42.3882 15.6169
42.5797 15.4198
42.7713 15.2073
42.963 14.9655
43.1549 14.7405
43.3468 14.5165
43.5389 14.3606
43.7312 14.1793
43.9237 13.9771
44.1162 13.7391
44.3088 13.5715
44.5016 13.36
44.6945 13.2299
44.8875 12.9827
45.0806 12.8276
45.2739 12.6785
45.4673 12.4966
45.6609 12.3225
45.8546 12.193
46.0484 11.9817
46.2424 11.806
46.4365 11.6452
46.631 11.4514
46.8254 11.2595
47.0199 11.1065
47.2146 10.9356
47.4095 10.7974
47.6044 10.6068
47.7996 10.4703
47.9948 10.2986
48.1902 10.1828
48.3858 10.0448
48.5815 9.89807
48.7774 9.77772
48.9734 9.61697
49.1696 9.45825
49.3661 9.30829
49.5626 9.15327
49.7592 9.04549
49.956 8.89862
50.153 8.7837
50.3501 8.59037
50.5474 8.50938
50.7448 8.3662
50.9424 8.22735
51.1402 8.11195
51.3381 7.95621
51.5362 7.87766
51.7344 7.72051
51.9328 7.55968
52.1316 7.42753
52.3304 7.3223
52.5293 7.21693
52.7284 7.11064
52.9276 6.98424
53.1271 6.88627
53.3267 6.75871
53.5265 6.61791
53.7264 6.52769
53.9266 6.37336
54.1269 6.26172
54.3274 6.19069
54.528 6.03346
54.7289 5.85526
54.9301 5.66998
55.1314 5.5595
55.3328 5.27573
55.5344 5.13619
55.7361 4.98487

File: Ni3Fe_FD0294.xy
TT I
1.27165 7.84821
1.45013 6.89688
1.62863 5.6725
1.80712 5.13057
1.98562 4.48397
2.16411 4.83175
2.34263 4.8482
2.52115 5.70853
2.69965 6.78865
2.87818 8.07488
3.05672 11.6218
3.23527 15.5134
3.4138 19.365
3.59237 25.319
3.77094 27.0107
3.9495 30.8523
4.12809 36.0405
4.30669 285.11
4.4853 74.2116
4.6639 56.9159
4.84253 69.5015
5.02118 91.0602
5.19981 503.834
5.37848 257.143
5.55716 107.633
5.73586 97.1398
5.91455 100.768
6.09328 3768.32
6.27201 90.2068
6.45075 70.5673
6.62952 66.1136
6.8083 61.3698
6.98711 58.4499
7.16591 58.1284
7.34475 107.7
7.5236 56.9103
7.70247 58.3535
7.88135 59.898
8.06026 65.164
8.23919 72.2872
8.41812 90.1384
8.59709 1014.25
8.77609 108.662
8.9551 97.081
9.13412 84.8281
9.31318 86.1015
9.49226 87.5846
9.67134 105.526
9.85047 103.894
10.0296 386.386
10.2088 592.356
10.388 110.786
10.5672 450.073
10.7465 90.9604
10.9257 82.2904
11.105 74.7237
11.2844 74.1634
11.4637 67.4944
11.6431 66.3391
11.8225 64.9539
12.002 66.1449
12.1814 138.692
12.3609 76.7636
12.5405 67.2823
12.72 74.1217
12.8996 73.9046
13.0792 81.9602
13.2589 213.762
13.4386 148.029
13.6183 216.073
13.7981 113.13
13.9779 79.0738
14.1577 75.6328
14.3376 75.1508
14.5175 71.5124
14.6974 73.3707
14.8774 110.182
15.0574 174.091
15.2374 75.0431
15.4175 68.9163
15.5976 68.3787
15.7778 95.9146
15.958 176.433
16.1382 66.2991
16.3185 61.3411
16.4988 57.8191
16.6792 56.8651
16.8596 57.3877
17.04 57.9654
17.2205 67.1153
17.401 77.2472
17.5815 61.1945
17.7622 63.4492
17.9428 77.4629
18.1237 137.745
18.3044 88.8816
18.4852 85.0255
18.666 62.7837
18.8469 60.5069
19.0278 59.3407
19.2088 61.8663
19.3898 78.2848
19.5709 56.5491
19.752 55.2855
19.9332 58.211
20.1144 71.5575
20.2957 63.9493
20.477 57.0536
20.6586 51.8034
20.84 50.7622
21.0215 50.476
21.203 52.236
21.3846 51.1916
21.5662 50.6948
21.7479 54.224
21.9297 66.5716
22.1115 57.4203
22.2933 52.3179
22.4753 50.7966
22.6572 50.7546
22.8393 53.1842
23.0214 60.0715
23.2037 50.5836
23.3859 51.4315
23.5682 57.4491
23.7505 50.9768
23.9329 47.0789
24.1154 45.772
24.2979 45.1316
24.4805 44.491
24.6631 44.4354
24.8458 43.907
25.0286 44.274
25.2114 46.0469
25.3943 46.3939
25.5773 42.6319
25.7605 41.943
25.9436 42.267
26.1268 43.1764
26.31 41.7519
26.4933 42.1681
26.6767 43.4968
26.8601 42.013
27.0437 40.3606
27.2272 39.882
27.4109 39.6796
27.5946 39.8937
27.7784 39.2544
27.9623 39.5245
28.1462 40.2038
28.3304 38.7826
28.5145 37.3616
28.6987 36.9428
28.8829 36.692
29.0673 36.0035
29.2517 35.6449
29.4361 35.518
29.6207 34.5341
29.8053 34.117
29.99 33.7576
30.1748 33.5812
30.3597 33.6127
30.5447 33.3768
30.7297 33.3252
30.915 32.8416
31.1002 32.3703
31.2855 31.9822
31.4708 31.9483
31.6563 31.4996
31.8418 31.2089
32.0275 31.0261
32.2132 30.499
32.399 30.0504
32.5848 29.5566
32.7708 29.3318
32.9569 29.1001
33.143 28.8476
33.3293 28.4118
33.5158 28.0903
33.7022 27.6039
33.8887 27.3034
34.0753 26.9739
34.262 26.5878
34.4488 26.2272
34.6357 25.9521
34.8227 25.5726
35.0098 25.3919
35.1969 25.1125
35.3842 24.8865
35.5716 24.6275
35.759 24.3805
35.9468 23.9804
36.1345 23.7143
36.3222 23.5361
36.5101 23.3431
36.6981 22.9445
36.8861 22.6396
37.0743 22.3546
37.2626 22.0729
37.451 21.7567
37.6395 21.5379
37.8281 21.2126
38.0168 20.9758
38.2056 20.7277
38.3945 20.4303
38.5837 20.1573
38.7728 19.9243
38.9621 19.7026
39.1514 19.3886
39.3409 19.1414
39.5304 18.9444
39.7201 18.7567
39.9099 18.4957
40.0999 18.1936
40.2899 18.1385
40.48 17.7614
40.6703 17.5923
40.8607 17.4347
41.0512 17.1491
41.242 16.8926
41.4327 16.6719
41.6236 16.3886
41.8146 16.25
42.0057 16.0492
42.1969 15.7653
42.3882 15.6525
42.5797 15.4216
42.7713 15.1572
42.963 14.9901
43.1549 14.7881
43.3468 14.5319
43.5389 14.4058
43.7312 14.1427
43.9237 13.9867
44.1162 13.8052
44.3088 13.5624
44.5016 13.3109
44.6945 13.2528
44.8875 13.0349
45.0806 12.8275
45.2739 12.7007
45.4673 12.498
45.6609 12.2767
45.8546 12.147
46.0484 11.9887
46.2424 11.8063
46.4365 11.6244
46.631 11.4651
46.8254 11.2657
47.0199 11.0843
47.2146 10.9701
47.4095 10.79
47.6044 10.6014
47.7996 10.4756
47.9948 10.2751
48.1902 10.1922
48.3858 10.0702
48.5815 9.87072
48.7774 9.7045
48.9734 9.59336
49.1696 9.42972
49.3661 9.32007
49.5626 9.1624
49.7592 9.0199
49.956 8.90833
50.153 8.74541
50.3501 8.64076
50.5474 8.50244
50.7448 8.37762
50.9424 8.22898
51.1402 8.12474
51.3381 7.99282
51.5362 7.86056
51.7344 7.71655
51.9328 7.53953
52.1316 7.41886
52.3304 7.31313
52.5293 7.18693
52.7284 7.09948
52.9276 6.97546
53.1271 6.86674
53.3267 6.75207
53.5265 6.59302
53.7264 6.46401
53.9266 6.42626
54.1269 6.2334
54.3274 6.15494
54.528 5.97322
54.7289 5.80233
54.9301 5.70749
55.1314 5.56094
55.3328 5.26895
55.5344 5.14397
55.7361 5.00141

File: Ni3Fe_FD0295.xy
TT I
1.27165 7.50517
1.45013 6.3128
1.62863 5.47379
1.80712 5.48331
1.98562 4.68442
2.16411 5.36325
2.34263 5.2255
2.52115 6.32272
2.69965 7.25453
2.87818 8.20196
3.05672 11.0659
3.23527 15.7195
3.4138 19.3484
3.59237 25.1278
3.77094 27.0614
3.9495 30.5614
4.12809 36.2934
4.30669 291.193
4.4853 74.3801
4.6639 57.2193
4.84253 69.185
5.02118 91.1338
5.19981 500.411
5.37848 258.606
5.55716 107.648
5.73586 96.6737
5.91455 100.763
6.09328 3698.62
6.27201 90.0942
6.45075 70.4225
6.62952 65.8678
6.8083 61.6909
6.98711 58.1542
7.16591 58.029
7.34475 109.756
7.5236 56.8871
7.70247 58.185
7.88135 60.1078
8.06026 64.7996
8.23919 72.0757
8.41812 89.6475
8.59709 999.952
8.77609 108.393
8.9551 97.5436
9.13412 84.9317
9.31318 85.5637
9.49226 87.8654
9.67134 105.36
9.85047 103.799
10.0296 381.713
10.2088 589.695
10.388 110.813
10.5672 450.537
10.7465 90.9235
10.9257 81.6778
11.105 74.5551
11.2844 74.1741
11.4637 67.1537
11.6431 65.9739
11.8225 64.7339
12.002 65.8669
12.1814 137.271
12.3609 77.1833
12.5405 67.183
12.72 74.22
12.8996 73.6351
13.0792 81.899
13.2589 212.664
13.4386 148.775
13.6183 214.893
13.7981 113.754
13.9779 78.6129
14.1577 75.6379
14.3376 75.011
14.5175 71.1253
14.6974 73.2312
14.8774 109.387
15.0574 176.109
15.2374 74.7315
15.4175 68.7202
15.5976 68.0617
15.7778 95.6917
15.958 178.346
16.1382 66.2197
16.3185 61.4469
16.4988 57.6688
16.6792 56.6691
16.8596 57.5058
17.04 57.9102
17.2205 67.0248
17.401 77.3049
17.5815 61.5003
17.7622 63.4648
17.9428 77.2089
18.1237 137.866
18.3044 88.8273
18.4852 85.7724
18.666 62.9226
18.8469 60.1505
19.0278 59.0025
19.2088 61.7554
19.3898 78.2377
19.5709 56.5233
19.752 55.3395
19.9332 58.1706
20.1144 71.4485
20.2957 64.1517
20.477 56.8775
20.6586 51.5294
20.84 50.8136
21.0215 50.5086
21.203 52.0683
21.3846 51.0041
21.5662 50.5016
21.7479 54.3073
21.9297 66.3533
22.1115 57.6603
22.2933 52.2521
22.4753 50.8377
22.6572 50.6638
22.8393 52.9768
23.0214 60.1639
23.2037 50.8057
23.3859 51.596
23.5682 57.3017
23.7505 51.1677
23.9329 47.0565
24.1154 45.7206
24.2979 45.1606
24.4805 44.4416
24.6631 44.516
24.8458 43.8391
25.0286 44.3
25.2114 46.1244
25.3943 46.4845
25.5773 42.4795
25.7605 41.9042
25.9436 42.2505
26.1268 43.0985
26.31 41.6335
26.4933 42.0069
26.6767 43.5035
26.8601 41.9794
27.0437 40.3253
27.2272 39.9543
27.4109 39.7847
27.5946 39.904
27.7784 39.1854
27.9623 39.5685
28.1462 40.2555
28.3304 38.7017
28.5145 37.3218
28.6987 36.8996
28.8829 36.6831
29.0673 36.0286
29.2517 35.5206
29.4361 35.3908
29.6207 34.3871
29.8053 34.2319
29.99 33.8662
30.1748 33.6324
30.3597 33.5854
30.5447 33.3443
30.7297 33.416
30.915 32.7925
31.1002 32.2898
31.2855 32.0022
31.4708 31.9817
31.6563 31.4638
31.8418 31.1874
32.0275 31.0434
32.2132 30.5098
32.399 30.0605
32.5848 29.4753
32.7708 29.2879
32.9569 29.0396
33.143 28.7558
33.3293 28.4864
33.5158 28.0397
33.7022 27.6334
33.8887 27.359
34.0753 27.0339
34.262 26.5678
34.4488 26.1819
34.6357 25.9586
34.8227 25.6073
35.0098 25.3612
35.1969 25.1594
35.3842 24.8879
35.5716 24.7347
35.759 24.3625
35.9468 23.954
36.1345 23.7583
36.3222 23.5407
36.5101 23.2085
36.6981 22.9619
36.8861 22.5982
37.0743 22.2933
37.2626 22.0665
37.451 21.8103
37.6395 21.6569
37.8281 21.2863
38.0168 20.9643
38.2056 20.7147
38.3945 20.4056
38.5837 20.1693
38.7728 19.9027
38.9621 19.7265
39.1514 19.411
39.3409 19.1709
39.5304 18.9456
39.7201 18.7267
39.9099 18.4451
40.0999 18.2378
40.2899 17.9992
40.48 17.7946
40.6703 17.5941
40.8607 17.3584
41.0512 17.0825
41.242 16.8647
41.4327 16.6711
41.6236 16.3574
41.8146 16.2642
42.0057 15.9815
42.1969 15.8288
42.3882 15.6222
42.5797 15.4152
42.7713 15.1346
42.963 15.0061
43.1549 14.7546
43.3468 14.5418
43.5389 14.3901
43.7312 14.1248
43.9237 13.9683
44.1162 13.7707
44.3088 13.5312
44.5016 13.4219
44.6945 13.2711
44.8875 13.0034
45.0806 12.8678
45.2739 12.6798
45.4673 12.4538
45.6609 12.3055
45.8546 12.1821
46.0484 11.9814
46.2424 11.8061
46.4365 11.6178
46.631 11.4235
46.8254 11.2508
47.0199 11.1148
47.2146 10.9473
47.4095 10.7928
47.6044 10.5962
47.7996 10.4904
47.9948 10.307
48.1902 10.159
48.3858 10.0238
48.5815 9.92253
48.7774 9.73555
48.9734 9.60852
49.1696 9.39746
49.3661 9.28266
49.5626 9.16162
49.7592 9.0448
49.956 8.90946
50.153 8.81105
50.3501 8.63243
50.5474 8.50452
50.7448 8.36936
50.9424 8.22607
51.1402 8.07384
51.3381 7.94371
51.5362 7.84626
51.7344 7.70528
51.9328 7.56095
52.1316 7.4442
52.3304 7.33153
52.5293 7.23438
52.7284 7.08696
52.9276 6.94455
53.1271 6.86634
53.3267 6.75595
53.5265 6.61365
53.7264 6.5033
53.9266 6.38927
54.1269 6.28826
54.3274 6.16404
54.528 5.9841
54.7289 5.81154
54.9301 5.70218
55.1314 5.60545
55.3328 5.35286
55.5344 5.1931
55.7361 4.94959