Folder: NiFe_MOF_catalyst_paper/XRD (part 73)

File: Ni3Fe_FD0387.xy
TT I
1.27165 7.45777
1.45013 6.40681
1.62863 5.83306
1.80712 5.1507
1.98562 4.91763
2.16411 5.00505
2.34263 4.90014
2.52115 5.05141
2.69965 6.96668
2.87818 7.92781
3.05672 11.3954
3.23527 15.1725
3.4138 19.2202
3.59237 24.3689
3.77094 26.7197
3.9495 29.9867
4.12809 35.4275
4.30669 212.227
4.4853 66.367
4.6639 56.7645
4.84253 69.231
5.02118 90.3148
5.19981 459.978
5.37848 226.18
5.55716 105.613
5.73586 95.1754
5.91455 99.221
6.09328 4006.54
6.27201 87.2803
6.45075 69.4203
6.62952 64.3961
6.8083 60.4132
6.98711 57.1166
7.16591 56.9359
7.34475 91.9276
7.5236 56.0809
7.70247 57.7694
7.88135 59.2727
8.06026 63.6454
8.23919 71.37
8.41812 88.4408
8.59709 1144.06
8.77609 105.3
8.9551 93.9634
9.13412 84.1948
9.31318 84.7227
9.49226 86.8429
9.67134 100.677
9.85047 102.857
10.0296 386.648
10.2088 506.03
10.388 108.558
10.5672 482.833
10.7465 89.4039
10.9257 80.5798
11.105 73.9037
11.2844 72.3539
11.4637 66.5413
11.6431 65.306
11.8225 64.0351
12.002 65.5157
12.1814 148.591
12.3609 72.945
12.5405 66.0716
12.72 71.7091
12.8996 73.0902
13.0792 81.0754
13.2589 236.495
13.4386 140.671
13.6183 239.356
13.7981 106.587
13.9779 77.8351
14.1577 74.2729
14.3376 73.5119
14.5175 70.476
14.6974 72.5005
14.8774 113.936
15.0574 162.764
15.2374 72.899
15.4175 68.0666
15.5976 67.4365
15.7778 98.2191
15.958 168.584
16.1382 64.4387
16.3185 60.3058
16.4988 57.0509
16.6792 55.9587
16.8596 56.6637
17.04 57.3514
17.2205 67.924
17.401 74.819
17.5815 60.6681
17.7622 62.9944
17.9428 77.0024
18.1237 136.938
18.3044 91.0027
18.4852 81.9523
18.666 62.1014
18.8469 59.5743
19.0278 58.3757
19.2088 61.4611
19.3898 76.6721
19.5709 56.0564
19.752 54.8053
19.9332 58.0716
20.1144 70.6068
20.2957 64.545
20.477 55.8614
20.6586 51.0009
20.84 50.1601
21.0215 49.9327
21.203 51.7927
21.3846 50.3995
21.5662 50.0047
21.7479 54.0724
21.9297 65.7003
22.1115 57.0433
22.2933 51.43
22.4753 50.1307
22.6572 50.1594
22.8393 53.2092
23.0214 58.7204
23.2037 50.158
23.3859 51.2716
23.5682 57.3963
23.7505 50.1173
23.9329 46.3817
24.1154 45.3082
24.2979 44.7248
24.4805 44.1047
24.6631 44.0938
24.8458 43.4029
25.0286 44.0042
25.2114 45.7522
25.3943 45.6208
25.5773 41.9817
25.7605 41.5131
25.9436 41.9559
26.1268 42.5653
26.31 41.3135
26.4933 41.7924
26.6767 43.1944
26.8601 41.5963
27.0437 39.9339
27.2272 39.6356
27.4109 39.4131
27.5946 39.4013
27.7784 38.9789
27.9623 39.2957
28.1462 39.8547
28.3304 38.1988
28.5145 36.9217
28.6987 36.6134
28.8829 36.1966
29.0673 35.5164
29.2517 35.2848
29.4361 34.9987
29.6207 34.0405
29.8053 33.8195
29.99 33.3959
30.1748 33.3169
30.3597 33.1389
30.5447 33.0698
30.7297 33.076
30.915 32.5489
31.1002 31.9899
31.2855 31.7
31.4708 31.5531
31.6563 31.2407
31.8418 30.9138
32.0275 30.7182
32.2132 30.1688
32.399 29.735
32.5848 29.1717
32.7708 28.8304
32.9569 28.7431
33.143 28.5581
33.3293 28.1172
33.5158 27.8335
33.7022 27.3794
33.8887 27.0477
34.0753 26.736
34.262 26.297
34.4488 25.9781
34.6357 25.5584
34.8227 25.3634
35.0098 25.1805
35.1969 24.8212
35.3842 24.701
35.5716 24.409
35.759 24.1322
35.9468 23.7026
36.1345 23.4754
36.3222 23.2674
36.5101 22.9618
36.6981 22.7446
36.8861 22.4156
37.0743 22.0585
37.2626 21.7646
37.451 21.5067
37.6395 21.3687
37.8281 21.0549
38.0168 20.7191
38.2056 20.4734
38.3945 20.1944
38.5837 19.9004
38.7728 19.6825
38.9621 19.4537
39.1514 19.157
39.3409 18.9549
39.5304 18.6814
39.7201 18.4732
39.9099 18.3212
40.0999 18.0233
40.2899 17.8065
40.48 17.5127
40.6703 17.3521
40.8607 17.1596
41.0512 17.0005
41.242 16.6539
41.4327 16.524
41.6236 16.2134
41.8146 16.0308
42.0057 15.8566
42.1969 15.6221
42.3882 15.4426
42.5797 15.2227
42.7713 15.0047
42.963 14.7894
43.1549 14.6227
43.3468 14.3915
43.5389 14.1819
43.7312 13.9706
43.9237 13.8282
44.1162 13.5772
44.3088 13.4108
44.5016 13.2497
44.6945 13.0545
44.8875 12.8979
45.0806 12.6719
45.2739 12.4963
45.4673 12.3143
45.6609 12.1687
45.8546 11.9746
46.0484 11.7953
46.2424 11.6541
46.4365 11.4982
46.631 11.2975
46.8254 11.121
47.0199 10.9692
47.2146 10.8147
47.4095 10.6701
47.6044 10.4971
47.7996 10.3466
47.9948 10.19
48.1902 10.0414
48.3858 9.88337
48.5815 9.74376
48.7774 9.63325
48.9734 9.49542
49.1696 9.33518
49.3661 9.16717
49.5626 9.04961
49.7592 8.95842
49.956 8.78693
50.153 8.68566
50.3501 8.5208
50.5474 8.38544
50.7448 8.23624
50.9424 8.1192
51.1402 7.9941
51.3381 7.84238
51.5362 7.73084
51.7344 7.62353
51.9328 7.46719
52.1316 7.35068
52.3304 7.26957
52.5293 7.11525
52.7284 7.01204
52.9276 6.89419
53.1271 6.79269
53.3267 6.66313
53.5265 6.54453
53.7264 6.44225
53.9266 6.30761
54.1269 6.20786
54.3274 6.08723
54.528 5.93882
54.7289 5.79517
54.9301 5.63414
55.1314 5.48715
55.3328 5.28611
55.5344 5.11005
55.7361 4.86157

File: Ni3Fe_FD0388.xy
TT I
1.27165 7.44363
1.45013 7.05811
1.62863 5.46123
1.80712 5.23771
1.98562 4.73059
2.16411 4.54148
2.34263 5.17659
2.52115 6.20918
2.69965 7.40576
2.87818 8.25952
3.05672 10.9621
3.23527 15.0468
3.4138 19.2486
3.59237 24.6157
3.77094 26.3919
3.9495 30.1681
4.12809 35.3645
4.30669 215.718
4.4853 66.3795
4.6639 56.5715
4.84253 69.0611
5.02118 90.235
5.19981 455.446
5.37848 225.843
5.55716 105.893
5.73586 95.0369
5.91455 98.6461
6.09328 4007.09
6.27201 86.7371
6.45075 69.4237
6.62952 64.56
6.8083 60.2968
6.98711 57.1199
7.16591 56.9112
7.34475 92.8732
7.5236 55.9303
7.70247 57.7293
7.88135 59.2641
8.06026 63.7822
8.23919 71.3589
8.41812 87.843
8.59709 1145.44
8.77609 104.924
8.9551 93.942
9.13412 84.0788
9.31318 85.0526
9.49226 86.836
9.67134 100.911
9.85047 103.169
10.0296 384.684
10.2088 507.419
10.388 108.09
10.5672 484.14
10.7465 89.6076
10.9257 80.6963
11.105 73.6673
11.2844 72.1556
11.4637 66.8
11.6431 65.0375
11.8225 64.0153
12.002 65.3401
12.1814 147.93
12.3609 72.9494
12.5405 66.2704
12.72 71.5704
12.8996 72.8181
13.0792 81.264
13.2589 235.956
13.4386 140.732
13.6183 238.54
13.7981 106.7
13.9779 77.595
14.1577 74.6214
14.3376 73.6687
14.5175 70.6527
14.6974 72.2344
14.8774 113.946
15.0574 164.324
15.2374 72.8973
15.4175 68.1186
15.5976 67.4065
15.7778 98.0633
15.958 168.444
16.1382 64.3539
16.3185 60.3048
16.4988 56.9229
16.6792 55.9819
16.8596 56.7608
17.04 57.4358
17.2205 68.0886
17.401 74.6211
17.5815 60.7821
17.7622 62.809
17.9428 76.8527
18.1237 137.645
18.3044 91.0058
18.4852 82.6953
18.666 62.0392
18.8469 59.3734
19.0278 58.3402
19.2088 61.1748
19.3898 76.9496
19.5709 55.9113
19.752 54.6005
19.9332 57.827
20.1144 70.4498
20.2957 64.4089
20.477 55.9282
20.6586 51.0701
20.84 50.2905
21.0215 49.928
21.203 51.8552
21.3846 50.4574
21.5662 50.2032
21.7479 53.9904
21.9297 65.4777
22.1115 56.9932
22.2933 51.5052
22.4753 50.1489
22.6572 50.2004
22.8393 53.1916
23.0214 58.6991
23.2037 50.1283
23.3859 51.1434
23.5682 57.3724
23.7505 50.151
23.9329 46.4169
24.1154 45.3206
24.2979 44.6728
24.4805 43.995
24.6631 44.0521
24.8458 43.4021
25.0286 43.9466
25.2114 45.8175
25.3943 45.7952
25.5773 41.9964
25.7605 41.5405
25.9436 41.9374
26.1268 42.615
26.31 41.2212
26.4933 41.8613
26.6767 43.1358
26.8601 41.4263
27.0437 39.8423
27.2272 39.5291
27.4109 39.45
27.5946 39.2858
27.7784 38.8086
27.9623 39.2044
28.1462 39.836
28.3304 38.2527
28.5145 36.9471
28.6987 36.592
28.8829 36.2461
29.0673 35.491
29.2517 35.1797
29.4361 35.0224
29.6207 34.0483
29.8053 33.7419
29.99 33.3348
30.1748 33.2827
30.3597 33.1023
30.5447 33.068
30.7297 33.0198
30.915 32.448
31.1002 31.9729
31.2855 31.7081
31.4708 31.5694
31.6563 31.1998
31.8418 31.0214
32.0275 30.7599
32.2132 30.1645
32.399 29.6993
32.5848 29.2653
32.7708 28.8641
32.9569 28.7005
33.143 28.3998
33.3293 28.087
33.5158 27.7374
33.7022 27.2668
33.8887 26.9618
34.0753 26.5757
34.262 26.2728
34.4488 25.9293
34.6357 25.6215
34.8227 25.3561
35.0098 25.1006
35.1969 24.8216
35.3842 24.6482
35.5716 24.3732
35.759 24.0451
35.9468 23.8103
36.1345 23.4722
36.3222 23.2466
36.5101 23.0442
36.6981 22.6781
36.8861 22.2928
37.0743 22.055
37.2626 21.7695
37.451 21.5654
37.6395 21.3618
37.8281 20.9802
38.0168 20.7512
38.2056 20.4425
38.3945 20.1578
38.5837 19.9718
38.7728 19.67
38.9621 19.4306
39.1514 19.1535
39.3409 18.9227
39.5304 18.6945
39.7201 18.5457
39.9099 18.3343
40.0999 18.044
40.2899 17.8088
40.48 17.5637
40.6703 17.3893
40.8607 17.1692
41.0512 16.9297
41.242 16.6927
41.4327 16.476
41.6236 16.1737
41.8146 16.0748
42.0057 15.7686
42.1969 15.5625
42.3882 15.4565
42.5797 15.1765
42.7713 14.9784
42.963 14.7944
43.1549 14.5732
43.3468 14.3803
43.5389 14.2085
43.7312 13.993
43.9237 13.8602
44.1162 13.6264
44.3088 13.3904
44.5016 13.2173
44.6945 13.0436
44.8875 12.8445
45.0806 12.6679
45.2739 12.5024
45.4673 12.3335
45.6609 12.1778
45.8546 11.9802
46.0484 11.8096
46.2424 11.6497
46.4365 11.4684
46.631 11.3295
46.8254 11.1177
47.0199 10.9923
47.2146 10.8056
47.4095 10.6539
47.6044 10.5076
47.7996 10.2897
47.9948 10.1734
48.1902 10.0447
48.3858 9.95006
48.5815 9.76127
48.7774 9.62419
48.9734 9.47148
49.1696 9.31379
49.3661 9.2389
49.5626 9.02919
49.7592 8.93182
49.956 8.7887
50.153 8.62816
50.3501 8.50627
50.5474 8.39027
50.7448 8.25426
50.9424 8.13018
51.1402 8.00193
51.3381 7.8625
51.5362 7.77562
51.7344 7.62627
51.9328 7.50906
52.1316 7.32271
52.3304 7.26489
52.5293 7.12487
52.7284 7.02495
52.9276 6.88681
53.1271 6.77124
53.3267 6.66027
53.5265 6.5779
53.7264 6.42929
53.9266 6.30569
54.1269 6.22242
54.3274 6.08627
54.528 5.92813
54.7289 5.80643
54.9301 5.60853
55.1314 5.46422
55.3328 5.2749
55.5344 5.0539
55.7361 4.97791

File: Ni3Fe_FD0389.xy
TT I
1.27165 7.78703
1.45013 5.93009
1.62863 5.68083
1.80712 4.87846
1.98562 4.87153
2.16411 5.2853
2.34263 5.17581
2.52115 5.90411
2.69965 6.8807
2.87818 8.61984
3.05672 10.8557
3.23527 14.9979
3.4138 19.0623
3.59237 24.2663
3.77094 26.9815
3.9495 30.2205
4.12809 35.3384
4.30669 219.544
4.4853 66.6598
4.6639 56.2322
4.84253 68.9464
5.02118 89.7898
5.19981 455.805
5.37848 224.967
5.55716 105.282
5.73586 95.5177
5.91455 98.7046
6.09328 3983.26
6.27201 86.875
6.45075 69.2059
6.62952 64.402
6.8083 60.0776
6.98711 57.5701
7.16591 56.5984
7.34475 93.456
7.5236 55.7861
7.70247 57.9388
7.88135 59.3035
8.06026 63.7906
8.23919 71.3621
8.41812 87.6166
8.59709 1142.36
8.77609 104.957
8.9551 94.0496
9.13412 84.1766
9.31318 85.0975
9.49226 86.5133
9.67134 101.032
9.85047 102.463
10.0296 384.681
10.2088 504.141
10.388 107.866
10.5672 479.712
10.7465 89.2833
10.9257 80.5902
11.105 73.7811
11.2844 72.4952
11.4637 66.6863
11.6431 65.4423
11.8225 63.9275
12.002 65.413
12.1814 148.658
12.3609 73.3197
12.5405 65.9505
12.72 71.7874
12.8996 72.94
13.0792 80.9314
13.2589 235.675
13.4386 140.23
13.6183 238.462
13.7981 106.781
13.9779 77.671
14.1577 74.4431
14.3376 73.3394
14.5175 70.7103
14.6974 72.1578
14.8774 113.802
15.0574 164.243
15.2374 73.1793
15.4175 68.402
15.5976 67.4843
15.7778 98.1617
15.958 168.866
16.1382 64.5326
16.3185 60.3372
16.4988 56.9883
16.6792 56.0726
16.8596 56.6571
17.04 57.3731
17.2205 68.1435
17.401 74.6891
17.5815 60.9804
17.7622 62.9424
17.9428 76.4357
18.1237 137.456
18.3044 90.9142
18.4852 82.3973
18.666 62.0009
18.8469 59.498
19.0278 58.5903
19.2088 61.3755
19.3898 76.7967
19.5709 55.9199
19.752 54.6686
19.9332 57.647
20.1144 70.6249
20.2957 64.4226
20.477 55.9093
20.6586 51.1407
20.84 50.1041
21.0215 49.7354
21.203 51.9298
21.3846 50.5153
21.5662 50.0225
21.7479 53.9019
21.9297 65.3913
22.1115 57.1927
22.2933 51.3893
22.4753 50.1869
22.6572 50.2741
22.8393 53.1394
23.0214 58.6942
23.2037 50.1827
23.3859 51.2378
23.5682 57.4462
23.7505 50.3031
23.9329 46.3047
24.1154 45.3592
24.2979 44.6229
24.4805 43.8395
24.6631 43.9472
24.8458 43.3603
25.0286 43.8917
25.2114 45.8067
25.3943 45.7946
25.5773 42.0278
25.7605 41.3744
25.9436 41.9146
26.1268 42.7804
26.31 41.1969
26.4933 41.7265
26.6767 43.1726
26.8601 41.6213
27.0437 39.9654
27.2272 39.5283
27.4109 39.4208
27.5946 39.3802
27.7784 38.856
27.9623 39.3658
28.1462 39.8767
28.3304 38.2066
28.5145 36.8532
28.6987 36.5978
28.8829 36.2401
29.0673 35.5506
29.2517 35.1539
29.4361 35.0043
29.6207 33.9876
29.8053 33.7479
29.99 33.3793
30.1748 33.1916
30.3597 33.1039
30.5447 33.0328
30.7297 33.0253
30.915 32.392
31.1002 31.8765
31.2855 31.6075
31.4708 31.5679
31.6563 31.0861
31.8418 30.9311
32.0275 30.717
32.2132 30.1449
32.399 29.7361
32.5848 29.218
32.7708 28.983
32.9569 28.7662
33.143 28.524
33.3293 28.092
33.5158 27.7045
33.7022 27.2422
33.8887 26.9147
34.0753 26.7557
34.262 26.3002
34.4488 25.9604
34.6357 25.6691
34.8227 25.4048
35.0098 25.1427
35.1969 24.8424
35.3842 24.5214
35.5716 24.4358
35.759 24.0528
35.9468 23.7282
36.1345 23.4764
36.3222 23.2943
36.5101 22.916
36.6981 22.6535
36.8861 22.448
37.0743 22.0197
37.2626 21.8203
37.451 21.5077
37.6395 21.3562
37.8281 21.0018
38.0168 20.6718
38.2056 20.4752
38.3945 20.1496
38.5837 19.9248
38.7728 19.6971
38.9621 19.4647
39.1514 19.2277
39.3409 18.8976
39.5304 18.7236
39.7201 18.5409
39.9099 18.3049
40.0999 18.0328
40.2899 17.818
40.48 17.5712
40.6703 17.3727
40.8607 17.155
41.0512 16.9447
41.242 16.6378
41.4327 16.456
41.6236 16.2305
41.8146 16.097
42.0057 15.8117
42.1969 15.602
42.3882 15.4621
42.5797 15.1518
42.7713 15.0113
42.963 14.767
43.1549 14.584
43.3468 14.3617
43.5389 14.1702
43.7312 14.0531
43.9237 13.7794
44.1162 13.5898
44.3088 13.4218
44.5016 13.1877
44.6945 13.0362
44.8875 12.8414
45.0806 12.6768
45.2739 12.532
45.4673 12.3381
45.6609 12.1235
45.8546 11.9952
46.0484 11.8136
46.2424 11.6558
46.4365 11.4912
46.631 11.3449
46.8254 11.1382
47.0199 10.9809
47.2146 10.8432
47.4095 10.6157
47.6044 10.474
47.7996 10.3518
47.9948 10.1578
48.1902 10.0489
48.3858 9.90757
48.5815 9.75164
48.7774 9.63229
48.9734 9.48568
49.1696 9.35696
49.3661 9.15688
49.5626 9.01612
49.7592 8.90513
49.956 8.80515
50.153 8.65854
50.3501 8.51481
50.5474 8.42708
50.7448 8.26557
50.9424 8.14515
51.1402 8.02155
51.3381 7.83856
51.5362 7.77173
51.7344 7.5987
51.9328 7.46841
52.1316 7.34239
52.3304 7.26776
52.5293 7.12837
52.7284 7.01567
52.9276 6.88727
53.1271 6.78731
53.3267 6.63911
53.5265 6.53021
53.7264 6.40869
53.9266 6.34594
54.1269 6.17768
54.3274 6.10484
54.528 5.96232
54.7289 5.76846
54.9301 5.63278
55.1314 5.46078
55.3328 5.33919
55.5344 5.07787
55.7361 5.00563

File: Ni3Fe_FD0390.xy
TT I
1.27165 7.54709
1.45013 5.89872
1.62863 5.68116
1.80712 4.56116
1.98562 4.48812
2.16411 5.25115
2.34263 4.80238
2.52115 6.33818
2.69965 7.28596
2.87818 8.85547
3.05672 10.8374
3.23527 15.0066
3.4138 19.1595
3.59237 24.4307
3.77094 26.7658
3.9495 30.249
4.12809 35.6269
4.30669 222.344
4.4853 66.9576
4.6639 56.4232
4.84253 68.7011
5.02118 89.8487
5.19981 456.708
5.37848 224.901
5.55716 106.039
5.73586 95.4887
5.91455 98.4166
6.09328 3984.52
6.27201 87.26
6.45075 69.306
6.62952 64.6623
6.8083 60.22
6.98711 57.5965
7.16591 56.5238
7.34475 93.7608
7.5236 55.9914
7.70247 57.313
7.88135 59.1427
8.06026 63.4197
8.23919 71.228
8.41812 88.1766
8.59709 1139.26
8.77609 105.153
8.9551 94.2077
9.13412 83.9141
9.31318 85.1952
9.49226 86.7736
9.67134 101.586
9.85047 102.664
10.0296 382.761
10.2088 503.077
10.388 108.442
10.5672 480.083
10.7465 89.3572
10.9257 80.3148
11.105 73.4914
11.2844 72.4964
11.4637 66.5699
11.6431 65.2392
11.8225 63.8953
12.002 65.1725
12.1814 148.605
12.3609 73.1386
12.5405 66.4212
12.72 71.8513
12.8996 73.0053
13.0792 81.2285
13.2589 234.561
13.4386 139.458
13.6183 238.332
13.7981 106.536
13.9779 77.8951
14.1577 74.6877
14.3376 73.4344
14.5175 70.6327
14.6974 72.1536
14.8774 113.585
15.0574 163.676
15.2374 73.154
15.4175 67.8996
15.5976 67.5745
15.7778 97.8386
15.958 168.426
16.1382 64.6586
16.3185 60.3831
16.4988 57.2261
16.6792 56.1058
16.8596 56.7755
17.04 57.451
17.2205 67.9991
17.401 74.7434
17.5815 60.9797
17.7622 62.8805
17.9428 76.6849
18.1237 137.085
18.3044 90.9392
18.4852 82.1606
18.666 61.9362
18.8469 59.4735
19.0278 58.3165
19.2088 61.2389
19.3898 76.949
19.5709 56.1283
19.752 54.6036
19.9332 57.8424
20.1144 70.524
20.2957 64.604
20.477 55.8348
20.6586 51.0611
20.84 50.043
21.0215 49.9503
21.203 52.0037
21.3846 50.5426
21.5662 50.1294
21.7479 53.9837
21.9297 65.484
22.1115 57.2499
22.2933 51.5917
22.4753 50.2864
22.6572 50.186
22.8393 53.0439
23.0214 58.6328
23.2037 50.1156
23.3859 51.0785
23.5682 57.3092
23.7505 50.3067
23.9329 46.4534
24.1154 45.3928
24.2979 44.7895
24.4805 44.1166
24.6631 43.9822
24.8458 43.4167
25.0286 43.8796
25.2114 45.7624
25.3943 45.7076
25.5773 42.025
25.7605 41.4927
25.9436 41.9366
26.1268 42.7014
26.31 41.2241
26.4933 41.75
26.6767 43.1422
26.8601 41.5794
27.0437 39.9794
27.2272 39.4993
27.4109 39.3274
27.5946 39.3021
27.7784 38.8596
27.9623 39.2795
28.1462 39.7901
28.3304 38.2406
28.5145 36.8383
28.6987 36.4727
28.8829 36.3643
29.0673 35.5105
29.2517 35.213
29.4361 35.0543
29.6207 34.0037
29.8053 33.773
29.99 33.4187
30.1748 33.2972
30.3597 33.0973
30.5447 32.8512
30.7297 33.0182
30.915 32.4662
31.1002 31.8332
31.2855 31.6164
31.4708 31.5648
31.6563 31.1589
31.8418 30.8958
32.0275 30.67
32.2132 30.0981
32.399 29.6558
32.5848 29.2156
32.7708 28.9298
32.9569 28.7147
33.143 28.4875
33.3293 28.0494
33.5158 27.774
33.7022 27.3323
33.8887 26.9808
34.0753 26.6484
34.262 26.2297
34.4488 25.9682
34.6357 25.7327
34.8227 25.3779
35.0098 25.136
35.1969 24.7933
35.3842 24.6348
35.5716 24.3661
35.759 24.1097
35.9468 23.6466
36.1345 23.4257
36.3222 23.2598
36.5101 22.9986
36.6981 22.6821
36.8861 22.4175
37.0743 22.0231
37.2626 21.8497
37.451 21.5133
37.6395 21.383
37.8281 21.0099
38.0168 20.6807
38.2056 20.473
38.3945 20.1921
38.5837 19.9369
38.7728 19.697
38.9621 19.4379
39.1514 19.222
39.3409 18.9184
39.5304 18.6861
39.7201 18.5158
39.9099 18.2416
40.0999 17.9997
40.2899 17.8189
40.48 17.5714
40.6703 17.3948
40.8607 17.1468
41.0512 16.9019
41.242 16.6735
41.4327 16.4873
41.6236 16.246
41.8146 16.0497
42.0057 15.8911
42.1969 15.62
42.3882 15.3887
42.5797 15.1844
42.7713 15.0136
42.963 14.797
43.1549 14.6247
43.3468 14.3929
43.5389 14.1759
43.7312 13.9383
43.9237 13.7816
44.1162 13.5725
44.3088 13.3851
44.5016 13.1948
44.6945 13.035
44.8875 12.86
45.0806 12.6579
45.2739 12.5294
45.4673 12.3599
45.6609 12.139
45.8546 11.9823
46.0484 11.8191
46.2424 11.6673
46.4365 11.4648
46.631 11.2798
46.8254 11.1455
47.0199 10.9864
47.2146 10.8162
47.4095 10.6573
47.6044 10.5327
47.7996 10.3161
47.9948 10.1636
48.1902 10.0018
48.3858 9.8998
48.5815 9.76423
48.7774 9.61278
48.9734 9.48166
49.1696 9.33042
49.3661 9.18273
49.5626 9.03633
49.7592 8.90468
49.956 8.80647
50.153 8.65319
50.3501 8.51764
50.5474 8.38761
50.7448 8.25143
50.9424 8.12606
51.1402 8.02268
51.3381 7.85448
51.5362 7.77108
51.7344 7.61442
51.9328 7.48043
52.1316 7.34202
52.3304 7.25209
52.5293 7.11854
52.7284 6.99728
52.9276 6.86834
53.1271 6.81443
53.3267 6.6853
53.5265 6.51347
53.7264 6.42382
53.9266 6.33413
54.1269 6.19813
54.3274 6.09331
54.528 5.95532
54.7289 5.73965
54.9301 5.65385
55.1314 5.4681
55.3328 5.27105
55.5344 5.11718
55.7361 4.97537

File: Ni3Fe_FD0391.xy
TT I
1.27165 7.44551
1.45013 6.52723
1.62863 4.97122
1.80712 4.95822
1.98562 4.58231
2.16411 4.70445
2.34263 5.29791
2.52115 6.7717
2.69965 7.5535
2.87818 8.79537
3.05672 11.2665
3.23527 14.8088
3.4138 19.5845
3.59237 24.132
3.77094 26.7157
3.9495 30.5565
4.12809 35.5941
4.30669 224.891
4.4853 67.0381
4.6639 56.4975
4.84253 68.318
5.02118 89.5465
5.19981 451.815
5.37848 224.391
5.55716 105.546
5.73586 95.1881
5.91455 98.8973
6.09328 3997.23
6.27201 86.7017
6.45075 69.4119
6.62952 64.4199
6.8083 60.1104
6.98711 57.2811
7.16591 56.5714
7.34475 94.4923
7.5236 55.9749
7.70247 57.4943
7.88135 59.0849
8.06026 64.2189
8.23919 71.0885
8.41812 87.9514
8.59709 1132.34
8.77609 104.79
8.9551 94.2256
9.13412 84.0035
9.31318 84.9976
9.49226 86.813
9.67134 101.395
9.85047 102.56
10.0296 380.447
10.2088 502.106
10.388 108.023
10.5672 475.594
10.7465 89.2808
10.9257 80.6301
11.105 73.8587
11.2844 72.2242
11.4637 66.6035
11.6431 65.1052
11.8225 64.158
12.002 65.2674
12.1814 148.806
12.3609 73.4938
12.5405 66.184
12.72 71.9424
12.8996 72.6923
13.0792 81.0458
13.2589 234.203
13.4386 138.762
13.6183 237.434
13.7981 106.323
13.9779 77.7181
14.1577 74.5523
14.3376 73.512
14.5175 70.3539
14.6974 72.2962
14.8774 113.48
15.0574 163.516
15.2374 73.226
15.4175 67.9033
15.5976 67.5955
15.7778 97.4877
15.958 169.32
16.1382 64.7888
16.3185 60.3271
16.4988 57.0627
16.6792 55.898
16.8596 56.7824
17.04 57.4553
17.2205 67.8311
17.401 74.8086
17.5815 60.7817
17.7622 62.8382
17.9428 76.5596
18.1237 137.302
18.3044 90.7282
18.4852 81.9822
18.666 62.0475
18.8469 59.3667
19.0278 58.5249
19.2088 61.2273
19.3898 77.0172
19.5709 55.7287
19.752 54.7045
19.9332 57.9864
20.1144 70.5253
20.2957 64.4249
20.477 55.7892
20.6586 50.8023
20.84 50.2399
21.0215 49.9038
21.203 51.7505
21.3846 50.3899
21.5662 49.9852
21.7479 53.9854
21.9297 65.5488
22.1115 57.139
22.2933 51.4803
22.4753 50.1669
22.6572 50.166
22.8393 53.0654
23.0214 58.8361
23.2037 50.1194
23.3859 51.1181
23.5682 57.3643
23.7505 50.1227
23.9329 46.4116
24.1154 45.2046
24.2979 44.5778
24.4805 44.1207
24.6631 43.966
24.8458 43.3306
25.0286 43.8932
25.2114 45.7932
25.3943 45.6668
25.5773 41.9934
25.7605 41.5416
25.9436 41.8047
26.1268 42.7086
26.31 41.1505
26.4933 41.7471
26.6767 43.0393
26.8601 41.5516
27.0437 40.0874
27.2272 39.4867
27.4109 39.3656
27.5946 39.3696
27.7784 38.8748
27.9623 39.2798
28.1462 39.7121
28.3304 38.2521
28.5145 36.9335
28.6987 36.4985
28.8829 36.3689
29.0673 35.4765
29.2517 35.1954
29.4361 34.9157
29.6207 34.0351
29.8053 33.762
29.99 33.3591
30.1748 33.2403
30.3597 33.1431
30.5447 33.0313
30.7297 33.0512
30.915 32.4204
31.1002 31.9436
31.2855 31.7132
31.4708 31.5496
31.6563 31.1712
31.8418 30.8405
32.0275 30.6035
32.2132 30.227
32.399 29.6391
32.5848 29.1649
32.7708 28.8488
32.9569 28.6538
33.143 28.4394
33.3293 28.0935
33.5158 27.8449
33.7022 27.2412
33.8887 26.9511
34.0753 26.6813
34.262 26.2809
34.4488 25.9495
34.6357 25.6354
34.8227 25.292
35.0098 25.1555
35.1969 24.8394
35.3842 24.5701
35.5716 24.3299
35.759 24.083
35.9468 23.6952
36.1345 23.5178
36.3222 23.2159
36.5101 23.0031
36.6981 22.6845
36.8861 22.3168
37.0743 22.0496
37.2626 21.818
37.451 21.4914
37.6395 21.3516
37.8281 20.9806
38.0168 20.7057
38.2056 20.4903
38.3945 20.1928
38.5837 19.8326
38.7728 19.6827
38.9621 19.4369
39.1514 19.112
39.3409 18.9547
39.5304 18.6676
39.7201 18.4428
39.9099 18.1955
40.0999 18.0587
40.2899 17.7825
40.48 17.5308
40.6703 17.3973
40.8607 17.1434
41.0512 16.9547
41.242 16.6614
41.4327 16.4046
41.6236 16.2232
41.8146 16.0361
42.0057 15.8517
42.1969 15.6503
42.3882 15.3822
42.5797 15.192
42.7713 14.9944
42.963 14.7483
43.1549 14.5697
43.3468 14.3963
43.5389 14.2032
43.7312 13.9268
43.9237 13.7847
44.1162 13.5856
44.3088 13.4103
44.5016 13.2224
44.6945 13.0258
44.8875 12.8457
45.0806 12.6312
45.2739 12.5331
45.4673 12.3313
45.6609 12.1275
45.8546 11.9857
46.0484 11.8108
46.2424 11.6567
46.4365 11.4581
46.631 11.3249
46.8254 11.1282
47.0199 10.9881
47.2146 10.7802
47.4095 10.6492
47.6044 10.4606
47.7996 10.3568
47.9948 10.1926
48.1902 10.0457
48.3858 9.93882
48.5815 9.76637
48.7774 9.60364
48.9734 9.50615
49.1696 9.32546
49.3661 9.16161
49.5626 9.01974
49.7592 8.9141
49.956 8.79004
50.153 8.64755
50.3501 8.52016
50.5474 8.36798
50.7448 8.26354
50.9424 8.13536
51.1402 8.00585
51.3381 7.87463
51.5362 7.75705
51.7344 7.6178
51.9328 7.46914
52.1316 7.32668
52.3304 7.23458
52.5293 7.12021
52.7284 6.98926
52.9276 6.86804
53.1271 6.76849
53.3267 6.70205
53.5265 6.53597
53.7264 6.4547
53.9266 6.3392
54.1269 6.2296
54.3274 6.0885
54.528 5.95219
54.7289 5.78225
54.9301 5.58655
55.1314 5.52336
55.3328 5.27442
55.5344 5.07692
55.7361 4.93541