Folder: NiFe_MOF_catalyst_paper/XRD (part 135)

File: Ni3Fe_FD0728.xy
TT I
1.27165 7.48816
1.45013 6.91562
1.62863 5.16215
1.80712 5.32765
1.98562 4.79981
2.16411 5.3496
2.34263 5.76918
2.52115 6.71228
2.69965 8.40081
2.87818 8.42769
3.05672 11.1325
3.23527 15.2316
3.4138 19.0113
3.59237 23.424
3.77094 26.0405
3.9495 29.7054
4.12809 34.5886
4.30669 192.614
4.4853 62.8078
4.6639 55.406
4.84253 66.4926
5.02118 86.1729
5.19981 329.866
5.37848 185.509
5.55716 101.389
5.73586 91.3872
5.91455 93.3456
6.09328 4480.25
6.27201 82.155
6.45075 67.0297
6.62952 62.3567
6.8083 58.4778
6.98711 55.5609
7.16591 54.9441
7.34475 85.6009
7.5236 54.6207
7.70247 55.9458
7.88135 57.2854
8.06026 61.9153
8.23919 68.9776
8.41812 84.494
8.59709 1186.16
8.77609 98.6274
8.9551 90.4347
9.13412 81.6007
9.31318 82.0023
9.49226 84.2663
9.67134 97.3534
9.85047 99.2296
10.0296 336.815
10.2088 411.512
10.388 103.906
10.5672 514.982
10.7465 86.1487
10.9257 77.9121
11.105 71.5727
11.2844 69.594
11.4637 64.6452
11.6431 63.251
11.8225 62.1858
12.002 63.2098
12.1814 155.26
12.3609 69.7727
12.5405 64.4338
12.72 69.1686
12.8996 70.5084
13.0792 78.282
13.2589 241.444
13.4386 127.077
13.6183 250.265
13.7981 97.5127
13.9779 75.7321
14.1577 71.9126
14.3376 71.4657
14.5175 68.4579
14.6974 69.8984
14.8774 110.155
15.0574 148.371
15.2374 70.6198
15.4175 66.1056
15.5976 65.4316
15.7778 94.6558
15.958 153.826
16.1382 62.2615
16.3185 58.3348
16.4988 55.2764
16.6792 54.1579
16.8596 54.9228
17.04 55.3553
17.2205 66.6637
17.401 70.5463
17.5815 58.7849
17.7622 61.0619
17.9428 73.0912
18.1237 138.579
18.3044 91.2025
18.4852 77.3861
18.666 60.3028
18.8469 57.9698
19.0278 56.4479
19.2088 59.4397
19.3898 75.7659
19.5709 53.9147
19.752 53.0889
19.9332 55.9144
20.1144 69.6133
20.2957 63.767
20.477 53.6076
20.6586 49.3844
20.84 48.6871
21.0215 48.4425
21.203 50.7422
21.3846 48.6565
21.5662 48.5455
21.7479 52.4436
21.9297 64.3356
22.1115 55.9635
22.2933 49.812
22.4753 48.6632
22.6572 48.61
22.8393 51.9202
23.0214 57.0664
23.2037 48.6391
23.3859 49.5688
23.5682 56.9148
23.7505 48.2581
23.9329 45.146
24.1154 43.9255
24.2979 43.3515
24.4805 42.737
24.6631 42.6694
24.8458 42.196
25.0286 42.7281
25.2114 44.5435
25.3943 44.4791
25.5773 40.6358
25.7605 40.3714
25.9436 40.7041
26.1268 41.5988
26.31 39.9703
26.4933 40.7208
26.6767 42.0044
26.8601 40.3604
27.0437 38.8445
27.2272 38.4576
27.4109 38.3347
27.5946 38.3598
27.7784 37.8724
27.9623 38.3838
28.1462 38.7278
28.3304 36.9977
28.5145 35.8408
28.6987 35.4867
28.8829 35.3687
29.0673 34.6199
29.2517 34.3528
29.4361 34.1191
29.6207 33.0546
29.8053 32.839
29.99 32.4956
30.1748 32.2991
30.3597 32.1955
30.5447 32.1089
30.7297 32.0424
30.915 31.5233
31.1002 31.1182
31.2855 30.7977
31.4708 30.6832
31.6563 30.2415
31.8418 29.9545
32.0275 29.8614
32.2132 29.3089
32.399 28.9206
32.5848 28.5137
32.7708 28.1624
32.9569 27.9223
33.143 27.7525
33.3293 27.3038
33.5158 26.9814
33.7022 26.4996
33.8887 26.2449
34.0753 25.899
34.262 25.6325
34.4488 25.3409
34.6357 24.9378
34.8227 24.5705
35.0098 24.461
35.1969 24.1176
35.3842 23.8578
35.5716 23.7626
35.759 23.4953
35.9468 23.0901
36.1345 22.7782
36.3222 22.6098
36.5101 22.395
36.6981 22.0623
36.8861 21.6703
37.0743 21.3533
37.2626 21.2162
37.451 21.0075
37.6395 20.7442
37.8281 20.4614
38.0168 20.1389
38.2056 19.9213
38.3945 19.6602
38.5837 19.391
38.7728 19.1708
38.9621 18.9307
39.1514 18.6338
39.3409 18.4093
39.5304 18.1995
39.7201 18.0224
39.9099 17.8046
40.0999 17.5222
40.2899 17.292
40.48 17.0443
40.6703 16.8783
40.8607 16.731
41.0512 16.4317
41.242 16.1857
41.4327 16.0291
41.6236 15.8556
41.8146 15.6187
42.0057 15.4118
42.1969 15.2315
42.3882 15.0019
42.5797 14.8073
42.7713 14.6044
42.963 14.3945
43.1549 14.2023
43.3468 14.0062
43.5389 13.8513
43.7312 13.5834
43.9237 13.4197
44.1162 13.2601
44.3088 13.077
44.5016 12.8637
44.6945 12.705
44.8875 12.4948
45.0806 12.3304
45.2739 12.1927
45.4673 12.0131
45.6609 11.8414
45.8546 11.6962
46.0484 11.5063
46.2424 11.3659
46.4365 11.1679
46.631 10.973
46.8254 10.8117
47.0199 10.6545
47.2146 10.5338
47.4095 10.3511
47.6044 10.2039
47.7996 10.0449
47.9948 9.94295
48.1902 9.7507
48.3858 9.62433
48.5815 9.49138
48.7774 9.39769
48.9734 9.26314
49.1696 9.07097
49.3661 8.9299
49.5626 8.77708
49.7592 8.70249
49.956 8.54177
50.153 8.41536
50.3501 8.29175
50.5474 8.16538
50.7448 8.03493
50.9424 7.90599
51.1402 7.77475
51.3381 7.67606
51.5362 7.53573
51.7344 7.43792
51.9328 7.3096
52.1316 7.15203
52.3304 7.05066
52.5293 6.94127
52.7284 6.8422
52.9276 6.70271
53.1271 6.60153
53.3267 6.4792
53.5265 6.35831
53.7264 6.25977
53.9266 6.17062
54.1269 6.08101
54.3274 5.9301
54.528 5.81015
54.7289 5.62562
54.9301 5.45947
55.1314 5.3627
55.3328 5.1431
55.5344 4.97506
55.7361 4.81119

File: Ni3Fe_FD0729.xy
TT I
1.27165 7.05241
1.45013 6.06763
1.62863 4.84913
1.80712 5.3102
1.98562 4.88467
2.16411 4.5931
2.34263 5.16323
2.52115 7.36712
2.69965 7.54517
2.87818 8.66229
3.05672 10.9136
3.23527 15.3632
3.4138 19.0783
3.59237 23.649
3.77094 26.3988
3.9495 29.7111
4.12809 34.9087
4.30669 195.75
4.4853 62.7008
4.6639 55.4744
4.84253 66.649
5.02118 86.4087
5.19981 325.639
5.37848 185.871
5.55716 101.7
5.73586 91.9943
5.91455 92.69
6.09328 4504.98
6.27201 81.9059
6.45075 67.0787
6.62952 62.447
6.8083 58.4829
6.98711 55.4406
7.16591 55.254
7.34475 86.6883
7.5236 54.6508
7.70247 55.6061
7.88135 57.8382
8.06026 61.7591
8.23919 69.1908
8.41812 83.9046
8.59709 1177.17
8.77609 98.3419
8.9551 90.1972
9.13412 81.8034
9.31318 82.1833
9.49226 83.9366
9.67134 97.0366
9.85047 99.1652
10.0296 332.401
10.2088 416.12
10.388 104.077
10.5672 515.796
10.7465 86.1015
10.9257 77.9032
11.105 71.1111
11.2844 69.7837
11.4637 64.8323
11.6431 63.2381
11.8225 62.3608
12.002 63.094
12.1814 154.508
12.3609 69.9327
12.5405 64.17
12.72 69.2826
12.8996 70.7767
13.0792 78.4384
13.2589 240.265
13.4386 126.598
13.6183 248.93
13.7981 97.6274
13.9779 75.6363
14.1577 72.0395
14.3376 70.9661
14.5175 68.524
14.6974 69.7613
14.8774 110.421
15.0574 149.571
15.2374 70.2927
15.4175 66.1439
15.5976 65.3716
15.7778 93.9919
15.958 154.116
16.1382 62.2215
16.3185 58.3337
16.4988 55.3957
16.6792 54.1821
16.8596 54.9386
17.04 55.3911
17.2205 66.3832
17.401 70.8016
17.5815 58.8647
17.7622 61.0879
17.9428 73.0374
18.1237 139.324
18.3044 90.9605
18.4852 77.6713
18.666 60.1036
18.8469 57.6607
19.0278 56.5452
19.2088 59.3866
19.3898 75.871
19.5709 53.9928
19.752 53.1519
19.9332 55.8211
20.1144 69.6173
20.2957 63.9046
20.477 53.7323
20.6586 49.6267
20.84 48.7131
21.0215 48.3867
21.203 50.8087
21.3846 48.6987
21.5662 48.5741
21.7479 52.5237
21.9297 64.4377
22.1115 55.9629
22.2933 49.7362
22.4753 48.6945
22.6572 48.6433
22.8393 51.9963
23.0214 57.002
23.2037 48.5284
23.3859 49.4784
23.5682 56.891
23.7505 48.3558
23.9329 45.0126
24.1154 44.0023
24.2979 43.3094
24.4805 42.8603
24.6631 42.6948
24.8458 42.0433
25.0286 42.6502
25.2114 44.5001
25.3943 44.3412
25.5773 40.8344
25.7605 40.3533
25.9436 40.8089
26.1268 41.5383
26.31 39.8242
26.4933 40.6253
26.6767 41.9617
26.8601 40.3594
27.0437 38.7375
27.2272 38.4286
27.4109 38.2577
27.5946 38.177
27.7784 37.915
27.9623 38.3571
28.1462 38.6521
28.3304 37.0931
28.5145 35.8124
28.6987 35.5409
28.8829 35.3329
29.0673 34.6503
29.2517 34.2781
29.4361 34.1373
29.6207 33.2194
29.8053 32.7756
29.99 32.5718
30.1748 32.3641
30.3597 32.2279
30.5447 32.1493
30.7297 32.1697
30.915 31.4549
31.1002 31.0806
31.2855 30.7104
31.4708 30.8308
31.6563 30.2285
31.8418 30.1674
32.0275 29.856
32.2132 29.3262
32.399 28.8932
32.5848 28.4186
32.7708 28.0595
32.9569 27.9653
33.143 27.8544
33.3293 27.3822
33.5158 26.9063
33.7022 26.4492
33.8887 26.2034
34.0753 26.014
34.262 25.6189
34.4488 25.2829
34.6357 24.9959
34.8227 24.6586
35.0098 24.4352
35.1969 24.1021
35.3842 23.93
35.5716 23.6572
35.759 23.4221
35.9468 23.0133
36.1345 22.7898
36.3222 22.5988
36.5101 22.3501
36.6981 22.072
36.8861 21.8302
37.0743 21.4375
37.2626 21.1937
37.451 20.9502
37.6395 20.7237
37.8281 20.4247
38.0168 20.1459
38.2056 19.9135
38.3945 19.6895
38.5837 19.4232
38.7728 19.1289
38.9621 18.8664
39.1514 18.6564
39.3409 18.4224
39.5304 18.1962
39.7201 18.0429
39.9099 17.8335
40.0999 17.5181
40.2899 17.3465
40.48 17.0977
40.6703 16.9231
40.8607 16.7474
41.0512 16.4595
41.242 16.2188
41.4327 16.0168
41.6236 15.7613
41.8146 15.6796
42.0057 15.3556
42.1969 15.1595
42.3882 14.9891
42.5797 14.7412
42.7713 14.6293
42.963 14.3549
43.1549 14.2159
43.3468 13.9586
43.5389 13.8589
43.7312 13.6094
43.9237 13.421
44.1162 13.2121
44.3088 13.0308
44.5016 12.8627
44.6945 12.7193
44.8875 12.5451
45.0806 12.3351
45.2739 12.1847
45.4673 12.005
45.6609 11.8353
45.8546 11.6829
46.0484 11.513
46.2424 11.3446
46.4365 11.2025
46.631 10.9552
46.8254 10.8168
47.0199 10.7071
47.2146 10.5656
47.4095 10.3578
47.6044 10.2077
47.7996 10.041
47.9948 9.9277
48.1902 9.81427
48.3858 9.66331
48.5815 9.49724
48.7774 9.3889
48.9734 9.21347
49.1696 9.0905
49.3661 8.96486
49.5626 8.78505
49.7592 8.66121
49.956 8.54191
50.153 8.40554
50.3501 8.28644
50.5474 8.16601
50.7448 8.01648
50.9424 7.92759
51.1402 7.78847
51.3381 7.64206
51.5362 7.54605
51.7344 7.44337
51.9328 7.32288
52.1316 7.17988
52.3304 7.03539
52.5293 6.91611
52.7284 6.83855
52.9276 6.71467
53.1271 6.58902
53.3267 6.50547
53.5265 6.34945
53.7264 6.29342
53.9266 6.13378
54.1269 6.02108
54.3274 5.90816
54.528 5.80378
54.7289 5.60182
54.9301 5.45231
55.1314 5.33657
55.3328 5.10151
55.5344 4.95886
55.7361 4.88562

File: Ni3Fe_FD0730.xy
TT I
1.27165 7.37963
1.45013 6.28771
1.62863 5.64541
1.80712 4.842
1.98562 4.8387
2.16411 5.10716
2.34263 5.86367
2.52115 6.80058
2.69965 7.87071
2.87818 8.19877
3.05672 11.492
3.23527 15.2505
3.4138 19.1127
3.59237 23.7123
3.77094 26.0724
3.9495 30.0423
4.12809 35.0968
4.30669 196.811
4.4853 63.5963
4.6639 55.5894
4.84253 67.1026
5.02118 86.1546
5.19981 327.613
5.37848 184.957
5.55716 101.45
5.73586 91.8576
5.91455 94.0779
6.09328 4530.43
6.27201 82.6195
6.45075 66.9181
6.62952 62.579
6.8083 58.3178
6.98711 55.4597
7.16591 55.0549
7.34475 86.0365
7.5236 54.5885
7.70247 56.0034
7.88135 57.3885
8.06026 62.0881
8.23919 69.4531
8.41812 84.4701
8.59709 1175.86
8.77609 99.3349
8.9551 90.5522
9.13412 81.6575
9.31318 82.0372
9.49226 84.2413
9.67134 97.2407
9.85047 99.524
10.0296 332.977
10.2088 408.72
10.388 103.87
10.5672 522.861
10.7465 86.539
10.9257 78.0491
11.105 71.6581
11.2844 69.7377
11.4637 64.7626
11.6431 63.7909
11.8225 62.2537
12.002 63.2455
12.1814 154.379
12.3609 69.8625
12.5405 64.4816
12.72 69.2672
12.8996 70.4863
13.0792 78.3728
13.2589 241.142
13.4386 126.411
13.6183 249.898
13.7981 97.2908
13.9779 75.5172
14.1577 72.2849
14.3376 71.2293
14.5175 68.5606
14.6974 70.1929
14.8774 110.352
15.0574 148.877
15.2374 70.7336
15.4175 66.2306
15.5976 65.6638
15.7778 94.3724
15.958 153.768
16.1382 62.1784
16.3185 58.3098
16.4988 55.3325
16.6792 54.3359
16.8596 55.1088
17.04 55.3607
17.2205 66.5999
17.401 70.5018
17.5815 58.9828
17.7622 61.0793
17.9428 73.1728
18.1237 138.787
18.3044 91.1307
18.4852 76.8636
18.666 60.2304
18.8469 57.9355
19.0278 56.7042
19.2088 59.2103
19.3898 75.9048
19.5709 54.1753
19.752 53.1844
19.9332 56.0264
20.1144 69.6718
20.2957 63.8148
20.477 53.5421
20.6586 49.3751
20.84 48.6286
21.0215 48.1997
21.203 50.855
21.3846 48.8626
21.5662 48.5685
21.7479 52.4088
21.9297 64.2831
22.1115 55.9552
22.2933 49.6279
22.4753 48.5583
22.6572 48.5169
22.8393 51.855
23.0214 56.9511
23.2037 48.6588
23.3859 49.4878
23.5682 56.7873
23.7505 48.2131
23.9329 44.8962
24.1154 44.0184
24.2979 43.3037
24.4805 42.7932
24.6631 42.7287
24.8458 41.928
25.0286 42.726
25.2114 44.6559
25.3943 44.3173
25.5773 40.7794
25.7605 40.3846
25.9436 40.5533
26.1268 41.5004
26.31 40.0192
26.4933 40.6531
26.6767 41.9898
26.8601 40.3182
27.0437 38.6597
27.2272 38.3572
27.4109 38.1889
27.5946 38.2364
27.7784 37.7745
27.9623 38.3878
28.1462 38.7191
28.3304 37.0161
28.5145 35.9075
28.6987 35.6163
28.8829 35.3489
29.0673 34.5981
29.2517 34.1916
29.4361 34.0323
29.6207 33.0193
29.8053 32.8617
29.99 32.6141
30.1748 32.3943
30.3597 32.1425
30.5447 32.0573
30.7297 32.1973
30.915 31.494
31.1002 31.1413
31.2855 30.6607
31.4708 30.632
31.6563 30.2907
31.8418 30.1399
32.0275 29.8993
32.2132 29.2463
32.399 28.8646
32.5848 28.3998
32.7708 28.072
32.9569 27.9365
33.143 27.7448
33.3293 27.3404
33.5158 26.9047
33.7022 26.4457
33.8887 26.2207
34.0753 25.9193
34.262 25.6295
34.4488 25.2133
34.6357 24.8802
34.8227 24.6318
35.0098 24.4862
35.1969 24.1457
35.3842 24.0153
35.5716 23.6644
35.759 23.3572
35.9468 23.0072
36.1345 22.8587
36.3222 22.6315
36.5101 22.3309
36.6981 22.0219
36.8861 21.7049
37.0743 21.4479
37.2626 21.2507
37.451 20.9764
37.6395 20.7599
37.8281 20.4239
38.0168 20.1118
38.2056 19.8556
38.3945 19.5848
38.5837 19.4569
38.7728 19.2411
38.9621 18.9324
39.1514 18.7157
39.3409 18.4
39.5304 18.2253
39.7201 18.0543
39.9099 17.7786
40.0999 17.548
40.2899 17.3212
40.48 17.1212
40.6703 16.906
40.8607 16.7115
41.0512 16.4639
41.242 16.1754
41.4327 16.0349
41.6236 15.7866
41.8146 15.5779
42.0057 15.4042
42.1969 15.1891
42.3882 15.0096
42.5797 14.7435
42.7713 14.6378
42.963 14.3546
43.1549 14.1707
43.3468 13.9476
43.5389 13.8296
43.7312 13.5502
43.9237 13.4125
44.1162 13.2207
44.3088 13.0324
44.5016 12.8435
44.6945 12.6896
44.8875 12.5624
45.0806 12.3683
45.2739 12.1781
45.4673 12.0177
45.6609 11.827
45.8546 11.6205
46.0484 11.5086
46.2424 11.3294
46.4365 11.2319
46.631 11.0053
46.8254 10.8314
47.0199 10.7046
47.2146 10.5166
47.4095 10.3591
47.6044 10.2054
47.7996 10.0399
47.9948 9.90774
48.1902 9.77511
48.3858 9.64016
48.5815 9.50424
48.7774 9.36442
48.9734 9.25333
49.1696 9.09198
49.3661 8.94422
49.5626 8.76866
49.7592 8.67633
49.956 8.56652
50.153 8.42185
50.3501 8.26973
50.5474 8.15284
50.7448 8.01746
50.9424 7.93146
51.1402 7.78576
51.3381 7.65243
51.5362 7.54258
51.7344 7.4236
51.9328 7.27636
52.1316 7.12405
52.3304 7.03082
52.5293 6.96254
52.7284 6.78424
52.9276 6.68772
53.1271 6.60347
53.3267 6.46293
53.5265 6.40081
53.7264 6.26368
53.9266 6.1405
54.1269 6.04686
54.3274 5.91314
54.528 5.7802
54.7289 5.59778
54.9301 5.43508
55.1314 5.31735
55.3328 5.12959
55.5344 4.94006
55.7361 4.79263

File: Ni3Fe_FD0731.xy
TT I
1.27165 7.54659
1.45013 6.25132
1.62863 5.67822
1.80712 4.92987
1.98562 4.36745
2.16411 5.7196
2.34263 5.52575
2.52115 7.12482
2.69965 8.67602
2.87818 9.17411
3.05672 11.1646
3.23527 14.8964
3.4138 18.6505
3.59237 23.5516
3.77094 26.0791
3.9495 29.7634
4.12809 34.4586
4.30669 199.276
4.4853 64.0211
4.6639 55.2172
4.84253 66.972
5.02118 86.1161
5.19981 325.423
5.37848 184.585
5.55716 101.897
5.73586 92.0115
5.91455 93.1185
6.09328 4534.9
6.27201 82.4668
6.45075 67.0387
6.62952 62.4854
6.8083 57.9269
6.98711 55.6167
7.16591 54.7445
7.34475 86.9373
7.5236 54.2373
7.70247 56.1451
7.88135 57.9629
8.06026 62.0499
8.23919 69.2444
8.41812 84.3677
8.59709 1176.0
8.77609 99.0781
8.9551 90.7572
9.13412 81.4273
9.31318 81.7959
9.49226 84.4039
9.67134 97.1577
9.85047 99.5825
10.0296 331.969
10.2088 410.631
10.388 103.874
10.5672 516.774
10.7465 86.1592
10.9257 78.1957
11.105 71.5568
11.2844 69.7621
11.4637 64.8196
11.6431 63.5158
11.8225 62.2047
12.002 63.339
12.1814 154.483
12.3609 70.2386
12.5405 64.1523
12.72 69.4322
12.8996 70.8796
13.0792 78.4961
13.2589 240.298
13.4386 127.14
13.6183 249.285
13.7981 97.5001
13.9779 75.5214
14.1577 72.0951
14.3376 71.0491
14.5175 68.7155
14.6974 70.2845
14.8774 110.155
15.0574 148.484
15.2374 70.4795
15.4175 66.2103
15.5976 65.3634
15.7778 94.3324
15.958 154.281
16.1382 62.2518
16.3185 58.3441
16.4988 55.297
16.6792 54.2253
16.8596 55.1577
17.04 55.7425
17.2205 66.7046
17.401 70.8221
17.5815 58.9368
17.7622 61.2069
17.9428 73.0366
18.1237 139.176
18.3044 90.7825
18.4852 77.0666
18.666 60.1984
18.8469 58.0089
19.0278 56.7045
19.2088 59.2358
19.3898 75.6033
19.5709 53.8616
19.752 53.0918
19.9332 56.023
20.1144 69.8262
20.2957 64.07
20.477 53.7412
20.6586 49.6047
20.84 48.8759
21.0215 48.4727
21.203 50.7119
21.3846 48.7465
21.5662 48.711
21.7479 52.4816
21.9297 64.471
22.1115 56.0323
22.2933 49.8403
22.4753 48.7831
22.6572 48.8265
22.8393 51.8081
23.0214 57.0913
23.2037 48.6242
23.3859 49.6202
23.5682 56.9021
23.7505 48.2865
23.9329 45.2366
24.1154 44.0986
24.2979 43.3585
24.4805 42.8933
24.6631 42.7428
24.8458 42.0935
25.0286 42.6438
25.2114 44.5795
25.3943 44.4737
25.5773 40.8586
25.7605 40.3047
25.9436 40.658
26.1268 41.4577
26.31 39.9637
26.4933 40.6219
26.6767 42.0202
26.8601 40.365
27.0437 38.7751
27.2272 38.4528
27.4109 38.3168
27.5946 38.2435
27.7784 37.7524
27.9623 38.3814
28.1462 38.6721
28.3304 37.0636
28.5145 35.8523
28.6987 35.6063
28.8829 35.3757
29.0673 34.5519
29.2517 34.3006
29.4361 34.0876
29.6207 33.0642
29.8053 32.7839
29.99 32.4141
30.1748 32.4162
30.3597 32.2954
30.5447 32.0421
30.7297 32.1409
30.915 31.5548
31.1002 31.084
31.2855 30.8148
31.4708 30.6916
31.6563 30.3013
31.8418 30.0361
32.0275 29.8198
32.2132 29.2627
32.399 28.8327
32.5848 28.3791
32.7708 28.2252
32.9569 27.9423
33.143 27.6696
33.3293 27.2816
33.5158 26.9095
33.7022 26.5464
33.8887 26.2305
34.0753 25.9099
34.262 25.5747
34.4488 25.2802
34.6357 24.9175
34.8227 24.5984
35.0098 24.3531
35.1969 24.1811
35.3842 23.9557
35.5716 23.7043
35.759 23.4359
35.9468 23.0879
36.1345 22.8559
36.3222 22.5893
36.5101 22.3495
36.6981 22.0418
36.8861 21.7575
37.0743 21.4506
37.2626 21.2107
37.451 20.9823
37.6395 20.7437
37.8281 20.4679
38.0168 20.1895
38.2056 19.9113
38.3945 19.6472
38.5837 19.407
38.7728 19.1867
38.9621 18.9528
39.1514 18.7054
39.3409 18.3869
39.5304 18.2214
39.7201 18.0638
39.9099 17.8138
40.0999 17.5599
40.2899 17.3616
40.48 17.0707
40.6703 16.9089
40.8607 16.6815
41.0512 16.4626
41.242 16.2278
41.4327 15.9925
41.6236 15.8298
41.8146 15.621
42.0057 15.4311
42.1969 15.1718
42.3882 15.0359
42.5797 14.7926
42.7713 14.5931
42.963 14.3862
43.1549 14.2137
43.3468 13.9877
43.5389 13.8099
43.7312 13.5757
43.9237 13.4293
44.1162 13.1809
44.3088 13.0125
44.5016 12.8981
44.6945 12.6944
44.8875 12.5319
45.0806 12.326
45.2739 12.1946
45.4673 12.0449
45.6609 11.7948
45.8546 11.7042
46.0484 11.5282
46.2424 11.321
46.4365 11.2191
46.631 11.0057
46.8254 10.8479
47.0199 10.7062
47.2146 10.5606
47.4095 10.3879
47.6044 10.2272
47.7996 10.0637
47.9948 9.91149
48.1902 9.79012
48.3858 9.63399
48.5815 9.482
48.7774 9.35318
48.9734 9.2089
49.1696 9.04124
49.3661 8.9614
49.5626 8.80563
49.7592 8.70835
49.956 8.55943
50.153 8.40535
50.3501 8.3072
50.5474 8.15793
50.7448 8.06265
50.9424 7.90169
51.1402 7.78344
51.3381 7.63676
51.5362 7.5473
51.7344 7.39559
51.9328 7.27736
52.1316 7.12331
52.3304 7.04746
52.5293 6.9205
52.7284 6.82091
52.9276 6.71829
53.1271 6.59656
53.3267 6.46718
53.5265 6.35822
53.7264 6.2334
53.9266 6.16305
54.1269 6.0176
54.3274 5.91814
54.528 5.81606
54.7289 5.61502
54.9301 5.44501
55.1314 5.32867
55.3328 5.12098
55.5344 4.92785
55.7361 4.85367

File: Ni3Fe_FD0734.xy
TT I
1.27165 7.1929
1.45013 6.18644
1.62863 4.91819
1.80712 5.07453
1.98562 4.53754
2.16411 4.65636
2.34263 5.40934
2.52115 7.06827
2.69965 8.46711
2.87818 8.64158
3.05672 11.0909
3.23527 15.0349
3.4138 19.1068
3.59237 23.8575
3.77094 26.2245
3.9495 29.5984
4.12809 34.7656
4.30669 207.169
4.4853 64.4604
4.6639 55.4831
4.84253 66.8547
5.02118 86.2312
5.19981 320.624
5.37848 184.088
5.55716 101.508
5.73586 91.8907
5.91455 93.021
6.09328 4604.02
6.27201 82.3378
6.45075 67.0059
6.62952 62.4721
6.8083 58.4018
6.98711 55.5366
7.16591 55.0061
7.34475 88.5702
7.5236 54.5882
7.70247 55.938
7.88135 57.756
8.06026 62.127
8.23919 69.2512
8.41812 84.356
8.59709 1163.45
8.77609 99.0695
8.9551 90.9082
9.13412 81.4005
9.31318 81.8962
9.49226 84.031
9.67134 97.5319
9.85047 99.3006
10.0296 327.286
10.2088 413.062
10.388 103.711
10.5672 514.254
10.7465 86.5238
10.9257 77.994
11.105 71.4878
11.2844 70.0636
11.4637 64.6571
11.6431 63.4711
11.8225 62.2446
12.002 63.0611
12.1814 153.646
12.3609 70.4732
12.5405 63.8485
12.72 69.5918
12.8996 70.6331
13.0792 78.3681
13.2589 237.925
13.4386 126.263
13.6183 248.428
13.7981 97.4353
13.9779 75.6483
14.1577 72.0388
14.3376 70.9884
14.5175 68.5611
14.6974 69.8972
14.8774 109.51
15.0574 149.668
15.2374 70.369
15.4175 65.8556
15.5976 65.3747
15.7778 93.5928
15.958 155.942
16.1382 62.4319
16.3185 58.3391
16.4988 55.1343
16.6792 54.4165
16.8596 54.8726
17.04 55.4834
17.2205 66.3273
17.401 70.5297
17.5815 58.8659
17.7622 61.1234
17.9428 72.7512
18.1237 138.387
18.3044 90.647
18.4852 77.29
18.666 60.2518
18.8469 57.9377
19.0278 56.5854
19.2088 59.3213
19.3898 75.976
19.5709 54.1053
19.752 53.1754
19.9332 55.7788
20.1144 69.4274
20.2957 63.7762
20.477 53.669
20.6586 49.471
20.84 48.6003
21.0215 48.3247
21.203 50.7175
21.3846 48.8406
21.5662 48.5142
21.7479 52.3145
21.9297 64.1058
22.1115 55.7657
22.2933 49.7455
22.4753 48.5236
22.6572 48.5287
22.8393 51.8475
23.0214 56.8896
23.2037 48.748
23.3859 49.5716
23.5682 56.7665
23.7505 48.34
23.9329 45.1034
24.1154 43.947
24.2979 43.2459
24.4805 42.7758
24.6631 42.4985
24.8458 42.1074
25.0286 42.6478
25.2114 44.387
25.3943 44.3004
25.5773 40.6889
25.7605 40.2533
25.9436 40.7316
26.1268 41.5444
26.31 39.9632
26.4933 40.5937
26.6767 42.0513
26.8601 40.2769
27.0437 38.6981
27.2272 38.505
27.4109 38.2243
27.5946 38.0639
27.7784 37.7163
27.9623 38.3613
28.1462 38.6958
28.3304 37.0107
28.5145 35.7598
28.6987 35.535
28.8829 35.1779
29.0673 34.5935
29.2517 34.3184
29.4361 33.9553
29.6207 32.9819
29.8053 32.7491
29.99 32.4768
30.1748 32.4035
30.3597 32.1657
30.5447 32.0615
30.7297 32.1479
30.915 31.5674
31.1002 31.0495
31.2855 30.7123
31.4708 30.6905
31.6563 30.2551
31.8418 30.0381
32.0275 29.7906
32.2132 29.2753
32.399 28.8345
32.5848 28.2686
32.7708 28.0864
32.9569 27.8844
33.143 27.669
33.3293 27.3021
33.5158 26.91
33.7022 26.5772
33.8887 26.2774
34.0753 25.9003
34.262 25.5572
34.4488 25.1658
34.6357 24.9214
34.8227 24.5599
35.0098 24.3409
35.1969 24.1428
35.3842 23.8497
35.5716 23.6732
35.759 23.4419
35.9468 23.069
36.1345 22.899
36.3222 22.6144
36.5101 22.4212
36.6981 22.1016
36.8861 21.7365
37.0743 21.4112
37.2626 21.1668
37.451 20.9158
37.6395 20.7459
37.8281 20.4391
38.0168 20.1825
38.2056 19.844
38.3945 19.6537
38.5837 19.3677
38.7728 19.1217
38.9621 18.9122
39.1514 18.681
39.3409 18.3832
39.5304 18.1882
39.7201 17.994
39.9099 17.776
40.0999 17.5618
40.2899 17.2843
40.48 17.0598
40.6703 16.82
40.8607 16.6642
41.0512 16.4916
41.242 16.1975
41.4327 16.0544
41.6236 15.7999
41.8146 15.5966
42.0057 15.355
42.1969 15.1843
42.3882 15.0076
42.5797 14.793
42.7713 14.5683
42.963 14.3992
43.1549 14.1439
43.3468 13.9611
43.5389 13.7809
43.7312 13.5861
43.9237 13.4123
44.1162 13.2484
44.3088 13.0857
44.5016 12.8533
44.6945 12.6961
44.8875 12.5147
45.0806 12.3049
45.2739 12.1744
45.4673 11.9711
45.6609 11.7863
45.8546 11.6461
46.0484 11.4855
46.2424 11.2995
46.4365 11.1788
46.631 10.9594
46.8254 10.8559
47.0199 10.6362
47.2146 10.5586
47.4095 10.3587
47.6044 10.1719
47.7996 10.068
47.9948 9.94166
48.1902 9.78052
48.3858 9.66459
48.5815 9.51202
48.7774 9.33995
48.9734 9.24689
49.1696 9.09066
49.3661 8.98177
49.5626 8.77009
49.7592 8.66981
49.956 8.53884
50.153 8.39803
50.3501 8.28376
50.5474 8.16326
50.7448 8.05975
50.9424 7.88787
51.1402 7.80681
51.3381 7.64791
51.5362 7.52353
51.7344 7.4299
51.9328 7.25504
52.1316 7.14409
52.3304 7.07001
52.5293 6.92959
52.7284 6.81259
52.9276 6.69489
53.1271 6.60929
53.3267 6.45495
53.5265 6.37271
53.7264 6.25143
53.9266 6.15452
54.1269 6.02653
54.3274 5.94816
54.528 5.81409
54.7289 5.64056
54.9301 5.44111
55.1314 5.32858
55.3328 5.14944
55.5344 4.89061
55.7361 4.79418