Folder: NiFe_MOF_catalyst_paper/XRD (part 175)

File: Ni3Fe_FD0949.xy
TT I
1.27165 7.06879
1.45013 5.42745
1.62863 5.33521
1.80712 4.99767
1.98562 4.52738
2.16411 4.57572
2.34263 5.45548
2.52115 7.27253
2.69965 8.92929
2.87818 8.92433
3.05672 10.7813
3.23527 15.837
3.4138 18.7026
3.59237 23.2784
3.77094 25.9013
3.9495 28.9591
4.12809 34.3608
4.30669 112.094
4.4853 54.2515
4.6639 55.086
4.84253 67.0514
5.02118 87.2645
5.19981 316.304
5.37848 191.325
5.55716 101.012
5.73586 91.2897
5.91455 93.263
6.09328 4510.02
6.27201 78.9483
6.45075 68.6696
6.62952 62.0967
6.8083 58.7217
6.98711 54.8281
7.16591 56.3424
7.34475 68.9983
7.5236 53.563
7.70247 55.833
7.88135 56.9183
8.06026 61.8355
8.23919 68.3675
8.41812 82.436
8.59709 1165.05
8.77609 96.7046
8.9551 88.5671
9.13412 81.6173
9.31318 83.1453
9.49226 83.3506
9.67134 94.3193
9.85047 99.9998
10.0296 326.787
10.2088 379.725
10.388 102.135
10.5672 527.867
10.7465 85.096
10.9257 77.0501
11.105 70.524
11.2844 67.5051
11.4637 63.6591
11.6431 62.1253
11.8225 61.7398
12.002 62.806
12.1814 157.121
12.3609 66.6746
12.5405 63.8068
12.72 66.8644
12.8996 70.1553
13.0792 78.2156
13.2589 242.626
13.4386 119.853
13.6183 255.951
13.7981 94.7864
13.9779 74.3798
14.1577 70.9001
14.3376 69.2982
14.5175 67.6475
14.6974 69.3686
14.8774 110.183
15.0574 144.692
15.2374 68.2903
15.4175 65.3148
15.5976 64.6583
15.7778 94.0205
15.958 150.392
16.1382 60.4668
16.3185 57.1106
16.4988 54.5238
16.6792 53.6735
16.8596 54.0722
17.04 54.6211
17.2205 65.8646
17.401 69.0403
17.5815 58.2289
17.7622 60.1358
17.9428 72.4694
18.1237 137.169
18.3044 90.5147
18.4852 74.9274
18.666 59.3449
18.8469 57.1298
19.0278 55.9514
19.2088 58.3369
19.3898 74.1257
19.5709 53.1471
19.752 52.3463
19.9332 55.4832
20.1144 69.2505
20.2957 63.8291
20.477 52.3523
20.6586 48.7633
20.84 48.0564
21.0215 47.8188
21.203 50.1235
21.3846 48.1574
21.5662 48.0629
21.7479 51.806
21.9297 63.5652
22.1115 55.3416
22.2933 48.9065
22.4753 47.9186
22.6572 48.0261
22.8393 51.3435
23.0214 56.1139
23.2037 47.9102
23.3859 49.045
23.5682 56.6266
23.7505 47.3641
23.9329 44.4779
24.1154 43.3806
24.2979 42.7362
24.4805 42.2835
24.6631 42.2482
24.8458 41.508
25.0286 42.1813
25.2114 43.9412
25.3943 43.6767
25.5773 40.3432
25.7605 39.7828
25.9436 40.2528
26.1268 40.9853
26.31 39.3074
26.4933 40.0869
26.6767 41.4697
26.8601 39.8192
27.0437 38.1038
27.2272 37.921
27.4109 37.7837
27.5946 37.7752
27.7784 37.2656
27.9623 37.8984
28.1462 38.1728
28.3304 36.6408
28.5145 35.3627
28.6987 35.0367
28.8829 34.8148
29.0673 34.1087
29.2517 33.8241
29.4361 33.6328
29.6207 32.637
29.8053 32.2736
29.99 32.0191
30.1748 31.7773
30.3597 31.7258
30.5447 31.6888
30.7297 31.6439
30.915 31.0533
31.1002 30.541
31.2855 30.399
31.4708 30.3492
31.6563 29.8747
31.8418 29.5911
32.0275 29.4368
32.2132 28.8767
32.399 28.5388
32.5848 28.0876
32.7708 27.691
32.9569 27.6621
33.143 27.4131
33.3293 26.9359
33.5158 26.6362
33.7022 26.1403
33.8887 25.9708
34.0753 25.6163
34.262 25.2741
34.4488 24.9589
34.6357 24.5585
34.8227 24.3268
35.0098 24.1281
35.1969 23.8304
35.3842 23.6335
35.5716 23.3698
35.759 23.1079
35.9468 22.7191
36.1345 22.5297
36.3222 22.3596
36.5101 22.0745
36.6981 21.7404
36.8861 21.4643
37.0743 21.1759
37.2626 20.8998
37.451 20.6347
37.6395 20.5267
37.8281 20.1407
38.0168 19.8785
38.2056 19.6047
38.3945 19.3277
38.5837 19.1473
38.7728 18.8707
38.9621 18.6339
39.1514 18.4048
39.3409 18.1687
39.5304 17.9149
39.7201 17.7629
39.9099 17.5729
40.0999 17.253
40.2899 17.1027
40.48 16.7815
40.6703 16.6687
40.8607 16.4687
41.0512 16.2547
41.242 15.9889
41.4327 15.782
41.6236 15.5305
41.8146 15.4083
42.0057 15.1965
42.1969 15.0018
42.3882 14.8317
42.5797 14.5882
42.7713 14.3663
42.963 14.2065
43.1549 13.9883
43.3468 13.7374
43.5389 13.621
43.7312 13.3812
43.9237 13.2683
44.1162 13.0132
44.3088 12.895
44.5016 12.6893
44.6945 12.4971
44.8875 12.3997
45.0806 12.1475
45.2739 12.002
45.4673 11.8747
45.6609 11.6702
45.8546 11.5015
46.0484 11.3588
46.2424 11.1884
46.4365 11.0337
46.631 10.8495
46.8254 10.7293
47.0199 10.5423
47.2146 10.4001
47.4095 10.2187
47.6044 10.0342
47.7996 9.91638
47.9948 9.79517
48.1902 9.64229
48.3858 9.50187
48.5815 9.40461
48.7774 9.25141
48.9734 9.08078
49.1696 8.94228
49.3661 8.83998
49.5626 8.68084
49.7592 8.5436
49.956 8.44614
50.153 8.27018
50.3501 8.15779
50.5474 8.07233
50.7448 7.93354
50.9424 7.78745
51.1402 7.67554
51.3381 7.51302
51.5362 7.45778
51.7344 7.33795
51.9328 7.20145
52.1316 7.07809
52.3304 6.9704
52.5293 6.83775
52.7284 6.72496
52.9276 6.60061
53.1271 6.52689
53.3267 6.40557
53.5265 6.33132
53.7264 6.19643
53.9266 6.08552
54.1269 5.94127
54.3274 5.88482
54.528 5.71974
54.7289 5.56123
54.9301 5.39391
55.1314 5.25764
55.3328 5.09131
55.5344 4.82131
55.7361 4.78978

File: Ni3Fe_FD0950.xy
TT I
1.27165 7.34424
1.45013 6.59315
1.62863 5.73413
1.80712 4.84998
1.98562 4.34299
2.16411 4.74401
2.34263 5.64816
2.52115 7.85069
2.69965 8.70896
2.87818 8.927
3.05672 11.4724
3.23527 15.5625
3.4138 18.831
3.59237 23.3968
3.77094 25.9303
3.9495 29.4911
4.12809 33.6951
4.30669 122.472
4.4853 55.435
4.6639 54.7889
4.84253 67.5244
5.02118 86.3577
5.19981 315.587
5.37848 187.03
5.55716 101.025
5.73586 91.3979
5.91455 92.8534
6.09328 4496.47
6.27201 79.3167
6.45075 68.5742
6.62952 62.3472
6.8083 58.1813
6.98711 54.9909
7.16591 55.8852
7.34475 71.0051
7.5236 53.6517
7.70247 56.1512
7.88135 57.0572
8.06026 62.0247
8.23919 68.6114
8.41812 82.689
8.59709 1170.74
8.77609 96.6751
8.9551 88.5995
9.13412 81.8431
9.31318 83.1743
9.49226 83.617
9.67134 94.5455
9.85047 99.6262
10.0296 325.286
10.2088 374.572
10.388 101.998
10.5672 530.605
10.7465 84.8933
10.9257 76.6464
11.105 70.4588
11.2844 68.366
11.4637 63.9379
11.6431 62.2561
11.8225 61.5913
12.002 62.8238
12.1814 156.751
12.3609 66.7984
12.5405 63.8032
12.72 66.973
12.8996 70.1902
13.0792 77.8687
13.2589 242.715
13.4386 119.172
13.6183 256.008
13.7981 94.7004
13.9779 74.4368
14.1577 70.9286
14.3376 69.4196
14.5175 67.9089
14.6974 69.1566
14.8774 110.218
15.0574 143.863
15.2374 68.7485
15.4175 65.2962
15.5976 64.6191
15.7778 93.8886
15.958 149.68
16.1382 60.5127
16.3185 57.091
16.4988 54.4461
16.6792 53.6094
16.8596 54.0903
17.04 54.8366
17.2205 65.8315
17.401 68.7858
17.5815 58.1565
17.7622 60.1693
17.9428 71.9878
18.1237 136.755
18.3044 90.479
18.4852 74.7085
18.666 59.5001
18.8469 56.9978
19.0278 55.8577
19.2088 58.1624
19.3898 74.2147
19.5709 53.2459
19.752 52.2868
19.9332 55.1713
20.1144 68.7126
20.2957 63.7601
20.477 52.4064
20.6586 48.9223
20.84 47.9755
21.0215 47.7645
21.203 50.1677
21.3846 48.0781
21.5662 47.9568
21.7479 51.8034
21.9297 63.3878
22.1115 55.3734
22.2933 49.0117
22.4753 47.8568
22.6572 48.0312
22.8393 51.1494
23.0214 55.9618
23.2037 47.8844
23.3859 49.0594
23.5682 56.5823
23.7505 47.3728
23.9329 44.4382
24.1154 43.3316
24.2979 42.6436
24.4805 42.2251
24.6631 42.003
24.8458 41.6259
25.0286 42.308
25.2114 43.9666
25.3943 43.6659
25.5773 40.0927
25.7605 39.7058
25.9436 40.0744
26.1268 40.997
26.31 39.3682
26.4933 40.0774
26.6767 41.5499
26.8601 39.8538
27.0437 38.3389
27.2272 37.8056
27.4109 37.8347
27.5946 37.881
27.7784 37.194
27.9623 37.84
28.1462 38.2206
28.3304 36.6198
28.5145 35.3161
28.6987 34.9414
28.8829 34.8876
29.0673 34.1202
29.2517 33.7362
29.4361 33.4678
29.6207 32.571
29.8053 32.4283
29.99 32.0563
30.1748 31.9209
30.3597 31.6404
30.5447 31.5839
30.7297 31.6746
30.915 31.0225
31.1002 30.582
31.2855 30.3571
31.4708 30.2481
31.6563 29.8295
31.8418 29.7013
32.0275 29.475
32.2132 28.8542
32.399 28.4727
32.5848 27.9834
32.7708 27.7448
32.9569 27.5964
33.143 27.4039
33.3293 27.0098
33.5158 26.5602
33.7022 26.124
33.8887 25.9101
34.0753 25.5608
34.262 25.2936
34.4488 24.9063
34.6357 24.5021
34.8227 24.2599
35.0098 24.1094
35.1969 23.7669
35.3842 23.6001
35.5716 23.3975
35.759 23.0897
35.9468 22.7659
36.1345 22.4917
36.3222 22.2882
36.5101 22.0566
36.6981 21.7016
36.8861 21.5035
37.0743 21.1383
37.2626 20.91
37.451 20.6357
37.6395 20.5198
37.8281 20.1775
38.0168 19.8327
38.2056 19.5889
38.3945 19.3225
38.5837 19.0707
38.7728 18.9251
38.9621 18.6131
39.1514 18.4054
39.3409 18.1955
39.5304 17.9342
39.7201 17.7914
39.9099 17.5311
40.0999 17.3142
40.2899 17.0404
40.48 16.8639
40.6703 16.682
40.8607 16.4936
41.0512 16.2453
41.242 15.9569
41.4327 15.8126
41.6236 15.5975
41.8146 15.4117
42.0057 15.1789
42.1969 14.9935
42.3882 14.8362
42.5797 14.578
42.7713 14.389
42.963 14.1755
43.1549 13.9497
43.3468 13.7861
43.5389 13.5909
43.7312 13.3778
43.9237 13.2685
44.1162 13.0294
44.3088 12.8434
44.5016 12.6837
44.6945 12.5002
44.8875 12.4002
45.0806 12.1996
45.2739 11.9967
45.4673 11.87
45.6609 11.646
45.8546 11.5083
46.0484 11.3259
46.2424 11.1359
46.4365 10.9963
46.631 10.8252
46.8254 10.7051
47.0199 10.5269
47.2146 10.3716
47.4095 10.2597
47.6044 10.0357
47.7996 9.95629
47.9948 9.76756
48.1902 9.63386
48.3858 9.50794
48.5815 9.33519
48.7774 9.27008
48.9734 9.10379
49.1696 8.95274
49.3661 8.83538
49.5626 8.67606
49.7592 8.54844
49.956 8.44856
50.153 8.30282
50.3501 8.16407
50.5474 8.03962
50.7448 7.92715
50.9424 7.80647
51.1402 7.66475
51.3381 7.5407
51.5362 7.43416
51.7344 7.28236
51.9328 7.13737
52.1316 7.05783
52.3304 7.01105
52.5293 6.82376
52.7284 6.73921
52.9276 6.60852
53.1271 6.51637
53.3267 6.38573
53.5265 6.26607
53.7264 6.20457
53.9266 6.08829
54.1269 5.9754
54.3274 5.85699
54.528 5.69394
54.7289 5.57653
54.9301 5.39428
55.1314 5.25187
55.3328 5.05477
55.5344 4.87775
55.7361 4.79345

File: Ni3Fe_FD0951.xy
TT I
1.27165 7.48231
1.45013 5.98222
1.62863 5.17669
1.80712 4.76468
1.98562 5.18997
2.16411 4.74392
2.34263 4.89748
2.52115 7.10786
2.69965 8.55203
2.87818 8.6021
3.05672 11.4706
3.23527 15.3078
3.4138 18.8456
3.59237 23.085
3.77094 25.7527
3.9495 29.2349
4.12809 34.3342
4.30669 132.096
4.4853 56.0487
4.6639 55.2186
4.84253 67.064
5.02118 86.0292
5.19981 311.464
5.37848 185.52
5.55716 100.579
5.73586 91.1883
5.91455 92.6656
6.09328 4505.53
6.27201 79.4857
6.45075 68.156
6.62952 62.3215
6.8083 58.3955
6.98711 54.7214
7.16591 56.0364
7.34475 73.1066
7.5236 53.7795
7.70247 55.7807
7.88135 56.7955
8.06026 61.403
8.23919 68.4658
8.41812 83.0226
8.59709 1173.33
8.77609 96.6747
8.9551 89.0201
9.13412 81.533
9.31318 82.8217
9.49226 83.512
9.67134 94.9118
9.85047 99.1933
10.0296 323.162
10.2088 368.706
10.388 101.802
10.5672 530.793
10.7465 84.9156
10.9257 77.2329
11.105 70.4414
11.2844 67.8535
11.4637 63.7265
11.6431 62.6429
11.8225 61.5637
12.002 62.5806
12.1814 157.131
12.3609 67.201
12.5405 63.5779
12.72 67.6238
12.8996 70.025
13.0792 77.7343
13.2589 242.69
13.4386 119.286
13.6183 256.197
13.7981 95.1263
13.9779 74.6492
14.1577 71.0741
14.3376 69.4951
14.5175 67.7974
14.6974 69.162
14.8774 109.594
15.0574 143.532
15.2374 68.8579
15.4175 65.2652
15.5976 64.7327
15.7778 93.7241
15.958 149.135
16.1382 60.3475
16.3185 57.2048
16.4988 54.4478
16.6792 53.6797
16.8596 54.0345
17.04 54.9049
17.2205 66.0418
17.401 68.97
17.5815 58.299
17.7622 60.2353
17.9428 72.1108
18.1237 136.672
18.3044 90.6318
18.4852 74.9687
18.666 59.1868
18.8469 57.2523
19.0278 55.7437
19.2088 58.3623
19.3898 73.895
19.5709 53.2294
19.752 52.4634
19.9332 55.276
20.1144 68.947
20.2957 63.8519
20.477 52.5669
20.6586 48.9587
20.84 47.9456
21.0215 47.8747
21.203 50.1501
21.3846 48.2762
21.5662 48.0417
21.7479 51.7226
21.9297 63.5859
22.1115 55.228
22.2933 48.9705
22.4753 47.8314
22.6572 47.807
22.8393 51.2445
23.0214 55.9398
23.2037 47.8868
23.3859 48.8671
23.5682 56.342
23.7505 47.2477
23.9329 44.5204
24.1154 43.4324
24.2979 42.6673
24.4805 42.2886
24.6631 42.0376
24.8458 41.3935
25.0286 42.0643
25.2114 43.9564
25.3943 43.8026
25.5773 40.3016
25.7605 39.7787
25.9436 40.226
26.1268 41.0513
26.31 39.4578
26.4933 40.1225
26.6767 41.4561
26.8601 39.8156
27.0437 38.2474
27.2272 37.9643
27.4109 37.8711
27.5946 37.7396
27.7784 37.2035
27.9623 37.8344
28.1462 38.3101
28.3304 36.5222
28.5145 35.3762
28.6987 35.0616
28.8829 34.9495
29.0673 34.0727
29.2517 33.6434
29.4361 33.5686
29.6207 32.5344
29.8053 32.341
29.99 32.0184
30.1748 31.9122
30.3597 31.8074
30.5447 31.6099
30.7297 31.6303
30.915 31.0941
31.1002 30.5744
31.2855 30.3744
31.4708 30.3564
31.6563 29.8059
31.8418 29.6976
32.0275 29.3742
32.2132 28.8437
32.399 28.52
32.5848 28.0599
32.7708 27.7192
32.9569 27.5833
33.143 27.365
33.3293 26.9513
33.5158 26.6434
33.7022 26.1177
33.8887 25.8547
34.0753 25.6301
34.262 25.2574
34.4488 24.9314
34.6357 24.5669
34.8227 24.2877
35.0098 24.0841
35.1969 23.8142
35.3842 23.6319
35.5716 23.4578
35.759 23.0797
35.9468 22.7368
36.1345 22.5649
36.3222 22.3349
36.5101 22.0389
36.6981 21.7438
36.8861 21.5019
37.0743 21.2051
37.2626 20.8829
37.451 20.6197
37.6395 20.5232
37.8281 20.151
38.0168 19.9163
38.2056 19.649
38.3945 19.4032
38.5837 19.1224
38.7728 18.9075
38.9621 18.66
39.1514 18.4106
39.3409 18.1743
39.5304 17.9653
39.7201 17.7849
39.9099 17.5478
40.0999 17.3329
40.2899 17.1504
40.48 16.7758
40.6703 16.6433
40.8607 16.5256
41.0512 16.3103
41.242 16.0061
41.4327 15.7556
41.6236 15.5582
41.8146 15.4322
42.0057 15.172
42.1969 14.9298
42.3882 14.8068
42.5797 14.5731
42.7713 14.4372
42.963 14.199
43.1549 14.0132
43.3468 13.8092
43.5389 13.5956
43.7312 13.4266
43.9237 13.2929
44.1162 13.0809
44.3088 12.8687
44.5016 12.6904
44.6945 12.5264
44.8875 12.3248
45.0806 12.1605
45.2739 11.9822
45.4673 11.8228
45.6609 11.6783
45.8546 11.5127
46.0484 11.3327
46.2424 11.2061
46.4365 11.0552
46.631 10.8286
46.8254 10.6968
47.0199 10.5469
47.2146 10.4261
47.4095 10.2112
47.6044 10.059
47.7996 9.90422
47.9948 9.7826
48.1902 9.64305
48.3858 9.47813
48.5815 9.36311
48.7774 9.24557
48.9734 9.08591
49.1696 8.97855
49.3661 8.81408
49.5626 8.68041
49.7592 8.55383
49.956 8.46273
50.153 8.28579
50.3501 8.18767
50.5474 8.06066
50.7448 7.92047
50.9424 7.77424
51.1402 7.68302
51.3381 7.55329
51.5362 7.4056
51.7344 7.33677
51.9328 7.1902
52.1316 7.08871
52.3304 6.93982
52.5293 6.82301
52.7284 6.74229
52.9276 6.60948
53.1271 6.54101
53.3267 6.37493
53.5265 6.27675
53.7264 6.20439
53.9266 6.07597
54.1269 5.9801
54.3274 5.83143
54.528 5.72607
54.7289 5.57941
54.9301 5.35642
55.1314 5.2827
55.3328 5.05076
55.5344 4.88483
55.7361 4.77983

File: Ni3Fe_FD0952.xy
TT I
1.27165 7.47705
1.45013 6.08231
1.62863 5.26264
1.80712 5.15771
1.98562 4.20368
2.16411 5.10754
2.34263 5.78407
2.52115 7.56331
2.69965 9.01014
2.87818 8.19731
3.05672 11.0416
3.23527 15.1431
3.4138 18.8217
3.59237 23.1971
3.77094 26.2615
3.9495 29.9048
4.12809 34.3606
4.30669 140.182
4.4853 57.232
4.6639 54.8578
4.84253 67.0496
5.02118 85.9655
5.19981 305.52
5.37848 182.676
5.55716 100.671
5.73586 90.8924
5.91455 92.4674
6.09328 4519.46
6.27201 79.7387
6.45075 67.8077
6.62952 62.0497
6.8083 58.6811
6.98711 55.0267
7.16591 55.4638
7.34475 74.4243
7.5236 53.8128
7.70247 55.6473
7.88135 56.7791
8.06026 61.8183
8.23919 68.688
8.41812 82.9362
8.59709 1173.67
8.77609 96.3801
8.9551 88.9894
9.13412 81.5263
9.31318 82.5876
9.49226 83.5191
9.67134 94.6502
9.85047 99.0422
10.0296 321.022
10.2088 368.875
10.388 102.057
10.5672 529.789
10.7465 84.8568
10.9257 76.7724
11.105 70.4402
11.2844 68.2678
11.4637 63.8283
11.6431 62.5867
11.8225 61.6211
12.002 62.4987
12.1814 156.841
12.3609 67.232
12.5405 63.9614
12.72 67.2351
12.8996 69.9554
13.0792 77.6781
13.2589 241.676
13.4386 118.998
13.6183 256.188
13.7981 94.7863
13.9779 74.76
14.1577 70.9359
14.3376 69.5075
14.5175 67.5709
14.6974 69.2553
14.8774 109.497
15.0574 144.478
15.2374 68.9885
15.4175 65.3065
15.5976 64.7744
15.7778 93.3554
15.958 149.92
16.1382 60.8244
16.3185 57.2016
16.4988 54.6216
16.6792 53.3857
16.8596 54.1675
17.04 54.8411
17.2205 65.983
17.401 68.7377
17.5815 58.0908
17.7622 60.0973
17.9428 71.9535
18.1237 136.666
18.3044 90.2946
18.4852 75.0871
18.666 59.3579
18.8469 57.1049
19.0278 55.6771
19.2088 58.3143
19.3898 74.1943
19.5709 53.2548
19.752 52.3209
19.9332 55.1569
20.1144 68.7731
20.2957 63.5326
20.477 52.5483
20.6586 48.9696
20.84 48.1132
21.0215 47.8831
21.203 50.0324
21.3846 48.2156
21.5662 47.9903
21.7479 51.8919
21.9297 63.7569
22.1115 55.3325
22.2933 48.7833
22.4753 47.9908
22.6572 47.7867
22.8393 51.1437
23.0214 55.9631
23.2037 47.8576
23.3859 48.8981
23.5682 56.4927
23.7505 47.451
23.9329 44.5599
24.1154 43.5013
24.2979 42.5466
24.4805 42.1967
24.6631 42.0664
24.8458 41.5328
25.0286 42.1606
25.2114 43.9096
25.3943 43.7193
25.5773 40.3266
25.7605 39.7186
25.9436 40.1991
26.1268 41.0901
26.31 39.3306
26.4933 39.9957
26.6767 41.4632
26.8601 39.7411
27.0437 38.1569
27.2272 37.9782
27.4109 37.7042
27.5946 37.778
27.7784 37.2877
27.9623 37.8159
28.1462 38.2785
28.3304 36.5657
28.5145 35.406
28.6987 34.9902
28.8829 34.7906
29.0673 34.0247
29.2517 33.7934
29.4361 33.6819
29.6207 32.5503
29.8053 32.2124
29.99 31.9819
30.1748 31.836
30.3597 31.751
30.5447 31.5664
30.7297 31.6468
30.915 31.115
31.1002 30.6143
31.2855 30.3289
31.4708 30.3325
31.6563 29.8847
31.8418 29.6965
32.0275 29.3719
32.2132 28.8857
32.399 28.4957
32.5848 27.9816
32.7708 27.624
32.9569 27.5492
33.143 27.3451
33.3293 26.9819
33.5158 26.5395
33.7022 26.1264
33.8887 25.8878
34.0753 25.5265
34.262 25.2779
34.4488 24.9135
34.6357 24.5494
34.8227 24.3575
35.0098 24.1493
35.1969 23.7512
35.3842 23.5523
35.5716 23.4068
35.759 23.1156
35.9468 22.6856
36.1345 22.6131
36.3222 22.3674
36.5101 22.0277
36.6981 21.8137
36.8861 21.4675
37.0743 21.0891
37.2626 20.8825
37.451 20.6236
37.6395 20.5194
37.8281 20.1326
38.0168 19.86
38.2056 19.5888
38.3945 19.3716
38.5837 19.1237
38.7728 18.8866
38.9621 18.6837
39.1514 18.4077
39.3409 18.158
39.5304 17.9606
39.7201 17.8141
39.9099 17.5831
40.0999 17.3134
40.2899 17.0844
40.48 16.8354
40.6703 16.65
40.8607 16.4917
41.0512 16.2153
41.242 15.9718
41.4327 15.8456
41.6236 15.6128
41.8146 15.3942
42.0057 15.1989
42.1969 14.9801
42.3882 14.8226
42.5797 14.6648
42.7713 14.3733
42.963 14.2484
43.1549 13.9648
43.3468 13.8296
43.5389 13.6041
43.7312 13.4276
43.9237 13.2329
44.1162 13.0632
44.3088 12.8648
44.5016 12.6591
44.6945 12.5308
44.8875 12.352
45.0806 12.1966
45.2739 12.0163
45.4673 11.8507
45.6609 11.6496
45.8546 11.5692
46.0484 11.372
46.2424 11.1519
46.4365 11.0305
46.631 10.8306
46.8254 10.6939
47.0199 10.5512
47.2146 10.3862
47.4095 10.2264
47.6044 10.0655
47.7996 9.95779
47.9948 9.78611
48.1902 9.6483
48.3858 9.51538
48.5815 9.38243
48.7774 9.25806
48.9734 9.08532
49.1696 8.95903
49.3661 8.84724
49.5626 8.68118
49.7592 8.57657
49.956 8.40516
50.153 8.29834
50.3501 8.19475
50.5474 8.02958
50.7448 7.8966
50.9424 7.79825
51.1402 7.71207
51.3381 7.53479
51.5362 7.43746
51.7344 7.32409
51.9328 7.17803
52.1316 7.05966
52.3304 6.97477
52.5293 6.82173
52.7284 6.74278
52.9276 6.57751
53.1271 6.53799
53.3267 6.43342
53.5265 6.32625
53.7264 6.19889
53.9266 6.09031
54.1269 5.95308
54.3274 5.84824
54.528 5.7554
54.7289 5.556
54.9301 5.39806
55.1314 5.26606
55.3328 5.056
55.5344 4.90439
55.7361 4.78825

File: Ni3Fe_FD0953.xy
TT I
1.27165 7.0539
1.45013 5.7925
1.62863 5.50491
1.80712 4.84136
1.98562 4.79026
2.16411 4.84808
2.34263 5.52731
2.52115 7.62346
2.69965 8.9232
2.87818 9.43805
3.05672 11.2905
3.23527 15.4738
3.4138 18.7666
3.59237 23.6571
3.77094 25.7035
3.9495 29.619
4.12809 34.2648
4.30669 147.773
4.4853 57.9938
4.6639 54.5392
4.84253 66.5959
5.02118 85.6903
5.19981 303.313
5.37848 182.163
5.55716 100.481
5.73586 90.9658
5.91455 91.9482
6.09328 4509.98
6.27201 79.4764
6.45075 67.8822
6.62952 62.1511
6.8083 58.215
6.98711 54.7904
7.16591 55.3775
7.34475 75.8298
7.5236 53.5618
7.70247 55.7509
7.88135 56.8888
8.06026 61.4808
8.23919 68.4438
8.41812 82.7911
8.59709 1174.93
8.77609 96.5144
8.9551 88.7306
9.13412 81.4199
9.31318 82.5833
9.49226 83.1063
9.67134 94.7439
9.85047 99.3517
10.0296 319.192
10.2088 365.127
10.388 102.646
10.5672 530.806
10.7465 84.9957
10.9257 76.8761
11.105 70.5229
11.2844 68.2481
11.4637 63.7098
11.6431 62.3787
11.8225 61.5433
12.002 62.4809
12.1814 156.647
12.3609 67.2192
12.5405 63.433
12.72 67.6123
12.8996 69.6839
13.0792 77.827
13.2589 241.545
13.4386 119.12
13.6183 255.63
13.7981 94.9512
13.9779 74.8004
14.1577 70.8947
14.3376 69.5667
14.5175 67.83
14.6974 69.2048
14.8774 109.131
15.0574 144.271
15.2374 68.7748
15.4175 65.2788
15.5976 64.6494
15.7778 93.2669
15.958 149.414
16.1382 60.8901
16.3185 57.32
16.4988 54.4268
16.6792 53.6887
16.8596 54.2175
17.04 54.8978
17.2205 65.9732
17.401 69.1865
17.5815 58.206
17.7622 60.1644
17.9428 71.781
18.1237 136.431
18.3044 90.2609
18.4852 75.0029
18.666 59.2934
18.8469 56.9929
19.0278 55.8304
19.2088 58.3008
19.3898 74.0949
19.5709 53.2424
19.752 52.2457
19.9332 55.2774
20.1144 68.8023
20.2957 63.8329
20.477 52.5839
20.6586 49.0252
20.84 48.0748
21.0215 47.8888
21.203 50.1393
21.3846 48.1928
21.5662 48.1179
21.7479 51.7821
21.9297 63.355
22.1115 55.4129
22.2933 49.0003
22.4753 48.0112
22.6572 47.9814
22.8393 51.3189
23.0214 56.026
23.2037 48.022
23.3859 48.8364
23.5682 56.537
23.7505 47.2073
23.9329 44.4963
24.1154 43.505
24.2979 42.717
24.4805 42.274
24.6631 42.1033
24.8458 41.6108
25.0286 42.1948
25.2114 43.955
25.3943 43.6936
25.5773 40.2307
25.7605 39.8471
25.9436 40.1998
26.1268 40.8147
26.31 39.4025
26.4933 40.069
26.6767 41.3753
26.8601 39.7787
27.0437 38.2663
27.2272 37.8863
27.4109 37.7878
27.5946 37.7217
27.7784 37.2696
27.9623 37.9573
28.1462 38.2739
28.3304 36.6318
28.5145 35.2636
28.6987 35.0243
28.8829 34.901
29.0673 34.1087
29.2517 33.7716
29.4361 33.6028
29.6207 32.5705
29.8053 32.3672
29.99 32.039
30.1748 31.9188
30.3597 31.7363
30.5447 31.6945
30.7297 31.7249
30.915 31.0735
31.1002 30.5444
31.2855 30.3144
31.4708 30.3943
31.6563 29.8836
31.8418 29.6756
32.0275 29.4331
32.2132 28.9372
32.399 28.5003
32.5848 28.0659
32.7708 27.6943
32.9569 27.5762
33.143 27.3524
33.3293 27.0312
33.5158 26.5996
33.7022 26.2315
33.8887 25.9399
34.0753 25.6098
34.262 25.2121
34.4488 24.8411
34.6357 24.5828
34.8227 24.2915
35.0098 24.1058
35.1969 23.813
35.3842 23.6445
35.5716 23.4088
35.759 23.0184
35.9468 22.6452
36.1345 22.5441
36.3222 22.3221
36.5101 22.0422
36.6981 21.7831
36.8861 21.5295
37.0743 21.1257
37.2626 20.9028
37.451 20.659
37.6395 20.4774
37.8281 20.138
38.0168 19.8526
38.2056 19.5859
38.3945 19.3684
38.5837 19.1884
38.7728 18.9458
38.9621 18.6617
39.1514 18.4394
39.3409 18.1551
39.5304 17.9888
39.7201 17.8059
39.9099 17.5202
40.0999 17.2899
40.2899 17.139
40.48 16.8966
40.6703 16.6488
40.8607 16.5123
41.0512 16.2441
41.242 15.952
41.4327 15.7881
41.6236 15.5787
41.8146 15.3904
42.0057 15.1526
42.1969 14.9835
42.3882 14.8103
42.5797 14.5818
42.7713 14.4277
42.963 14.2228
43.1549 13.9927
43.3468 13.7688
43.5389 13.5802
43.7312 13.4507
43.9237 13.248
44.1162 13.0365
44.3088 12.9054
44.5016 12.6836
44.6945 12.4844
44.8875 12.3805
45.0806 12.1678
45.2739 11.9949
45.4673 11.8561
45.6609 11.6871
45.8546 11.5084
46.0484 11.3522
46.2424 11.1966
46.4365 11.0766
46.631 10.8609
46.8254 10.7128
47.0199 10.5448
47.2146 10.4059
47.4095 10.2057
47.6044 10.0761
47.7996 9.90961
47.9948 9.77049
48.1902 9.63453
48.3858 9.54313
48.5815 9.35416
48.7774 9.26224
48.9734 9.07644
49.1696 8.93813
49.3661 8.81185
49.5626 8.69673
49.7592 8.52977
49.956 8.43289
50.153 8.30539
50.3501 8.16236
50.5474 8.05268
50.7448 7.93052
50.9424 7.80938
51.1402 7.69061
51.3381 7.5574
51.5362 7.4532
51.7344 7.33019
51.9328 7.19328
52.1316 7.05376
52.3304 6.92044
52.5293 6.80742
52.7284 6.73305
52.9276 6.62211
53.1271 6.49882
53.3267 6.39552
53.5265 6.27466
53.7264 6.12504
53.9266 6.0685
54.1269 5.96938
54.3274 5.86623
54.528 5.74853
54.7289 5.55278
54.9301 5.36704
55.1314 5.28988
55.3328 5.08862
55.5344 4.89004
55.7361 4.72777