Folder: NiFe_MOF_catalyst_paper/XRD (part 131)

File: Ni3Fe_FD0707.xy
TT I
1.27165 7.33846
1.45013 5.7301
1.62863 5.78247
1.80712 5.09999
1.98562 4.27829
2.16411 4.47048
2.34263 5.3333
2.52115 6.51998
2.69965 8.46057
2.87818 8.8524
3.05672 11.0447
3.23527 15.2598
3.4138 18.7585
3.59237 22.7745
3.77094 25.7477
3.9495 29.4618
4.12809 34.5485
4.30669 104.708
4.4853 53.8618
4.6639 55.3677
4.84253 68.7529
5.02118 87.6188
5.19981 430.751
5.37848 196.806
5.55716 102.845
5.73586 93.4293
5.91455 95.4434
6.09328 4601.43
6.27201 80.4838
6.45075 69.6629
6.62952 62.7821
6.8083 59.3726
6.98711 55.4552
7.16591 56.1219
7.34475 68.0713
7.5236 54.3243
7.70247 56.4261
7.88135 57.5884
8.06026 62.4085
8.23919 69.264
8.41812 84.1815
8.59709 1251.68
8.77609 98.1014
8.9551 89.4635
9.13412 82.7423
9.31318 84.456
9.49226 84.8301
9.67134 95.3686
9.85047 101.362
10.0296 365.967
10.2088 359.238
10.388 105.767
10.5672 515.394
10.7465 86.1884
10.9257 77.7341
11.105 71.423
11.2844 68.4532
11.4637 64.4993
11.6431 63.3303
11.8225 62.4315
12.002 64.4471
12.1814 155.317
12.3609 67.0012
12.5405 64.8162
12.72 67.9322
12.8996 71.2564
13.0792 80.684
13.2589 250.576
13.4386 120.91
13.6183 260.882
13.7981 94.1175
13.9779 75.7412
14.1577 71.8693
14.3376 70.2596
14.5175 68.9645
14.6974 70.5828
14.8774 114.435
15.0574 140.153
15.2374 69.7406
15.4175 66.1966
15.5976 65.8284
15.7778 96.9901
15.958 148.242
16.1382 61.5033
16.3185 57.8223
16.4988 55.4
16.6792 54.3334
16.8596 54.8214
17.04 55.809
17.2205 67.3387
17.401 69.7088
17.5815 58.9466
17.7622 61.1002
17.9428 74.4465
18.1237 142.358
18.3044 91.5114
18.4852 74.9074
18.666 60.258
18.8469 58.0523
19.0278 56.6243
19.2088 59.299
19.3898 75.9063
19.5709 54.0189
19.752 53.2409
19.9332 56.4693
20.1144 69.6548
20.2957 64.3606
20.477 53.0654
20.6586 49.5931
20.84 48.7096
21.0215 48.573
21.203 50.9003
21.3846 48.8655
21.5662 48.9526
21.7479 52.8637
21.9297 65.1066
22.1115 55.9951
22.2933 49.5466
22.4753 48.6451
22.6572 48.9847
22.8393 52.035
23.0214 57.0781
23.2037 48.673
23.3859 49.7743
23.5682 57.2177
23.7505 47.9624
23.9329 44.9889
24.1154 43.9431
24.2979 43.4209
24.4805 42.7792
24.6631 42.7347
24.8458 42.1803
25.0286 42.8723
25.2114 44.6496
25.3943 44.4118
25.5773 40.7718
25.7605 40.3977
25.9436 40.7433
26.1268 41.5829
26.31 40.018
26.4933 40.7627
26.6767 42.0249
26.8601 40.3524
27.0437 38.7051
27.2272 38.3892
27.4109 38.3748
27.5946 38.2077
27.7784 37.774
27.9623 38.445
28.1462 38.696
28.3304 36.9895
28.5145 35.8325
28.6987 35.5084
28.8829 35.348
29.0673 34.5404
29.2517 34.2061
29.4361 34.025
29.6207 33.0812
29.8053 32.782
29.99 32.5101
30.1748 32.4161
30.3597 32.2146
30.5447 32.0725
30.7297 32.1165
30.915 31.4884
31.1002 31.0242
31.2855 30.7577
31.4708 30.7727
31.6563 30.3107
31.8418 30.0617
32.0275 29.8409
32.2132 29.2663
32.399 28.8494
32.5848 28.4113
32.7708 28.1772
32.9569 27.9912
33.143 27.643
33.3293 27.3954
33.5158 26.9042
33.7022 26.5668
33.8887 26.3091
34.0753 25.9484
34.262 25.5607
34.4488 25.2769
34.6357 24.845
34.8227 24.5833
35.0098 24.4255
35.1969 24.1346
35.3842 23.9539
35.5716 23.7208
35.759 23.3934
35.9468 23.0441
36.1345 22.8512
36.3222 22.5855
36.5101 22.4197
36.6981 22.0945
36.8861 21.7093
37.0743 21.4614
37.2626 21.2339
37.451 20.9075
37.6395 20.744
37.8281 20.4075
38.0168 20.1321
38.2056 19.8895
38.3945 19.6585
38.5837 19.4423
38.7728 19.1409
38.9621 18.8915
39.1514 18.6672
39.3409 18.464
39.5304 18.1569
39.7201 17.9858
39.9099 17.7612
40.0999 17.5112
40.2899 17.2985
40.48 17.0634
40.6703 16.9128
40.8607 16.7204
41.0512 16.4428
41.242 16.1802
41.4327 16.0102
41.6236 15.8491
41.8146 15.6605
42.0057 15.4085
42.1969 15.186
42.3882 14.9853
42.5797 14.7555
42.7713 14.5552
42.963 14.371
43.1549 14.1978
43.3468 13.9506
43.5389 13.7669
43.7312 13.5909
43.9237 13.4105
44.1162 13.1984
44.3088 13.0389
44.5016 12.8391
44.6945 12.7262
44.8875 12.5229
45.0806 12.2954
45.2739 12.2042
45.4673 12.0237
45.6609 11.8366
45.8546 11.6495
46.0484 11.4687
46.2424 11.3751
46.4365 11.1422
46.631 10.961
46.8254 10.8232
47.0199 10.6498
47.2146 10.5651
47.4095 10.3561
47.6044 10.1905
47.7996 10.059
47.9948 9.91222
48.1902 9.76318
48.3858 9.63069
48.5815 9.49932
48.7774 9.36799
48.9734 9.21771
49.1696 9.07472
49.3661 8.93565
49.5626 8.77262
49.7592 8.64578
49.956 8.53434
50.153 8.41049
50.3501 8.29667
50.5474 8.12486
50.7448 8.03028
50.9424 7.90555
51.1402 7.77013
51.3381 7.62654
51.5362 7.53611
51.7344 7.35725
51.9328 7.26434
52.1316 7.16379
52.3304 7.00722
52.5293 6.93784
52.7284 6.80943
52.9276 6.68279
53.1271 6.6142
53.3267 6.46372
53.5265 6.36448
53.7264 6.2724
53.9266 6.16506
54.1269 6.05539
54.3274 5.88669
54.528 5.81492
54.7289 5.63757
54.9301 5.48021
55.1314 5.34208
55.3328 5.12162
55.5344 4.98115
55.7361 4.80339

File: Ni3Fe_FD0708.xy
TT I
1.27165 7.38948
1.45013 6.30548
1.62863 5.21061
1.80712 4.82524
1.98562 4.62613
2.16411 4.92209
2.34263 5.67377
2.52115 6.7511
2.69965 7.51212
2.87818 8.68119
3.05672 10.9571
3.23527 14.946
3.4138 19.1395
3.59237 23.1928
3.77094 25.4656
3.9495 29.5538
4.12809 34.202
4.30669 104.572
4.4853 53.8608
4.6639 55.4873
4.84253 68.2163
5.02118 87.5983
5.19981 430.754
5.37848 197.369
5.55716 102.171
5.73586 92.8581
5.91455 95.8154
6.09328 4597.93
6.27201 80.6936
6.45075 69.6763
6.62952 62.9226
6.8083 59.4065
6.98711 55.4485
7.16591 55.989
7.34475 67.6534
7.5236 54.2182
7.70247 56.7525
7.88135 57.1083
8.06026 62.4463
8.23919 69.1817
8.41812 84.3354
8.59709 1255.24
8.77609 98.1497
8.9551 89.8479
9.13412 82.9455
9.31318 84.8706
9.49226 84.82
9.67134 95.5602
9.85047 101.664
10.0296 365.197
10.2088 355.262
10.388 105.941
10.5672 511.049
10.7465 85.9977
10.9257 77.6529
11.105 71.2562
11.2844 68.0499
11.4637 64.4538
11.6431 63.1946
11.8225 62.5379
12.002 64.5613
12.1814 155.009
12.3609 67.0312
12.5405 64.7229
12.72 68.0924
12.8996 71.4633
13.0792 80.8289
13.2589 250.315
13.4386 120.623
13.6183 259.21
13.7981 94.0252
13.9779 75.9008
14.1577 71.6738
14.3376 70.0935
14.5175 68.61
14.6974 70.4538
14.8774 114.404
15.0574 139.329
15.2374 69.4054
15.4175 66.303
15.5976 66.2006
15.7778 97.0871
15.958 147.958
16.1382 61.2814
16.3185 57.7622
16.4988 55.2247
16.6792 54.2985
16.8596 54.7776
17.04 55.9351
17.2205 67.2195
17.401 69.5993
17.5815 58.9933
17.7622 61.4233
17.9428 74.4116
18.1237 141.918
18.3044 91.6207
18.4852 74.9341
18.666 60.1231
18.8469 57.9921
19.0278 56.6488
19.2088 59.4273
19.3898 76.0738
19.5709 53.8089
19.752 53.3605
19.9332 56.3289
20.1144 69.478
20.2957 64.1958
20.477 52.7169
20.6586 49.461
20.84 48.7002
21.0215 48.4371
21.203 50.7961
21.3846 48.5081
21.5662 48.8789
21.7479 52.8626
21.9297 64.7551
22.1115 56.0819
22.2933 49.4307
22.4753 48.5918
22.6572 48.8448
22.8393 52.123
23.0214 57.0226
23.2037 48.7171
23.3859 49.743
23.5682 57.2771
23.7505 47.8198
23.9329 45.0697
24.1154 43.895
24.2979 43.2679
24.4805 42.814
24.6631 42.6552
24.8458 42.2238
25.0286 42.845
25.2114 44.5326
25.3943 44.512
25.5773 40.7779
25.7605 40.1993
25.9436 40.8815
26.1268 41.6482
26.31 39.8352
26.4933 40.7114
26.6767 42.0635
26.8601 40.1843
27.0437 38.66
27.2272 38.3361
27.4109 38.3565
27.5946 38.3827
27.7784 37.8303
27.9623 38.341
28.1462 38.6841
28.3304 36.9704
28.5145 35.8091
28.6987 35.5292
28.8829 35.3619
29.0673 34.4321
29.2517 34.1765
29.4361 34.0142
29.6207 33.0505
29.8053 32.8086
29.99 32.4394
30.1748 32.2611
30.3597 32.2168
30.5447 32.0344
30.7297 32.1273
30.915 31.4602
31.1002 31.1968
31.2855 30.8633
31.4708 30.7325
31.6563 30.3149
31.8418 30.0852
32.0275 29.7981
32.2132 29.2763
32.399 28.8356
32.5848 28.4115
32.7708 28.0871
32.9569 27.9232
33.143 27.6636
33.3293 27.2823
33.5158 26.9559
33.7022 26.5898
33.8887 26.2892
34.0753 25.8845
34.262 25.569
34.4488 25.2491
34.6357 24.9136
34.8227 24.615
35.0098 24.4404
35.1969 24.0301
35.3842 23.9033
35.5716 23.7303
35.759 23.3904
35.9468 23.086
36.1345 22.8246
36.3222 22.5299
36.5101 22.2706
36.6981 22.0373
36.8861 21.7606
37.0743 21.5546
37.2626 21.2003
37.451 20.8952
37.6395 20.7356
37.8281 20.4083
38.0168 20.1542
38.2056 19.9114
38.3945 19.6024
38.5837 19.4056
38.7728 19.1734
38.9621 18.8513
39.1514 18.59
39.3409 18.414
39.5304 18.158
39.7201 17.9876
39.9099 17.8044
40.0999 17.5588
40.2899 17.2371
40.48 17.0521
40.6703 16.8798
40.8607 16.6814
41.0512 16.3893
41.242 16.187
41.4327 15.974
41.6236 15.7194
41.8146 15.5848
42.0057 15.3901
42.1969 15.2034
42.3882 15.0159
42.5797 14.7399
42.7713 14.6436
42.963 14.3687
43.1549 14.1678
43.3468 13.973
43.5389 13.8057
43.7312 13.6068
43.9237 13.4088
44.1162 13.2369
44.3088 13.0578
44.5016 12.8733
44.6945 12.6762
44.8875 12.5288
45.0806 12.348
45.2739 12.1583
45.4673 12.0046
45.6609 11.7845
45.8546 11.6715
46.0484 11.5049
46.2424 11.3248
46.4365 11.1543
46.631 11.0033
46.8254 10.8921
47.0199 10.6778
47.2146 10.5212
47.4095 10.3248
47.6044 10.2159
47.7996 10.0475
47.9948 9.91898
48.1902 9.73376
48.3858 9.61446
48.5815 9.51045
48.7774 9.33768
48.9734 9.21967
49.1696 9.09366
49.3661 8.94726
49.5626 8.78315
49.7592 8.65101
49.956 8.54084
50.153 8.39316
50.3501 8.25109
50.5474 8.16811
50.7448 8.04251
50.9424 7.90465
51.1402 7.81149
51.3381 7.6587
51.5362 7.52529
51.7344 7.39937
51.9328 7.26022
52.1316 7.13071
52.3304 7.06931
52.5293 6.91406
52.7284 6.7878
52.9276 6.73304
53.1271 6.59783
53.3267 6.48126
53.5265 6.34036
53.7264 6.23002
53.9266 6.18232
54.1269 6.02603
54.3274 5.90482
54.528 5.78905
54.7289 5.61729
54.9301 5.48813
55.1314 5.35791
55.3328 5.14601
55.5344 4.95783
55.7361 4.80685

File: Ni3Fe_FD0709.xy
TT I
1.27165 7.28966
1.45013 6.56241
1.62863 5.80464
1.80712 4.80949
1.98562 4.1536
2.16411 4.41601
2.34263 5.23366
2.52115 6.84375
2.69965 8.24357
2.87818 8.79335
3.05672 11.4537
3.23527 14.8512
3.4138 18.4217
3.59237 23.3624
3.77094 25.6396
3.9495 29.4009
4.12809 33.7799
4.30669 102.863
4.4853 53.2063
4.6639 55.6039
4.84253 68.2038
5.02118 87.904
5.19981 434.717
5.37848 196.434
5.55716 102.791
5.73586 93.5398
5.91455 96.4579
6.09328 4630.53
6.27201 80.5452
6.45075 69.646
6.62952 62.9069
6.8083 59.4584
6.98711 55.3123
7.16591 55.599
7.34475 67.7532
7.5236 54.0512
7.70247 56.5827
7.88135 57.4742
8.06026 62.7046
8.23919 69.211
8.41812 84.0911
8.59709 1260.17
8.77609 97.9554
8.9551 89.3803
9.13412 83.0403
9.31318 84.7583
9.49226 84.8077
9.67134 95.393
9.85047 101.852
10.0296 367.872
10.2088 354.37
10.388 105.924
10.5672 520.388
10.7465 86.5212
10.9257 78.0175
11.105 71.3305
11.2844 68.5471
11.4637 64.4753
11.6431 63.5665
11.8225 62.5931
12.002 64.6122
12.1814 156.724
12.3609 67.0752
12.5405 64.8025
12.72 68.0876
12.8996 71.4025
13.0792 80.838
13.2589 251.432
13.4386 120.482
13.6183 260.724
13.7981 93.8675
13.9779 75.8881
14.1577 71.9294
14.3376 70.2788
14.5175 68.8295
14.6974 70.7888
14.8774 114.777
15.0574 138.729
15.2374 69.5455
15.4175 66.4033
15.5976 65.8541
15.7778 97.5383
15.958 147.867
16.1382 61.3096
16.3185 57.8133
16.4988 55.2202
16.6792 54.3445
16.8596 54.705
17.04 56.0914
17.2205 67.6178
17.401 69.3345
17.5815 59.2138
17.7622 61.1611
17.9428 74.34
18.1237 141.675
18.3044 91.6268
18.4852 74.5551
18.666 60.1639
18.8469 57.9265
19.0278 56.6291
19.2088 59.3121
19.3898 76.0354
19.5709 53.8169
19.752 53.2933
19.9332 56.3246
20.1144 69.7078
20.2957 64.1089
20.477 52.8652
20.6586 49.5538
20.84 48.6875
21.0215 48.4618
21.203 50.9503
21.3846 48.8277
21.5662 49.1504
21.7479 52.988
21.9297 64.817
22.1115 55.9735
22.2933 49.5915
22.4753 48.4842
22.6572 48.898
22.8393 52.2029
23.0214 57.0984
23.2037 48.7334
23.3859 49.7884
23.5682 57.1971
23.7505 47.7288
23.9329 45.1515
24.1154 43.8895
24.2979 43.3738
24.4805 42.9677
24.6631 42.7845
24.8458 42.2442
25.0286 42.8781
25.2114 44.7059
25.3943 44.3463
25.5773 40.8477
25.7605 40.3502
25.9436 40.7565
26.1268 41.6501
26.31 39.9512
26.4933 40.7572
26.6767 42.1005
26.8601 40.2035
27.0437 38.8171
27.2272 38.5152
27.4109 38.3587
27.5946 38.2948
27.7784 37.9344
27.9623 38.364
28.1462 38.7024
28.3304 37.0532
28.5145 35.7809
28.6987 35.4421
28.8829 35.3985
29.0673 34.6175
29.2517 34.3228
29.4361 34.1261
29.6207 33.0026
29.8053 32.7735
29.99 32.5614
30.1748 32.3335
30.3597 32.1677
30.5447 32.1257
30.7297 32.2268
30.915 31.4987
31.1002 31.1231
31.2855 30.761
31.4708 30.8173
31.6563 30.2832
31.8418 30.1311
32.0275 29.849
32.2132 29.3604
32.399 28.9276
32.5848 28.4094
32.7708 28.2002
32.9569 28.0128
33.143 27.8386
33.3293 27.342
33.5158 26.9654
33.7022 26.5072
33.8887 26.2374
34.0753 25.9653
34.262 25.5945
34.4488 25.286
34.6357 24.9686
34.8227 24.6531
35.0098 24.4294
35.1969 24.1211
35.3842 23.9502
35.5716 23.7774
35.759 23.4465
35.9468 23.08
36.1345 22.8624
36.3222 22.5343
36.5101 22.4439
36.6981 22.0737
36.8861 21.745
37.0743 21.4786
37.2626 21.1934
37.451 21.0043
37.6395 20.7725
37.8281 20.4582
38.0168 20.125
38.2056 19.9809
38.3945 19.6404
38.5837 19.3604
38.7728 19.1272
38.9621 18.8955
39.1514 18.6667
39.3409 18.4072
39.5304 18.1272
39.7201 17.9886
39.9099 17.8303
40.0999 17.5159
40.2899 17.3337
40.48 17.0579
40.6703 16.9235
40.8607 16.6543
41.0512 16.4689
41.242 16.2007
41.4327 16.0167
41.6236 15.7742
41.8146 15.5879
42.0057 15.3691
42.1969 15.1794
42.3882 14.9992
42.5797 14.8156
42.7713 14.5852
42.963 14.4308
43.1549 14.1472
43.3468 13.978
43.5389 13.8276
43.7312 13.5758
43.9237 13.4433
44.1162 13.2071
44.3088 13.0584
44.5016 12.845
44.6945 12.7243
44.8875 12.4873
45.0806 12.3305
45.2739 12.1365
45.4673 12.0326
45.6609 11.8507
45.8546 11.6782
46.0484 11.5212
46.2424 11.3192
46.4365 11.1616
46.631 10.9735
46.8254 10.8335
47.0199 10.6762
47.2146 10.4993
47.4095 10.3789
47.6044 10.2291
47.7996 10.0019
47.9948 9.90936
48.1902 9.76182
48.3858 9.6096
48.5815 9.51017
48.7774 9.32131
48.9734 9.23013
49.1696 9.09905
49.3661 8.94894
49.5626 8.79843
49.7592 8.65811
49.956 8.53643
50.153 8.39652
50.3501 8.25039
50.5474 8.15888
50.7448 8.02052
50.9424 7.92518
51.1402 7.8025
51.3381 7.66627
51.5362 7.53496
51.7344 7.41291
51.9328 7.29618
52.1316 7.14954
52.3304 7.04298
52.5293 6.92025
52.7284 6.83694
52.9276 6.67354
53.1271 6.5862
53.3267 6.45675
53.5265 6.39829
53.7264 6.28434
53.9266 6.16508
54.1269 6.04092
54.3274 5.93382
54.528 5.83793
54.7289 5.61198
54.9301 5.46324
55.1314 5.34796
55.3328 5.11904
55.5344 4.90771
55.7361 4.79517

File: Ni3Fe_FD0710.xy
TT I
1.27165 7.56996
1.45013 6.1226
1.62863 4.82137
1.80712 4.70885
1.98562 4.85222
2.16411 4.81965
2.34263 5.3709
2.52115 6.41771
2.69965 8.47447
2.87818 8.05045
3.05672 10.4869
3.23527 14.8029
3.4138 18.4247
3.59237 23.0471
3.77094 25.5467
3.9495 29.6072
4.12809 34.3715
4.30669 102.903
4.4853 53.4592
4.6639 55.3698
4.84253 68.4903
5.02118 87.851
5.19981 432.938
5.37848 198.09
5.55716 102.607
5.73586 93.2748
5.91455 96.6805
6.09328 4637.25
6.27201 80.6446
6.45075 69.5166
6.62952 63.0653
6.8083 59.4904
6.98711 55.374
7.16591 56.2382
7.34475 67.542
7.5236 54.1095
7.70247 56.7583
7.88135 57.6672
8.06026 62.9219
8.23919 69.2978
8.41812 84.2063
8.59709 1250.37
8.77609 98.3996
8.9551 89.8236
9.13412 83.2574
9.31318 84.6657
9.49226 85.1141
9.67134 95.309
9.85047 101.662
10.0296 366.588
10.2088 359.55
10.388 106.192
10.5672 523.401
10.7465 86.1249
10.9257 77.9631
11.105 71.5305
11.2844 68.3153
11.4637 64.5206
11.6431 63.0326
11.8225 62.7782
12.002 64.65
12.1814 156.556
12.3609 66.8276
12.5405 64.6581
12.72 68.2233
12.8996 71.5091
13.0792 80.7222
13.2589 250.678
13.4386 120.329
13.6183 259.91
13.7981 94.2844
13.9779 75.8879
14.1577 72.0577
14.3376 69.9108
14.5175 68.8193
14.6974 70.7173
14.8774 115.062
15.0574 139.224
15.2374 69.4899
15.4175 66.1957
15.5976 65.9816
15.7778 97.1479
15.958 148.756
16.1382 61.1151
16.3185 57.5889
16.4988 55.1786
16.6792 54.4588
16.8596 54.9392
17.04 56.0676
17.2205 67.3931
17.401 69.4977
17.5815 59.1532
17.7622 61.2765
17.9428 74.5671
18.1237 141.181
18.3044 91.6308
18.4852 74.8516
18.666 60.331
18.8469 58.0683
19.0278 56.7053
19.2088 59.4071
19.3898 75.9023
19.5709 53.9055
19.752 53.3169
19.9332 56.2901
20.1144 69.5742
20.2957 64.1775
20.477 52.6637
20.6586 49.3947
20.84 48.7855
21.0215 48.6232
21.203 50.9371
21.3846 48.7945
21.5662 48.9542
21.7479 53.1328
21.9297 65.0285
22.1115 55.9779
22.2933 49.6292
22.4753 48.6312
22.6572 48.9432
22.8393 52.1398
23.0214 56.9121
23.2037 48.7552
23.3859 49.7131
23.5682 57.2672
23.7505 47.8397
23.9329 45.0844
24.1154 44.2288
24.2979 43.2697
24.4805 42.9244
24.6631 42.766
24.8458 42.2373
25.0286 42.8734
25.2114 44.5743
25.3943 44.4123
25.5773 40.8479
25.7605 40.3757
25.9436 40.9002
26.1268 41.6671
26.31 40.1005
26.4933 40.6708
26.6767 42.1686
26.8601 40.3044
27.0437 38.85
27.2272 38.5137
27.4109 38.4327
27.5946 38.2459
27.7784 37.8606
27.9623 38.3505
28.1462 38.7586
28.3304 37.0014
28.5145 35.9349
28.6987 35.5169
28.8829 35.2756
29.0673 34.5679
29.2517 34.2874
29.4361 34.0957
29.6207 33.0684
29.8053 32.8005
29.99 32.5094
30.1748 32.5153
30.3597 32.2291
30.5447 32.1973
30.7297 32.2989
30.915 31.4685
31.1002 31.0747
31.2855 30.8654
31.4708 30.7219
31.6563 30.2814
31.8418 30.0582
32.0275 29.7754
32.2132 29.1934
32.399 28.805
32.5848 28.4078
32.7708 28.1064
32.9569 27.9159
33.143 27.7879
33.3293 27.3058
33.5158 26.9979
33.7022 26.564
33.8887 26.2743
34.0753 25.9423
34.262 25.5636
34.4488 25.218
34.6357 24.8391
34.8227 24.6648
35.0098 24.414
35.1969 24.0961
35.3842 23.9272
35.5716 23.7561
35.759 23.4142
35.9468 23.1041
36.1345 22.8481
36.3222 22.612
36.5101 22.3716
36.6981 22.0828
36.8861 21.7318
37.0743 21.3726
37.2626 21.1799
37.451 21.0441
37.6395 20.7642
37.8281 20.4279
38.0168 20.1183
38.2056 19.9293
38.3945 19.7012
38.5837 19.3462
38.7728 19.1542
38.9621 18.9505
39.1514 18.5974
39.3409 18.4033
39.5304 18.1752
39.7201 17.9994
39.9099 17.7493
40.0999 17.5253
40.2899 17.3529
40.48 17.0042
40.6703 16.9206
40.8607 16.6401
41.0512 16.4321
41.242 16.2148
41.4327 16.0394
41.6236 15.7599
41.8146 15.6349
42.0057 15.3782
42.1969 15.1624
42.3882 15.0035
42.5797 14.7592
42.7713 14.5652
42.963 14.3382
43.1549 14.1647
43.3468 13.9469
43.5389 13.7927
43.7312 13.5779
43.9237 13.4266
44.1162 13.1431
44.3088 13.0503
44.5016 12.8226
44.6945 12.6976
44.8875 12.4962
45.0806 12.3402
45.2739 12.1205
45.4673 11.9792
45.6609 11.7978
45.8546 11.712
46.0484 11.4611
46.2424 11.3338
46.4365 11.15
46.631 11.0031
46.8254 10.8438
47.0199 10.701
47.2146 10.5233
47.4095 10.3661
47.6044 10.1802
47.7996 10.0341
47.9948 9.88997
48.1902 9.77812
48.3858 9.64288
48.5815 9.51241
48.7774 9.33039
48.9734 9.2245
49.1696 9.08328
49.3661 8.94764
49.5626 8.74047
49.7592 8.69305
49.956 8.52272
50.153 8.41567
50.3501 8.24528
50.5474 8.16316
50.7448 8.02352
50.9424 7.91786
51.1402 7.78667
51.3381 7.64757
51.5362 7.52491
51.7344 7.36254
51.9328 7.2876
52.1316 7.14386
52.3304 7.05897
52.5293 6.90847
52.7284 6.80486
52.9276 6.69145
53.1271 6.56795
53.3267 6.4586
53.5265 6.32976
53.7264 6.28265
53.9266 6.13845
54.1269 6.05167
54.3274 5.9321
54.528 5.75471
54.7289 5.635
54.9301 5.46459
55.1314 5.31973
55.3328 5.17682
55.5344 4.91021
55.7361 4.81983

File: Ni3Fe_FD0711.xy
TT I
1.27165 7.13093
1.45013 6.36702
1.62863 5.65014
1.80712 4.9823
1.98562 4.93886
2.16411 4.48069
2.34263 5.41503
2.52115 6.95544
2.69965 8.44843
2.87818 8.72108
3.05672 11.0185
3.23527 15.6079
3.4138 18.517
3.59237 22.6597
3.77094 25.7347
3.9495 29.4516
4.12809 33.8369
4.30669 101.733
4.4853 53.5665
4.6639 55.5478
4.84253 68.6389
5.02118 87.9606
5.19981 431.725
5.37848 198.357
5.55716 101.96
5.73586 93.0871
5.91455 96.0284
6.09328 4612.76
6.27201 80.6951
6.45075 69.551
6.62952 62.9642
6.8083 59.2379
6.98711 55.2205
7.16591 56.0642
7.34475 67.3981
7.5236 53.9875
7.70247 56.5958
7.88135 57.4669
8.06026 62.3979
8.23919 69.2776
8.41812 84.1551
8.59709 1250.25
8.77609 98.1014
8.9551 89.6231
9.13412 83.2138
9.31318 84.5972
9.49226 84.6404
9.67134 95.1571
9.85047 101.638
10.0296 365.688
10.2088 360.654
10.388 106.12
10.5672 517.16
10.7465 86.2004
10.9257 77.6828
11.105 71.3253
11.2844 68.1677
11.4637 64.7327
11.6431 63.1692
11.8225 62.426
12.002 64.4268
12.1814 155.033
12.3609 66.6269
12.5405 65.0027
12.72 68.2077
12.8996 71.4709
13.0792 80.7206
13.2589 250.998
13.4386 120.937
13.6183 260.921
13.7981 94.3715
13.9779 75.7363
14.1577 71.6698
14.3376 70.1112
14.5175 68.6326
14.6974 70.8815
14.8774 114.589
15.0574 139.642
15.2374 69.427
15.4175 66.3287
15.5976 65.7608
15.7778 97.2268
15.958 148.346
16.1382 61.2804
16.3185 57.6645
16.4988 55.4078
16.6792 54.3688
16.8596 54.733
17.04 55.8929
17.2205 67.4113
17.401 69.5679
17.5815 59.1696
17.7622 61.4116
17.9428 74.3195
18.1237 142.264
18.3044 91.6924
18.4852 74.8667
18.666 60.2514
18.8469 58.1432
19.0278 56.494
19.2088 59.2209
19.3898 75.8919
19.5709 53.8688
19.752 53.3333
19.9332 56.3182
20.1144 69.6852
20.2957 64.0957
20.477 52.9253
20.6586 49.5934
20.84 48.8982
21.0215 48.4595
21.203 50.7787
21.3846 48.7978
21.5662 48.9886
21.7479 52.9285
21.9297 64.9287
22.1115 56.0746
22.2933 49.4924
22.4753 48.5274
22.6572 48.8567
22.8393 52.1323
23.0214 56.9662
23.2037 48.8079
23.3859 49.7058
23.5682 57.2696
23.7505 47.6139
23.9329 45.2557
24.1154 43.9514
24.2979 43.2118
24.4805 42.8456
24.6631 42.6199
24.8458 42.1396
25.0286 42.916
25.2114 44.7565
25.3943 44.3377
25.5773 40.606
25.7605 40.3746
25.9436 40.779
26.1268 41.5113
26.31 40.0155
26.4933 40.5416
26.6767 42.1822
26.8601 40.3582
27.0437 38.8687
27.2272 38.3542
27.4109 38.2213
27.5946 38.3423
27.7784 37.8082
27.9623 38.3832
28.1462 38.7415
28.3304 36.9317
28.5145 35.7512
28.6987 35.5657
28.8829 35.3166
29.0673 34.4447
29.2517 34.1956
29.4361 34.0269
29.6207 33.0413
29.8053 32.8036
29.99 32.5205
30.1748 32.3836
30.3597 32.1712
30.5447 32.1518
30.7297 32.2044
30.915 31.4543
31.1002 31.0547
31.2855 30.8208
31.4708 30.7587
31.6563 30.2328
31.8418 30.0209
32.0275 29.8355
32.2132 29.2622
32.399 28.8463
32.5848 28.4053
32.7708 28.1632
32.9569 27.9218
33.143 27.7034
33.3293 27.3153
33.5158 26.9065
33.7022 26.5095
33.8887 26.1877
34.0753 25.8793
34.262 25.5629
34.4488 25.2422
34.6357 24.9853
34.8227 24.6088
35.0098 24.4632
35.1969 24.1705
35.3842 23.9115
35.5716 23.7679
35.759 23.3905
35.9468 23.0374
36.1345 22.7871
36.3222 22.5321
36.5101 22.3266
36.6981 22.067
36.8861 21.7079
37.0743 21.4323
37.2626 21.1718
37.451 20.9094
37.6395 20.7712
37.8281 20.4368
38.0168 20.1733
38.2056 19.9721
38.3945 19.6017
38.5837 19.3971
38.7728 19.1064
38.9621 18.8699
39.1514 18.6276
39.3409 18.4141
39.5304 18.2024
39.7201 18.0413
39.9099 17.7717
40.0999 17.5203
40.2899 17.2811
40.48 17.0575
40.6703 16.8887
40.8607 16.6818
41.0512 16.4717
41.242 16.2297
41.4327 15.9265
41.6236 15.7054
41.8146 15.5707
42.0057 15.3565
42.1969 15.1488
42.3882 14.9731
42.5797 14.7654
42.7713 14.5884
42.963 14.354
43.1549 14.179
43.3468 13.9455
43.5389 13.8256
43.7312 13.5785
43.9237 13.3872
44.1162 13.204
44.3088 13.0037
44.5016 12.8312
44.6945 12.7237
44.8875 12.52
45.0806 12.3133
45.2739 12.1262
45.4673 12.0038
45.6609 11.8011
45.8546 11.6266
46.0484 11.5107
46.2424 11.327
46.4365 11.1672
46.631 10.9679
46.8254 10.8171
47.0199 10.6716
47.2146 10.4913
47.4095 10.3465
47.6044 10.198
47.7996 10.0237
47.9948 9.89614
48.1902 9.77699
48.3858 9.5885
48.5815 9.44181
48.7774 9.34403
48.9734 9.20379
49.1696 9.05589
49.3661 8.90824
49.5626 8.75981
49.7592 8.65286
49.956 8.53895
50.153 8.41689
50.3501 8.28288
50.5474 8.11893
50.7448 8.05363
50.9424 7.89923
51.1402 7.76263
51.3381 7.61377
51.5362 7.5036
51.7344 7.40933
51.9328 7.25736
52.1316 7.15366
52.3304 7.0663
52.5293 6.90417
52.7284 6.83729
52.9276 6.67459
53.1271 6.55554
53.3267 6.45515
53.5265 6.35565
53.7264 6.21197
53.9266 6.11621
54.1269 6.05829
54.3274 5.94529
54.528 5.7673
54.7289 5.62185
54.9301 5.47611
55.1314 5.34201
55.3328 5.11714
55.5344 4.94261
55.7361 4.81307