Folder: NiFe_MOF_catalyst_paper/XRD (part 58)

File: Ni3Fe_FD0302.xy
TT I
1.27165 7.84786
1.45013 6.4902
1.62863 5.92465
1.80712 5.11592
1.98562 4.70533
2.16411 5.28933
2.34263 4.85932
2.52115 6.04071
2.69965 6.91227
2.87818 8.1812
3.05672 10.9275
3.23527 14.7988
3.4138 19.3836
3.59237 25.2887
3.77094 27.2585
3.9495 30.6551
4.12809 36.2954
4.30669 312.479
4.4853 77.0712
4.6639 57.2529
4.84253 68.4766
5.02118 90.6131
5.19981 490.496
5.37848 256.817
5.55716 107.433
5.73586 95.8745
5.91455 99.8186
6.09328 3639.33
6.27201 90.2232
6.45075 70.4571
6.62952 65.6104
6.8083 61.4054
6.98711 58.3934
7.16591 57.8785
7.34475 114.632
7.5236 56.875
7.70247 58.4144
7.88135 59.9521
8.06026 64.3098
8.23919 71.6186
8.41812 89.3804
8.59709 979.709
8.77609 107.787
8.9551 98.0105
9.13412 84.7338
9.31318 85.1056
9.49226 87.2248
9.67134 106.412
9.85047 103.508
10.0296 372.331
10.2088 589.572
10.388 110.517
10.5672 443.872
10.7465 90.893
10.9257 81.9836
11.105 74.8871
11.2844 74.4391
11.4637 67.4839
11.6431 65.8148
11.8225 64.6821
12.002 66.2527
12.1814 135.713
12.3609 77.163
12.5405 67.0063
12.72 74.0943
12.8996 73.3577
13.0792 81.4616
13.2589 209.423
13.4386 149.998
13.6183 212.053
13.7981 112.606
13.9779 78.4587
14.1577 75.5061
14.3376 75.1169
14.5175 71.0355
14.6974 72.9923
14.8774 108.455
15.0574 176.533
15.2374 74.7812
15.4175 68.6656
15.5976 68.1678
15.7778 94.5022
15.958 180.918
16.1382 66.6621
16.3185 61.5093
16.4988 57.8509
16.6792 56.661
16.8596 57.3731
17.04 57.8181
17.2205 66.8159
17.401 77.51
17.5815 61.2234
17.7622 63.3991
17.9428 76.7638
18.1237 137.319
18.3044 88.1367
18.4852 85.9682
18.666 62.6218
18.8469 60.1089
19.0278 59.3144
19.2088 61.9334
19.3898 78.4738
19.5709 56.5684
19.752 55.1879
19.9332 58.2189
20.1144 71.2955
20.2957 63.7841
20.477 57.0523
20.6586 51.5459
20.84 50.579
21.0215 50.3561
21.203 52.108
21.3846 51.2697
21.5662 50.4144
21.7479 53.8909
21.9297 66.3708
22.1115 57.5769
22.2933 52.185
22.4753 50.9183
22.6572 50.6099
22.8393 52.9746
23.0214 60.1655
23.2037 50.6168
23.3859 51.2926
23.5682 57.2662
23.7505 51.0286
23.9329 46.9541
24.1154 45.686
24.2979 45.0849
24.4805 44.3583
24.6631 44.4572
24.8458 43.8105
25.0286 44.0368
25.2114 46.013
25.3943 46.4487
25.5773 42.5322
25.7605 41.9826
25.9436 42.1341
26.1268 43.1026
26.31 41.5849
26.4933 42.0057
26.6767 43.5488
26.8601 41.9859
27.0437 40.2269
27.2272 39.9062
27.4109 39.5898
27.5946 39.8355
27.7784 39.1291
27.9623 39.4014
28.1462 40.2931
28.3304 38.7058
28.5145 37.1659
28.6987 36.8962
28.8829 36.5616
29.0673 36.0178
29.2517 35.5786
29.4361 35.4253
29.6207 34.278
29.8053 34.0073
29.99 33.7408
30.1748 33.5733
30.3597 33.4951
30.5447 33.2386
30.7297 33.294
30.915 32.8519
31.1002 32.2164
31.2855 31.9585
31.4708 31.7877
31.6563 31.4785
31.8418 31.1626
32.0275 31.005
32.2132 30.4259
32.399 29.9878
32.5848 29.526
32.7708 29.1479
32.9569 29.0275
33.143 28.7852
33.3293 28.3617
33.5158 27.9713
33.7022 27.5956
33.8887 27.2569
34.0753 26.9721
34.262 26.4588
34.4488 26.284
34.6357 25.8282
34.8227 25.6463
35.0098 25.3979
35.1969 25.0753
35.3842 24.9095
35.5716 24.6545
35.759 24.3765
35.9468 23.9547
36.1345 23.6615
36.3222 23.5314
36.5101 23.2528
36.6981 22.9911
36.8861 22.5674
37.0743 22.251
37.2626 21.9613
37.451 21.7588
37.6395 21.559
37.8281 21.2179
38.0168 20.9699
38.2056 20.6863
38.3945 20.4509
38.5837 20.1227
38.7728 19.9138
38.9621 19.6292
39.1514 19.3869
39.3409 19.1582
39.5304 18.9386
39.7201 18.7211
39.9099 18.4761
40.0999 18.2002
40.2899 17.9685
40.48 17.7224
40.6703 17.548
40.8607 17.366
41.0512 17.0826
41.242 16.8371
41.4327 16.69
41.6236 16.3978
41.8146 16.2678
42.0057 15.9854
42.1969 15.7722
42.3882 15.5869
42.5797 15.365
42.7713 15.1228
42.963 14.8924
43.1549 14.7628
43.3468 14.5171
43.5389 14.3515
43.7312 14.146
43.9237 13.9613
44.1162 13.7732
44.3088 13.5689
44.5016 13.3966
44.6945 13.2152
44.8875 13.0146
45.0806 12.8444
45.2739 12.6731
45.4673 12.4583
45.6609 12.2723
45.8546 12.1318
46.0484 11.9567
46.2424 11.7596
46.4365 11.6121
46.631 11.4432
46.8254 11.2714
47.0199 11.1397
47.2146 10.8993
47.4095 10.7642
47.6044 10.6067
47.7996 10.4465
47.9948 10.2873
48.1902 10.125
48.3858 9.97308
48.5815 9.89103
48.7774 9.74915
48.9734 9.60056
49.1696 9.43618
49.3661 9.33517
49.5626 9.12372
49.7592 9.02899
49.956 8.93283
50.153 8.73862
50.3501 8.56145
50.5474 8.48972
50.7448 8.36444
50.9424 8.19433
51.1402 8.09974
51.3381 7.93246
51.5362 7.81447
51.7344 7.70985
51.9328 7.57141
52.1316 7.44517
52.3304 7.3701
52.5293 7.20447
52.7284 7.05957
52.9276 6.95603
53.1271 6.86933
53.3267 6.73302
53.5265 6.59755
53.7264 6.50158
53.9266 6.37467
54.1269 6.295
54.3274 6.13041
54.528 5.98276
54.7289 5.80681
54.9301 5.60845
55.1314 5.5123
55.3328 5.37342
55.5344 5.15183
55.7361 4.97932

File: Ni3Fe_FD0303.xy
TT I
1.27165 7.17972
1.45013 6.4874
1.62863 6.04478
1.80712 5.23811
1.98562 4.53003
2.16411 4.64556
2.34263 5.14913
2.52115 5.83031
2.69965 7.41139
2.87818 8.28347
3.05672 10.8693
3.23527 15.3063
3.4138 19.358
3.59237 25.5527
3.77094 26.9313
3.9495 30.8186
4.12809 36.7266
4.30669 314.859
4.4853 77.1851
4.6639 57.1006
4.84253 68.7256
5.02118 90.4137
5.19981 486.547
5.37848 257.748
5.55716 106.919
5.73586 95.9782
5.91455 99.8838
6.09328 3641.03
6.27201 90.002
6.45075 70.1545
6.62952 65.6179
6.8083 61.62
6.98711 57.7461
7.16591 58.0718
7.34475 115.786
7.5236 56.7982
7.70247 58.2028
7.88135 59.9333
8.06026 64.1369
8.23919 72.0176
8.41812 89.2547
8.59709 972.762
8.77609 108.045
8.9551 98.0679
9.13412 84.5927
9.31318 85.2292
9.49226 86.6727
9.67134 105.959
9.85047 103.495
10.0296 370.569
10.2088 597.2
10.388 110.277
10.5672 445.223
10.7465 90.4347
10.9257 81.6784
11.105 74.6116
11.2844 74.5176
11.4637 67.1662
11.6431 66.0325
11.8225 64.5081
12.002 65.975
12.1814 135.565
12.3609 77.4841
12.5405 66.7778
12.72 74.4885
12.8996 73.2588
13.0792 81.3739
13.2589 208.838
13.4386 150.413
13.6183 211.883
13.7981 112.741
13.9779 78.4534
14.1577 75.9055
14.3376 75.2883
14.5175 70.9805
14.6974 73.0312
14.8774 108.253
15.0574 175.916
15.2374 74.8257
15.4175 68.6138
15.5976 68.101
15.7778 94.5433
15.958 181.964
16.1382 66.4544
16.3185 61.1916
16.4988 57.6758
16.6792 56.6029
16.8596 57.3701
17.04 57.7984
17.2205 66.9343
17.401 77.5156
17.5815 61.2868
17.7622 63.3717
17.9428 76.7167
18.1237 137.157
18.3044 88.3319
18.4852 86.1561
18.666 62.9629
18.8469 59.8909
19.0278 59.0142
19.2088 61.8586
19.3898 78.4827
19.5709 56.5642
19.752 55.1107
19.9332 58.2512
20.1144 71.203
20.2957 63.7679
20.477 56.9835
20.6586 51.6239
20.84 50.7172
21.0215 50.2634
21.203 52.0797
21.3846 51.1831
21.5662 50.3982
21.7479 53.8739
21.9297 66.209
22.1115 57.3259
22.2933 52.3356
22.4753 50.8971
22.6572 50.5359
22.8393 53.0125
23.0214 60.1969
23.2037 50.8281
23.3859 51.4284
23.5682 57.2835
23.7505 51.211
23.9329 46.9972
24.1154 45.808
24.2979 44.9413
24.4805 44.3168
24.6631 44.539
24.8458 43.7119
25.0286 44.1461
25.2114 45.9397
25.3943 46.5169
25.5773 42.5148
25.7605 41.8802
25.9436 42.1685
26.1268 43.1165
26.31 41.7232
26.4933 42.0194
26.6767 43.5155
26.8601 41.9813
27.0437 40.3905
27.2272 39.9227
27.4109 39.7313
27.5946 39.7989
27.7784 39.288
27.9623 39.5874
28.1462 40.2911
28.3304 38.7563
28.5145 37.2975
28.6987 36.8031
28.8829 36.7418
29.0673 35.9795
29.2517 35.5167
29.4361 35.4162
29.6207 34.3181
29.8053 34.0391
29.99 33.7313
30.1748 33.5718
30.3597 33.5415
30.5447 33.2178
30.7297 33.3023
30.915 32.8708
31.1002 32.3163
31.2855 31.9752
31.4708 31.8301
31.6563 31.4978
31.8418 31.2184
32.0275 30.9309
32.2132 30.4631
32.399 30.0088
32.5848 29.5426
32.7708 29.2524
32.9569 29.1171
33.143 28.7704
33.3293 28.3883
33.5158 28.0609
33.7022 27.5133
33.8887 27.2088
34.0753 26.8827
34.262 26.5738
34.4488 26.3255
34.6357 25.9093
34.8227 25.5864
35.0098 25.3365
35.1969 25.0765
35.3842 24.825
35.5716 24.5878
35.759 24.312
35.9468 23.9616
36.1345 23.6666
36.3222 23.4975
36.5101 23.2496
36.6981 22.9444
36.8861 22.5718
37.0743 22.3442
37.2626 22.0731
37.451 21.7349
37.6395 21.5864
37.8281 21.2315
38.0168 20.9607
38.2056 20.7299
38.3945 20.4731
38.5837 20.236
38.7728 19.8842
38.9621 19.6504
39.1514 19.3419
39.3409 19.1542
39.5304 18.9401
39.7201 18.7319
39.9099 18.5568
40.0999 18.271
40.2899 18.0112
40.48 17.744
40.6703 17.5776
40.8607 17.3852
41.0512 17.0873
41.242 16.816
41.4327 16.6388
41.6236 16.358
41.8146 16.2595
42.0057 16.0351
42.1969 15.7969
42.3882 15.5968
42.5797 15.3821
42.7713 15.1183
42.963 14.9494
43.1549 14.7626
43.3468 14.5278
43.5389 14.3644
43.7312 14.1524
43.9237 13.9238
44.1162 13.7712
44.3088 13.5607
44.5016 13.3636
44.6945 13.2079
44.8875 13.0127
45.0806 12.8217
45.2739 12.6854
45.4673 12.4843
45.6609 12.3014
45.8546 12.1584
46.0484 11.9922
46.2424 11.7919
46.4365 11.6284
46.631 11.4578
46.8254 11.2177
47.0199 11.0906
47.2146 10.9519
47.4095 10.7269
47.6044 10.6022
47.7996 10.4638
47.9948 10.3238
48.1902 10.1576
48.3858 9.98821
48.5815 9.87381
48.7774 9.77042
48.9734 9.58
49.1696 9.43217
49.3661 9.27617
49.5626 9.13469
49.7592 9.01605
49.956 8.88418
50.153 8.7517
50.3501 8.6158
50.5474 8.48633
50.7448 8.32752
50.9424 8.22159
51.1402 8.11216
51.3381 7.97161
51.5362 7.82057
51.7344 7.71905
51.9328 7.54168
52.1316 7.42656
52.3304 7.33974
52.5293 7.21761
52.7284 7.10649
52.9276 6.96036
53.1271 6.88986
53.3267 6.76646
53.5265 6.63155
53.7264 6.48163
53.9266 6.39296
54.1269 6.29404
54.3274 6.1509
54.528 5.97613
54.7289 5.83279
54.9301 5.66217
55.1314 5.56261
55.3328 5.32639
55.5344 5.15607
55.7361 5.01161

File: Ni3Fe_FD0304.xy
TT I
1.27165 8.12313
1.45013 6.03935
1.62863 5.70126
1.80712 5.21723
1.98562 4.64968
2.16411 4.73544
2.34263 5.40227
2.52115 5.24838
2.69965 6.76721
2.87818 8.28392
3.05672 11.1206
3.23527 15.3278
3.4138 19.3623
3.59237 25.5182
3.77094 27.0479
3.9495 30.9666
4.12809 36.3696
4.30669 318.084
4.4853 77.4686
4.6639 56.9011
4.84253 69.1648
5.02118 90.5212
5.19981 485.345
5.37848 257.321
5.55716 106.703
5.73586 95.9598
5.91455 99.4334
6.09328 3660.95
6.27201 90.0966
6.45075 70.4582
6.62952 65.7062
6.8083 61.6732
6.98711 58.0001
7.16591 58.2401
7.34475 115.142
7.5236 57.0341
7.70247 58.288
7.88135 59.7214
8.06026 64.2003
8.23919 71.9888
8.41812 89.7921
8.59709 970.8
8.77609 107.804
8.9551 98.558
9.13412 84.673
9.31318 85.244
9.49226 86.7381
9.67134 106.677
9.85047 103.406
10.0296 369.959
10.2088 591.951
10.388 110.417
10.5672 443.461
10.7465 90.8114
10.9257 81.9661
11.105 74.4204
11.2844 74.3135
11.4637 67.7267
11.6431 65.9172
11.8225 64.6849
12.002 66.0735
12.1814 135.092
12.3609 77.5723
12.5405 66.8406
12.72 74.4123
12.8996 73.3776
13.0792 81.4838
13.2589 208.878
13.4386 149.86
13.6183 211.271
13.7981 112.81
13.9779 78.5605
14.1577 75.4444
14.3376 75.3784
14.5175 71.2009
14.6974 72.8694
14.8774 108.101
15.0574 175.476
15.2374 74.8499
15.4175 68.6145
15.5976 68.0767
15.7778 94.5384
15.958 181.755
16.1382 66.4186
16.3185 61.3995
16.4988 57.587
16.6792 56.5735
16.8596 57.5442
17.04 57.8191
17.2205 66.8107
17.401 77.7647
17.5815 61.3704
17.7622 63.2346
17.9428 76.6511
18.1237 137.43
18.3044 88.4129
18.4852 86.1224
18.666 62.6512
18.8469 60.0673
19.0278 59.2377
19.2088 61.9893
19.3898 78.6012
19.5709 56.6215
19.752 55.2165
19.9332 58.168
20.1144 71.2906
20.2957 63.6807
20.477 56.8639
20.6586 51.5223
20.84 50.6212
21.0215 50.4124
21.203 52.1977
21.3846 50.9409
21.5662 50.3828
21.7479 54.1306
21.9297 66.3654
22.1115 57.3836
22.2933 52.3462
22.4753 50.9552
22.6572 50.5877
22.8393 52.842
23.0214 60.1662
23.2037 50.7449
23.3859 51.5649
23.5682 57.1566
23.7505 51.1452
23.9329 47.0336
24.1154 45.693
24.2979 45.0818
24.4805 44.421
24.6631 44.4357
24.8458 43.7706
25.0286 44.2902
25.2114 46.0019
25.3943 46.4687
25.5773 42.498
25.7605 41.822
25.9436 42.1127
26.1268 43.0492
26.31 41.6914
26.4933 42.0999
26.6767 43.4558
26.8601 42.0447
27.0437 40.2415
27.2272 39.8402
27.4109 39.5576
27.5946 39.6625
27.7784 39.2595
27.9623 39.5165
28.1462 40.4219
28.3304 38.7896
28.5145 37.3334
28.6987 36.9635
28.8829 36.7517
29.0673 35.9993
29.2517 35.4877
29.4361 35.3448
29.6207 34.3021
29.8053 34.066
29.99 33.7964
30.1748 33.5063
30.3597 33.4767
30.5447 33.202
30.7297 33.2541
30.915 32.8221
31.1002 32.2705
31.2855 31.9796
31.4708 31.8807
31.6563 31.5183
31.8418 31.0862
32.0275 31.0296
32.2132 30.4582
32.399 29.9352
32.5848 29.5238
32.7708 29.2143
32.9569 29.0857
33.143 28.6263
33.3293 28.3753
33.5158 28.0367
33.7022 27.5635
33.8887 27.2737
34.0753 26.9377
34.262 26.498
34.4488 26.2033
34.6357 25.916
34.8227 25.5909
35.0098 25.4178
35.1969 25.0332
35.3842 24.8837
35.5716 24.6497
35.759 24.255
35.9468 23.9801
36.1345 23.7645
36.3222 23.3886
36.5101 23.1834
36.6981 22.9057
36.8861 22.5873
37.0743 22.3386
37.2626 22.0407
37.451 21.7326
37.6395 21.5927
37.8281 21.2432
38.0168 20.8819
38.2056 20.6299
38.3945 20.4252
38.5837 20.1309
38.7728 19.9477
38.9621 19.6967
39.1514 19.4326
39.3409 19.1548
39.5304 18.931
39.7201 18.6803
39.9099 18.5029
40.0999 18.2269
40.2899 18.0128
40.48 17.6979
40.6703 17.5285
40.8607 17.3567
41.0512 17.1452
41.242 16.8423
41.4327 16.6005
41.6236 16.4058
41.8146 16.2711
42.0057 16.0278
42.1969 15.7882
42.3882 15.5702
42.5797 15.3925
42.7713 15.199
42.963 14.9792
43.1549 14.7343
43.3468 14.4892
43.5389 14.3622
43.7312 14.1122
43.9237 13.9108
44.1162 13.7845
44.3088 13.5961
44.5016 13.3613
44.6945 13.2535
44.8875 12.9749
45.0806 12.8244
45.2739 12.65
45.4673 12.4625
45.6609 12.3093
45.8546 12.1311
46.0484 11.9539
46.2424 11.772
46.4365 11.6106
46.631 11.4265
46.8254 11.2321
47.0199 11.0823
47.2146 10.9384
47.4095 10.7626
47.6044 10.5595
47.7996 10.4378
47.9948 10.3013
48.1902 10.1652
48.3858 10.0198
48.5815 9.87741
48.7774 9.70832
48.9734 9.57734
49.1696 9.44089
49.3661 9.27573
49.5626 9.12675
49.7592 9.02786
49.956 8.90641
50.153 8.72007
50.3501 8.5896
50.5474 8.47193
50.7448 8.34522
50.9424 8.20031
51.1402 8.10869
51.3381 7.96391
51.5362 7.8599
51.7344 7.70609
51.9328 7.50347
52.1316 7.41819
52.3304 7.31684
52.5293 7.19949
52.7284 7.08774
52.9276 6.9651
53.1271 6.83776
53.3267 6.75168
53.5265 6.60408
53.7264 6.48941
53.9266 6.37974
54.1269 6.26302
54.3274 6.1915
54.528 6.04019
54.7289 5.85976
54.9301 5.67448
55.1314 5.52964
55.3328 5.33445
55.5344 5.12316
55.7361 5.0045

File: Ni3Fe_FD0305.xy
TT I
1.27165 7.55158
1.45013 6.53246
1.62863 6.37963
1.80712 4.89661
1.98562 4.81859
2.16411 5.23346
2.34263 5.2482
2.52115 5.9857
2.69965 7.09774
2.87818 8.1474
3.05672 11.2507
3.23527 15.1884
3.4138 19.4236
3.59237 25.5382
3.77094 27.1512
3.9495 30.3947
4.12809 35.9496
4.30669 323.573
4.4853 77.7067
4.6639 56.7309
4.84253 68.9757
5.02118 90.2852
5.19981 481.828
5.37848 258.396
5.55716 106.447
5.73586 95.9431
5.91455 100.014
6.09328 3677.75
6.27201 89.7315
6.45075 70.0841
6.62952 65.8645
6.8083 61.5544
6.98711 57.8782
7.16591 57.9511
7.34475 117.111
7.5236 57.024
7.70247 58.4413
7.88135 59.7246
8.06026 64.0916
8.23919 71.9116
8.41812 89.2736
8.59709 966.803
8.77609 108.357
8.9551 98.1077
9.13412 83.9222
9.31318 85.0699
9.49226 86.6474
9.67134 106.671
9.85047 103.544
10.0296 367.35
10.2088 600.206
10.388 110.555
10.5672 439.624
10.7465 90.2393
10.9257 81.9508
11.105 74.5179
11.2844 74.5983
11.4637 67.1373
11.6431 65.9101
11.8225 64.7511
12.002 65.8555
12.1814 134.739
12.3609 77.7245
12.5405 67.206
12.72 74.6721
12.8996 73.1504
13.0792 81.2999
13.2589 207.632
13.4386 151.037
13.6183 209.812
13.7981 113.301
13.9779 78.5309
14.1577 75.5539
14.3376 75.2487
14.5175 71.1677
14.6974 73.0068
14.8774 107.741
15.0574 176.994
15.2374 74.7899
15.4175 68.6521
15.5976 68.1505
15.7778 94.1492
15.958 182.95
16.1382 66.32
16.3185 61.343
16.4988 57.6622
16.6792 56.4527
16.8596 57.3794
17.04 57.5505
17.2205 66.8202
17.401 77.9023
17.5815 61.1578
17.7622 63.4341
17.9428 76.6179
18.1237 137.377
18.3044 88.3303
18.4852 86.4663
18.666 62.8097
18.8469 60.2164
19.0278 58.9918
19.2088 61.8204
19.3898 78.5535
19.5709 56.5842
19.752 55.305
19.9332 58.1599
20.1144 71.0869
20.2957 63.6078
20.477 56.9293
20.6586 51.5609
20.84 50.6457
21.0215 50.3123
21.203 52.0307
21.3846 51.188
21.5662 50.3748
21.7479 53.7873
21.9297 66.3622
22.1115 57.5933
22.2933 52.1983
22.4753 50.8259
22.6572 50.4939
22.8393 52.886
23.0214 60.2697
23.2037 50.6885
23.3859 51.2745
23.5682 57.2902
23.7505 50.9635
23.9329 46.7296
24.1154 45.701
24.2979 44.9821
24.4805 44.3343
24.6631 44.3743
24.8458 43.646
25.0286 44.1622
25.2114 45.9635
25.3943 46.4515
25.5773 42.507
25.7605 42.0161
25.9436 42.1316
26.1268 43.1141
26.31 41.6961
26.4933 42.0752
26.6767 43.6272
26.8601 41.9134
27.0437 40.3915
27.2272 39.9773
27.4109 39.7714
27.5946 39.7612
27.7784 39.2176
27.9623 39.4253
28.1462 40.2862
28.3304 38.6734
28.5145 37.2541
28.6987 36.7515
28.8829 36.6059
29.0673 35.8677
29.2517 35.5018
29.4361 35.4357
29.6207 34.3963
29.8053 34.0366
29.99 33.6559
30.1748 33.5254
30.3597 33.5169
30.5447 33.1842
30.7297 33.3052
30.915 32.7941
31.1002 32.2474
31.2855 31.9049
31.4708 31.9121
31.6563 31.5146
31.8418 31.1863
32.0275 30.9843
32.2132 30.5212
32.399 29.9864
32.5848 29.4378
32.7708 29.1985
32.9569 28.9931
33.143 28.7122
33.3293 28.4098
33.5158 28.1007
33.7022 27.5515
33.8887 27.2453
34.0753 26.9979
34.262 26.5427
34.4488 26.1969
34.6357 25.8929
34.8227 25.6147
35.0098 25.4661
35.1969 25.0738
35.3842 24.8257
35.5716 24.6649
35.759 24.2717
35.9468 23.9499
36.1345 23.7633
36.3222 23.4989
36.5101 23.2423
36.6981 22.8778
36.8861 22.5536
37.0743 22.2596
37.2626 21.9951
37.451 21.6878
37.6395 21.6203
37.8281 21.2392
38.0168 20.9581
38.2056 20.6836
38.3945 20.3783
38.5837 20.1162
38.7728 19.9567
38.9621 19.6659
39.1514 19.3818
39.3409 19.0918
39.5304 18.8992
39.7201 18.7118
39.9099 18.4693
40.0999 18.2099
40.2899 18.0043
40.48 17.7013
40.6703 17.4793
40.8607 17.3839
41.0512 17.1684
41.242 16.8438
41.4327 16.6464
41.6236 16.4034
41.8146 16.2372
42.0057 15.9678
42.1969 15.7961
42.3882 15.5795
42.5797 15.3721
42.7713 15.1941
42.963 14.9846
43.1549 14.706
43.3468 14.5056
43.5389 14.2986
43.7312 14.1463
43.9237 13.9501
44.1162 13.7262
44.3088 13.5778
44.5016 13.4224
44.6945 13.2014
44.8875 12.9687
45.0806 12.8409
45.2739 12.6893
45.4673 12.515
45.6609 12.2818
45.8546 12.1188
46.0484 11.9105
46.2424 11.7443
46.4365 11.6218
46.631 11.4244
46.8254 11.2773
47.0199 11.0889
47.2146 10.9117
47.4095 10.7825
47.6044 10.5798
47.7996 10.4455
47.9948 10.3063
48.1902 10.1574
48.3858 10.0346
48.5815 9.87454
48.7774 9.78456
48.9734 9.59639
49.1696 9.42839
49.3661 9.27904
49.5626 9.10103
49.7592 9.02615
49.956 8.88775
50.153 8.75781
50.3501 8.58481
50.5474 8.47159
50.7448 8.38106
50.9424 8.21887
51.1402 8.11436
51.3381 7.93994
51.5362 7.81927
51.7344 7.69749
51.9328 7.56551
52.1316 7.41197
52.3304 7.34066
52.5293 7.19933
52.7284 7.07365
52.9276 6.96502
53.1271 6.87379
53.3267 6.70568
53.5265 6.6173
53.7264 6.56064
53.9266 6.37423
54.1269 6.25553
54.3274 6.16149
54.528 6.04178
54.7289 5.83716
54.9301 5.66326
55.1314 5.50541
55.3328 5.29205
55.5344 5.14364
55.7361 5.01869

File: Ni3Fe_FD0306.xy
TT I
1.27165 7.63219
1.45013 5.90367
1.62863 5.67171
1.80712 4.84317
1.98562 5.01352
2.16411 4.94002
2.34263 4.96652
2.52115 5.68291
2.69965 7.14446
2.87818 8.29931
3.05672 11.4195
3.23527 15.3817
3.4138 19.5017
3.59237 25.5083
3.77094 26.7947
3.9495 31.2765
4.12809 36.3412
4.30669 322.267
4.4853 77.5831
4.6639 56.6703
4.84253 69.055
5.02118 90.3999
5.19981 484.152
5.37848 254.563
5.55716 106.708
5.73586 95.5634
5.91455 99.5577
6.09328 3693.11
6.27201 90.331
6.45075 70.0177
6.62952 66.1545
6.8083 61.6508
6.98711 57.7477
7.16591 58.1755
7.34475 116.293
7.5236 56.9105
7.70247 58.6322
7.88135 60.0684
8.06026 64.3742
8.23919 71.996
8.41812 89.6982
8.59709 970.217
8.77609 107.559
8.9551 98.2313
9.13412 84.6005
9.31318 85.4727
9.49226 87.0458
9.67134 106.317
9.85047 103.451
10.0296 367.899
10.2088 591.248
10.388 110.709
10.5672 441.908
10.7465 90.5223
10.9257 82.14
11.105 74.6252
11.2844 74.4533
11.4637 67.3685
11.6431 65.8103
11.8225 64.7294
12.002 65.9361
12.1814 134.872
12.3609 77.9573
12.5405 67.2739
12.72 74.4841
12.8996 73.3047
13.0792 81.5407
13.2589 208.817
13.4386 150.368
13.6183 210.459
13.7981 112.29
13.9779 78.4255
14.1577 75.7248
14.3376 75.5211
14.5175 71.1627
14.6974 72.9309
14.8774 107.96
15.0574 174.527
15.2374 75.1453
15.4175 68.6561
15.5976 68.056
15.7778 94.4066
15.958 182.557
16.1382 66.5447
16.3185 61.5096
16.4988 57.7864
16.6792 56.4828
16.8596 57.4059
17.04 57.9169
17.2205 66.8273
17.401 77.3568
17.5815 61.2094
17.7622 63.2727
17.9428 76.4421
18.1237 137.504
18.3044 88.0896
18.4852 85.8282
18.666 62.8273
18.8469 60.3006
19.0278 58.997
19.2088 61.8956
19.3898 78.5006
19.5709 56.4959
19.752 55.2408
19.9332 57.966
20.1144 71.2568
20.2957 63.765
20.477 56.8923
20.6586 51.5981
20.84 50.562
21.0215 50.4075
21.203 52.0053
21.3846 51.121
21.5662 50.4161
21.7479 53.8607
21.9297 66.3779
22.1115 57.2311
22.2933 52.2994
22.4753 50.9563
22.6572 50.5692
22.8393 52.793
23.0214 59.967
23.2037 50.7606
23.3859 51.285
23.5682 57.2769
23.7505 50.9417
23.9329 46.932
24.1154 45.7574
24.2979 45.0419
24.4805 44.3927
24.6631 44.4801
24.8458 43.8094
25.0286 44.178
25.2114 46.1013
25.3943 46.2484
25.5773 42.442
25.7605 42.0255
25.9436 42.1337
26.1268 43.1606
26.31 41.5437
26.4933 42.151
26.6767 43.4576
26.8601 42.1171
27.0437 40.276
27.2272 39.9016
27.4109 39.5743
27.5946 39.7453
27.7784 39.1998
27.9623 39.388
28.1462 40.1532
28.3304 38.6928
28.5145 37.3865
28.6987 36.7961
28.8829 36.6454
29.0673 35.951
29.2517 35.5326
29.4361 35.3965
29.6207 34.3679
29.8053 34.0238
29.99 33.7747
30.1748 33.5464
30.3597 33.5629
30.5447 33.2537
30.7297 33.3174
30.915 32.7971
31.1002 32.256
31.2855 31.9502
31.4708 31.9187
31.6563 31.5132
31.8418 31.2033
32.0275 30.9791
32.2132 30.481
32.399 29.9091
32.5848 29.5266
32.7708 29.1073
32.9569 28.9475
33.143 28.7215
33.3293 28.3355
33.5158 28.0708
33.7022 27.545
33.8887 27.2405
34.0753 26.9594
34.262 26.5248
34.4488 26.1689
34.6357 25.8573
34.8227 25.5843
35.0098 25.4168
35.1969 25.0544
35.3842 24.7788
35.5716 24.6494
35.759 24.3166
35.9468 23.9301
36.1345 23.735
36.3222 23.4609
36.5101 23.205
36.6981 22.9
36.8861 22.6161
37.0743 22.2514
37.2626 21.9927
37.451 21.7366
37.6395 21.5767
37.8281 21.2787
38.0168 20.9581
38.2056 20.6669
38.3945 20.3956
38.5837 20.1505
38.7728 19.9258
38.9621 19.7345
39.1514 19.3585
39.3409 19.0837
39.5304 18.8846
39.7201 18.6779
39.9099 18.5218
40.0999 18.2097
40.2899 17.9336
40.48 17.7615
40.6703 17.5333
40.8607 17.3286
41.0512 17.1177
41.242 16.807
41.4327 16.6683
41.6236 16.3879
41.8146 16.2242
42.0057 15.9888
42.1969 15.7993
42.3882 15.5669
42.5797 15.4024
42.7713 15.1796
42.963 15.0137
43.1549 14.7266
43.3468 14.5479
43.5389 14.347
43.7312 14.1353
43.9237 13.924
44.1162 13.7296
44.3088 13.5297
44.5016 13.3761
44.6945 13.1671
44.8875 13.0252
45.0806 12.8199
45.2739 12.6694
45.4673 12.4752
45.6609 12.2748
45.8546 12.1406
46.0484 11.9245
46.2424 11.7814
46.4365 11.5785
46.631 11.4398
46.8254 11.238
47.0199 11.1033
47.2146 10.9231
47.4095 10.7256
47.6044 10.6454
47.7996 10.4533
47.9948 10.2777
48.1902 10.1335
48.3858 10.0173
48.5815 9.86606
48.7774 9.72209
48.9734 9.57816
49.1696 9.44139
49.3661 9.27971
49.5626 9.14162
49.7592 9.02695
49.956 8.85182
50.153 8.77363
50.3501 8.60667
50.5474 8.48532
50.7448 8.34213
50.9424 8.21774
51.1402 8.09425
51.3381 7.94998
51.5362 7.80827
51.7344 7.67987
51.9328 7.56003
52.1316 7.44356
52.3304 7.32253
52.5293 7.2103
52.7284 7.07987
52.9276 6.93191
53.1271 6.85874
53.3267 6.78622
53.5265 6.63929
53.7264 6.49256
53.9266 6.37513
54.1269 6.27686
54.3274 6.17524
54.528 5.99854
54.7289 5.84188
54.9301 5.69196
55.1314 5.53186
55.3328 5.28823
55.5344 5.09351
55.7361 4.99989