Folder: NiFe_MOF_catalyst_paper/XRD (part 79)

File: Ni3Fe_FD0420.xy
TT I
1.27165 7.78272
1.45013 6.63445
1.62863 4.98169
1.80712 4.77284
1.98562 4.86193
2.16411 4.76462
2.34263 5.6197
2.52115 6.39357
2.69965 8.09595
2.87818 8.26709
3.05672 11.2683
3.23527 15.3974
3.4138 19.3767
3.59237 25.6705
3.77094 27.0399
3.9495 30.4062
4.12809 36.1621
4.30669 296.77
4.4853 74.1426
4.6639 56.1224
4.84253 67.8744
5.02118 88.441
5.19981 420.114
5.37848 223.671
5.55716 104.583
5.73586 94.1364
5.91455 96.6819
6.09328 3840.4
6.27201 87.0284
6.45075 69.1375
6.62952 64.4269
6.8083 60.9172
6.98711 57.2471
7.16591 57.3298
7.34475 110.0
7.5236 56.2557
7.70247 57.4054
7.88135 59.0591
8.06026 63.5899
8.23919 70.9486
8.41812 87.7462
8.59709 1060.14
8.77609 104.333
8.9551 96.0562
9.13412 83.1658
9.31318 83.7086
9.49226 85.9994
9.67134 104.115
9.85047 102.199
10.0296 350.961
10.2088 506.834
10.388 108.282
10.5672 468.685
10.7465 88.9024
10.9257 80.4225
11.105 73.6739
11.2844 73.2001
11.4637 66.2458
11.6431 65.0362
11.8225 64.0272
12.002 65.0307
12.1814 141.191
12.3609 75.2172
12.5405 65.8608
12.72 73.0972
12.8996 72.2843
13.0792 80.2994
13.2589 220.199
13.4386 139.246
13.6183 226.007
13.7981 106.419
13.9779 77.5079
14.1577 74.3813
14.3376 74.2146
14.5175 70.2962
14.6974 71.9089
14.8774 109.102
15.0574 166.091
15.2374 73.7927
15.4175 67.9192
15.5976 67.162
15.7778 94.1761
15.958 171.503
16.1382 65.0777
16.3185 60.4882
16.4988 56.8102
16.6792 55.8192
16.8596 56.6408
17.04 57.1045
17.2205 66.468
17.401 74.7791
17.5815 60.5612
17.7622 62.4395
17.9428 75.1368
18.1237 137.273
18.3044 88.8017
18.4852 83.2564
18.666 61.7106
18.8469 59.2414
19.0278 58.3436
19.2088 60.8117
19.3898 77.6843
19.5709 55.4828
19.752 54.41
19.9332 57.4196
20.1144 70.5697
20.2957 63.7662
20.477 55.8726
20.6586 50.7924
20.84 50.0154
21.0215 49.6786
21.203 51.6695
21.3846 50.2717
21.5662 49.782
21.7479 53.4153
21.9297 65.5342
22.1115 57.0011
22.2933 51.3815
22.4753 50.0253
22.6572 49.949
22.8393 52.6157
23.0214 59.2105
23.2037 49.9703
23.3859 50.8812
23.5682 57.097
23.7505 50.1406
23.9329 46.2394
24.1154 45.1301
24.2979 44.3584
24.4805 43.9318
24.6631 43.7625
24.8458 43.1882
25.0286 43.7214
25.2114 45.4873
25.3943 45.7267
25.5773 41.7256
25.7605 41.407
25.9436 41.5825
26.1268 42.6906
26.31 41.1176
26.4933 41.5772
26.6767 42.9708
26.8601 41.4448
27.0437 39.7083
27.2272 39.348
27.4109 39.3393
27.5946 39.2432
27.7784 38.6882
27.9623 39.0084
28.1462 39.73
28.3304 38.2601
28.5145 36.7979
28.6987 36.3007
28.8829 36.208
29.0673 35.39
29.2517 35.1259
29.4361 34.8951
29.6207 33.9371
29.8053 33.5674
29.99 33.2215
30.1748 33.1414
30.3597 33.0025
30.5447 32.7315
30.7297 32.809
30.915 32.4233
31.1002 31.7615
31.2855 31.451
31.4708 31.5427
31.6563 31.104
31.8418 30.7608
32.0275 30.5903
32.2132 30.0691
32.399 29.6338
32.5848 29.1893
32.7708 28.8097
32.9569 28.676
33.143 28.3587
33.3293 28.0776
33.5158 27.5587
33.7022 27.2238
33.8887 26.9211
34.0753 26.5375
34.262 26.2683
34.4488 25.8301
34.6357 25.5148
34.8227 25.1822
35.0098 25.0197
35.1969 24.7896
35.3842 24.4992
35.5716 24.3116
35.759 23.9779
35.9468 23.6572
36.1345 23.4673
36.3222 23.1826
36.5101 22.9429
36.6981 22.5962
36.8861 22.2763
37.0743 21.936
37.2626 21.7169
37.451 21.396
37.6395 21.3259
37.8281 20.9267
38.0168 20.5733
38.2056 20.3398
38.3945 20.0736
38.5837 19.8735
38.7728 19.6243
38.9621 19.3879
39.1514 19.1383
39.3409 18.9119
39.5304 18.6183
39.7201 18.5407
39.9099 18.2446
40.0999 17.999
40.2899 17.7593
40.48 17.5348
40.6703 17.3182
40.8607 17.1373
41.0512 16.9249
41.242 16.6216
41.4327 16.4594
41.6236 16.1612
41.8146 16.0401
42.0057 15.7871
42.1969 15.6232
42.3882 15.35
42.5797 15.1683
42.7713 14.9983
42.963 14.7667
43.1549 14.5484
43.3468 14.3487
43.5389 14.1756
43.7312 13.9414
43.9237 13.7834
44.1162 13.5291
44.3088 13.3675
44.5016 13.1607
44.6945 13.0193
44.8875 12.8543
45.0806 12.6178
45.2739 12.4797
45.4673 12.3284
45.6609 12.1588
45.8546 11.9582
46.0484 11.8098
46.2424 11.6437
46.4365 11.4857
46.631 11.2415
46.8254 11.0869
47.0199 10.9304
47.2146 10.7983
47.4095 10.6178
47.6044 10.4747
47.7996 10.3188
47.9948 10.1324
48.1902 10.0374
48.3858 9.86095
48.5815 9.72411
48.7774 9.60406
48.9734 9.46492
49.1696 9.29143
49.3661 9.14515
49.5626 9.05587
49.7592 8.90787
49.956 8.7876
50.153 8.62066
50.3501 8.48069
50.5474 8.36371
50.7448 8.25526
50.9424 8.1465
51.1402 7.98675
51.3381 7.83679
51.5362 7.72821
51.7344 7.59554
51.9328 7.50113
52.1316 7.33485
52.3304 7.23308
52.5293 7.11164
52.7284 6.98505
52.9276 6.89239
53.1271 6.79438
53.3267 6.65042
53.5265 6.52174
53.7264 6.45366
53.9266 6.33289
54.1269 6.1742
54.3274 6.05931
54.528 5.91375
54.7289 5.79416
54.9301 5.56713
55.1314 5.47962
55.3328 5.28284
55.5344 5.05421
55.7361 4.95089

File: Ni3Fe_FD0421.xy
TT I
1.27165 8.00245
1.45013 6.41083
1.62863 4.94712
1.80712 5.14215
1.98562 4.54386
2.16411 5.16879
2.34263 5.04125
2.52115 6.35122
2.69965 7.70897
2.87818 7.79672
3.05672 11.2487
3.23527 15.2499
3.4138 19.379
3.59237 25.6649
3.77094 26.8404
3.9495 30.4997
4.12809 35.7865
4.30669 296.541
4.4853 74.9847
4.6639 56.3514
4.84253 67.9812
5.02118 88.3395
5.19981 422.101
5.37848 223.197
5.55716 104.817
5.73586 94.2689
5.91455 97.2064
6.09328 3874.58
6.27201 87.8796
6.45075 69.0105
6.62952 65.1522
6.8083 60.6759
6.98711 57.4143
7.16591 56.9486
7.34475 109.537
7.5236 55.9329
7.70247 57.7589
7.88135 58.9665
8.06026 63.4352
8.23919 71.1452
8.41812 87.7643
8.59709 1063.46
8.77609 104.228
8.9551 96.3836
9.13412 83.6627
9.31318 84.1721
9.49226 85.7915
9.67134 103.95
9.85047 102.342
10.0296 351.937
10.2088 504.072
10.388 108.13
10.5672 471.684
10.7465 89.0935
10.9257 80.8939
11.105 73.5244
11.2844 73.4911
11.4637 66.9188
11.6431 65.2566
11.8225 64.0221
12.002 64.8963
12.1814 141.835
12.3609 75.1976
12.5405 66.1188
12.72 72.7935
12.8996 72.4282
13.0792 80.364
13.2589 220.546
13.4386 138.645
13.6183 226.237
13.7981 106.205
13.9779 77.4208
14.1577 74.4942
14.3376 74.3696
14.5175 70.3348
14.6974 72.0247
14.8774 109.006
15.0574 166.227
15.2374 73.5325
15.4175 67.9858
15.5976 67.3489
15.7778 94.6841
15.958 171.688
16.1382 65.3731
16.3185 60.7567
16.4988 56.9872
16.6792 55.9809
16.8596 56.7769
17.04 57.0902
17.2205 66.7175
17.401 74.7924
17.5815 60.742
17.7622 62.4542
17.9428 75.2944
18.1237 137.231
18.3044 88.7317
18.4852 83.089
18.666 61.8891
18.8469 59.3672
19.0278 58.2955
19.2088 60.8307
19.3898 77.797
19.5709 55.6782
19.752 54.3255
19.9332 57.3433
20.1144 70.6176
20.2957 63.4769
20.477 55.8092
20.6586 50.7271
20.84 49.9848
21.0215 49.8412
21.203 51.6703
21.3846 50.2445
21.5662 49.7716
21.7479 53.3141
21.9297 65.4464
22.1115 56.8303
22.2933 51.2671
22.4753 50.0982
22.6572 49.9136
22.8393 52.6063
23.0214 59.1556
23.2037 50.1247
23.3859 50.8643
23.5682 56.8803
23.7505 49.9717
23.9329 46.3175
24.1154 45.0955
24.2979 44.4767
24.4805 43.8486
24.6631 43.9261
24.8458 43.2535
25.0286 43.6852
25.2114 45.5322
25.3943 45.7835
25.5773 41.9537
25.7605 41.2364
25.9436 41.7131
26.1268 42.7906
26.31 41.0652
26.4933 41.4696
26.6767 43.1249
26.8601 41.3636
27.0437 39.6541
27.2272 39.4544
27.4109 39.1407
27.5946 39.331
27.7784 38.611
27.9623 39.065
28.1462 39.7333
28.3304 38.1257
28.5145 36.7772
28.6987 36.5165
28.8829 36.2788
29.0673 35.5429
29.2517 35.0736
29.4361 34.8724
29.6207 34.0466
29.8053 33.6269
29.99 33.3223
30.1748 33.2073
30.3597 33.0091
30.5447 32.9137
30.7297 33.0115
30.915 32.2938
31.1002 31.7939
31.2855 31.6165
31.4708 31.549
31.6563 31.1377
31.8418 30.7633
32.0275 30.6878
32.2132 30.0491
32.399 29.5467
32.5848 29.1628
32.7708 28.8896
32.9569 28.7285
33.143 28.3802
33.3293 28.0723
33.5158 27.7069
33.7022 27.2223
33.8887 26.937
34.0753 26.6735
34.262 26.3167
34.4488 25.9085
34.6357 25.5951
34.8227 25.305
35.0098 25.0729
35.1969 24.7321
35.3842 24.463
35.5716 24.2844
35.759 24.0905
35.9468 23.6282
36.1345 23.4951
36.3222 23.1219
36.5101 22.9227
36.6981 22.6407
36.8861 22.2582
37.0743 21.9404
37.2626 21.7475
37.451 21.4295
37.6395 21.3665
37.8281 20.9374
38.0168 20.644
38.2056 20.3637
38.3945 20.1231
38.5837 19.9169
38.7728 19.7026
38.9621 19.4232
39.1514 19.147
39.3409 18.8586
39.5304 18.7001
39.7201 18.4441
39.9099 18.2473
40.0999 17.9882
40.2899 17.7944
40.48 17.4934
40.6703 17.3275
40.8607 17.1344
41.0512 16.9868
41.242 16.6334
41.4327 16.4135
41.6236 16.2286
41.8146 15.991
42.0057 15.8379
42.1969 15.6274
42.3882 15.3833
42.5797 15.1528
42.7713 14.9866
42.963 14.7823
43.1549 14.5487
43.3468 14.3437
43.5389 14.1451
43.7312 13.9327
43.9237 13.7705
44.1162 13.5376
44.3088 13.4151
44.5016 13.1891
44.6945 13.0091
44.8875 12.8615
45.0806 12.6553
45.2739 12.484
45.4673 12.3314
45.6609 12.0928
45.8546 11.9669
46.0484 11.8013
46.2424 11.6128
46.4365 11.4313
46.631 11.2805
46.8254 11.1287
47.0199 10.9746
47.2146 10.7808
47.4095 10.6234
47.6044 10.4702
47.7996 10.3172
47.9948 10.15
48.1902 10.0099
48.3858 9.89722
48.5815 9.74801
48.7774 9.63548
48.9734 9.50279
49.1696 9.27485
49.3661 9.18403
49.5626 9.03933
49.7592 8.90213
49.956 8.73911
50.153 8.64627
50.3501 8.51574
50.5474 8.38288
50.7448 8.23186
50.9424 8.12672
51.1402 7.99588
51.3381 7.84906
51.5362 7.74262
51.7344 7.59861
51.9328 7.48893
52.1316 7.32844
52.3304 7.21141
52.5293 7.12742
52.7284 6.98076
52.9276 6.87659
53.1271 6.79827
53.3267 6.66436
53.5265 6.54058
53.7264 6.39555
53.9266 6.26864
54.1269 6.20085
54.3274 6.07506
54.528 5.93578
54.7289 5.75704
54.9301 5.58243
55.1314 5.46181
55.3328 5.25839
55.5344 5.06989
55.7361 4.96182

File: Ni3Fe_FD0423.xy
TT I
1.27165 7.47344
1.45013 6.22317
1.62863 4.72769
1.80712 4.9207
1.98562 4.79552
2.16411 4.57783
2.34263 5.41616
2.52115 5.8554
2.69965 7.63625
2.87818 8.40589
3.05672 10.8424
3.23527 14.626
3.4138 19.3208
3.59237 24.7696
3.77094 26.7366
3.9495 30.1902
4.12809 35.8198
4.30669 301.455
4.4853 75.2042
4.6639 56.0285
4.84253 67.8474
5.02118 88.0587
5.19981 417.903
5.37848 223.327
5.55716 103.901
5.73586 94.0624
5.91455 96.5665
6.09328 3931.16
6.27201 87.4293
6.45075 69.1333
6.62952 65.0209
6.8083 60.6096
6.98711 57.3928
7.16591 57.2434
7.34475 110.832
7.5236 56.2698
7.70247 57.4384
7.88135 59.2251
8.06026 63.3729
8.23919 71.1843
8.41812 87.6004
8.59709 1054.65
8.77609 104.038
8.9551 96.1281
9.13412 82.983
9.31318 84.0191
9.49226 85.826
9.67134 104.582
9.85047 101.73
10.0296 349.146
10.2088 501.897
10.388 108.327
10.5672 471.932
10.7465 89.136
10.9257 80.9118
11.105 73.5778
11.2844 73.2618
11.4637 66.4735
11.6431 65.0608
11.8225 63.6234
12.002 65.1622
12.1814 141.895
12.3609 75.3654
12.5405 66.0136
12.72 73.2793
12.8996 72.3034
13.0792 80.1582
13.2589 219.25
13.4386 139.584
13.6183 225.119
13.7981 106.435
13.9779 77.3264
14.1577 74.517
14.3376 74.2342
14.5175 70.4175
14.6974 72.1355
14.8774 108.871
15.0574 167.671
15.2374 73.805
15.4175 67.8689
15.5976 67.0906
15.7778 94.1623
15.958 171.66
16.1382 65.369
16.3185 60.7358
16.4988 56.9915
16.6792 55.7344
16.8596 56.6566
17.04 57.0952
17.2205 66.7604
17.401 74.7972
17.5815 60.4929
17.7622 62.4967
17.9428 75.1338
18.1237 137.393
18.3044 88.8368
18.4852 83.0568
18.666 61.9995
18.8469 59.3871
19.0278 58.5118
19.2088 60.7232
19.3898 77.7805
19.5709 55.6068
19.752 54.4527
19.9332 57.2536
20.1144 70.8578
20.2957 63.5475
20.477 55.8729
20.6586 50.8259
20.84 49.7947
21.0215 49.673
21.203 51.6593
21.3846 50.4391
21.5662 49.8059
21.7479 53.4778
21.9297 65.5552
22.1115 56.957
22.2933 51.3972
22.4753 50.1338
22.6572 49.7394
22.8393 52.7294
23.0214 58.9544
23.2037 49.9397
23.3859 50.545
23.5682 57.0344
23.7505 50.0165
23.9329 46.3982
24.1154 45.2137
24.2979 44.3595
24.4805 43.8617
24.6631 43.9387
24.8458 43.1615
25.0286 43.5705
25.2114 45.6163
25.3943 45.9393
25.5773 42.039
25.7605 41.465
25.9436 41.7118
26.1268 42.6669
26.31 41.074
26.4933 41.5578
26.6767 43.0066
26.8601 41.4905
27.0437 39.8222
27.2272 39.4217
27.4109 39.3702
27.5946 39.2117
27.7784 38.6586
27.9623 39.0012
28.1462 39.7702
28.3304 38.1208
28.5145 36.8577
28.6987 36.4099
28.8829 36.1589
29.0673 35.4492
29.2517 34.9786
29.4361 34.8648
29.6207 33.8777
29.8053 33.6802
29.99 33.2408
30.1748 33.1435
30.3597 33.0316
30.5447 32.7596
30.7297 32.9314
30.915 32.3637
31.1002 31.7864
31.2855 31.57
31.4708 31.5682
31.6563 30.982
31.8418 30.6798
32.0275 30.6423
32.2132 30.0307
32.399 29.5928
32.5848 29.065
32.7708 28.8114
32.9569 28.6669
33.143 28.4178
33.3293 28.0239
33.5158 27.6459
33.7022 27.2469
33.8887 26.9479
34.0753 26.6603
34.262 26.2718
34.4488 25.8354
34.6357 25.5369
34.8227 25.3475
35.0098 25.0753
35.1969 24.6972
35.3842 24.5419
35.5716 24.3257
35.759 24.0489
35.9468 23.6532
36.1345 23.4014
36.3222 23.1582
36.5101 22.9456
36.6981 22.5999
36.8861 22.3749
37.0743 22.0623
37.2626 21.7583
37.451 21.4631
37.6395 21.2897
37.8281 20.9775
38.0168 20.6826
38.2056 20.4056
38.3945 20.1131
38.5837 19.9047
38.7728 19.6509
38.9621 19.3144
39.1514 19.2028
39.3409 18.8859
39.5304 18.6968
39.7201 18.5092
39.9099 18.2077
40.0999 18.0018
40.2899 17.7541
40.48 17.5083
40.6703 17.3751
40.8607 17.1274
41.0512 16.9277
41.242 16.6313
41.4327 16.4944
41.6236 16.2386
41.8146 16.0033
42.0057 15.7447
42.1969 15.554
42.3882 15.3569
42.5797 15.1722
42.7713 14.9833
42.963 14.7153
43.1549 14.5473
43.3468 14.3631
43.5389 14.1339
43.7312 13.9461
43.9237 13.787
44.1162 13.5952
44.3088 13.4073
44.5016 13.1978
44.6945 13.0161
44.8875 12.8688
45.0806 12.7007
45.2739 12.4953
45.4673 12.3217
45.6609 12.1255
45.8546 11.9939
46.0484 11.8087
46.2424 11.6469
46.4365 11.4613
46.631 11.2759
46.8254 11.0847
47.0199 10.9459
47.2146 10.8076
47.4095 10.6221
47.6044 10.4992
47.7996 10.2972
47.9948 10.1845
48.1902 10.0341
48.3858 9.90661
48.5815 9.74974
48.7774 9.64588
48.9734 9.47191
49.1696 9.31275
49.3661 9.12394
49.5626 9.04912
49.7592 8.90864
49.956 8.76538
50.153 8.66863
50.3501 8.50592
50.5474 8.37701
50.7448 8.22952
50.9424 8.10098
51.1402 8.00326
51.3381 7.83622
51.5362 7.76182
51.7344 7.57354
51.9328 7.45618
52.1316 7.31002
52.3304 7.21672
52.5293 7.09425
52.7284 7.02595
52.9276 6.86053
53.1271 6.79826
53.3267 6.70452
53.5265 6.535
53.7264 6.46818
53.9266 6.32359
54.1269 6.21341
54.3274 6.05052
54.528 5.90974
54.7289 5.78115
54.9301 5.62322
55.1314 5.45196
55.3328 5.32807
55.5344 5.0792
55.7361 4.90942

File: Ni3Fe_FD0424.xy
TT I
1.27165 7.59531
1.45013 6.25977
1.62863 4.98142
1.80712 4.86778
1.98562 4.41088
2.16411 5.26318
2.34263 5.25256
2.52115 5.87363
2.69965 7.43455
2.87818 8.11482
3.05672 11.4048
3.23527 15.2812
3.4138 19.2104
3.59237 25.3239
3.77094 26.7575
3.9495 30.33
4.12809 36.3147
4.30669 302.309
4.4853 75.3075
4.6639 56.2577
4.84253 67.8385
5.02118 88.5748
5.19981 417.456
5.37848 222.853
5.55716 104.272
5.73586 93.8965
5.91455 96.7961
6.09328 3909.09
6.27201 87.0079
6.45075 68.9346
6.62952 65.0904
6.8083 60.3504
6.98711 57.5196
7.16591 57.0927
7.34475 110.967
7.5236 56.3421
7.70247 57.5032
7.88135 59.1348
8.06026 63.5061
8.23919 70.5931
8.41812 87.9163
8.59709 1055.36
8.77609 104.368
8.9551 96.4167
9.13412 82.9684
9.31318 83.7801
9.49226 85.8404
9.67134 104.427
9.85047 101.584
10.0296 348.357
10.2088 501.239
10.388 107.737
10.5672 468.704
10.7465 88.9938
10.9257 81.1394
11.105 73.6425
11.2844 73.0781
11.4637 66.2632
11.6431 65.1207
11.8225 63.8789
12.002 64.7627
12.1814 142.206
12.3609 75.3785
12.5405 66.1354
12.72 73.0463
12.8996 72.3257
13.0792 80.1564
13.2589 219.039
13.4386 139.411
13.6183 224.856
13.7981 106.39
13.9779 77.0955
14.1577 74.462
14.3376 74.1823
14.5175 70.0984
14.6974 72.0388
14.8774 108.523
15.0574 168.486
15.2374 73.7477
15.4175 67.6308
15.5976 67.2363
15.7778 94.3019
15.958 171.238
16.1382 65.266
16.3185 60.4486
16.4988 56.7897
16.6792 55.7118
16.8596 56.6836
17.04 57.1737
17.2205 66.7571
17.401 74.861
17.5815 60.7373
17.7622 62.4968
17.9428 75.0828
18.1237 137.769
18.3044 88.9221
18.4852 83.0139
18.666 61.865
18.8469 59.1348
19.0278 58.2958
19.2088 60.926
19.3898 77.6883
19.5709 55.6449
19.752 54.4662
19.9332 57.3107
20.1144 70.7827
20.2957 63.5441
20.477 55.8268
20.6586 50.7758
20.84 49.9429
21.0215 49.6186
21.203 51.7142
21.3846 50.2964
21.5662 49.9103
21.7479 53.3106
21.9297 65.4712
22.1115 56.7285
22.2933 51.3731
22.4753 50.1102
22.6572 49.9618
22.8393 52.5841
23.0214 59.0953
23.2037 49.9633
23.3859 50.6445
23.5682 56.8805
23.7505 50.1128
23.9329 46.2231
24.1154 45.0188
24.2979 44.4687
24.4805 43.7361
24.6631 43.8503
24.8458 43.226
25.0286 43.6166
25.2114 45.4529
25.3943 45.7956
25.5773 42.0322
25.7605 41.4253
25.9436 41.6064
26.1268 42.6549
26.31 41.081
26.4933 41.6318
26.6767 43.0538
26.8601 41.441
27.0437 39.7708
27.2272 39.3445
27.4109 39.3074
27.5946 39.2143
27.7784 38.6965
27.9623 39.1408
28.1462 39.6432
28.3304 38.198
28.5145 36.8219
28.6987 36.4396
28.8829 36.2587
29.0673 35.4423
29.2517 35.0889
29.4361 34.88
29.6207 33.9045
29.8053 33.5705
29.99 33.299
30.1748 33.1776
30.3597 32.9672
30.5447 32.8579
30.7297 32.8868
30.915 32.349
31.1002 31.8558
31.2855 31.5871
31.4708 31.4378
31.6563 31.0802
31.8418 30.8401
32.0275 30.5032
32.2132 30.0565
32.399 29.5311
32.5848 29.1897
32.7708 28.7891
32.9569 28.644
33.143 28.4504
33.3293 28.0052
33.5158 27.6461
33.7022 27.2154
33.8887 26.9275
34.0753 26.5513
34.262 26.2416
34.4488 25.85
34.6357 25.5648
34.8227 25.2249
35.0098 25.011
35.1969 24.7413
35.3842 24.5711
35.5716 24.2852
35.759 23.9582
35.9468 23.6053
36.1345 23.4528
36.3222 23.1555
36.5101 22.909
36.6981 22.6291
36.8861 22.27
37.0743 22.0088
37.2626 21.7479
37.451 21.4418
37.6395 21.2567
37.8281 20.9617
38.0168 20.6995
38.2056 20.3817
38.3945 20.1043
38.5837 19.8104
38.7728 19.6365
38.9621 19.3748
39.1514 19.129
39.3409 18.8448
39.5304 18.6618
39.7201 18.4527
39.9099 18.2695
40.0999 17.9787
40.2899 17.7114
40.48 17.5023
40.6703 17.2588
40.8607 17.1416
41.0512 16.9518
41.242 16.6057
41.4327 16.3852
41.6236 16.2078
41.8146 16.0041
42.0057 15.8053
42.1969 15.5231
42.3882 15.4182
42.5797 15.1502
42.7713 14.9594
42.963 14.7633
43.1549 14.5367
43.3468 14.324
43.5389 14.1617
43.7312 13.9408
43.9237 13.8136
44.1162 13.5397
44.3088 13.4296
44.5016 13.1603
44.6945 13.0383
44.8875 12.8094
45.0806 12.6442
45.2739 12.4886
45.4673 12.3293
45.6609 12.108
45.8546 11.9607
46.0484 11.7912
46.2424 11.6113
46.4365 11.4798
46.631 11.2725
46.8254 11.0659
47.0199 10.9866
47.2146 10.8136
47.4095 10.6366
47.6044 10.4814
47.7996 10.3293
47.9948 10.1301
48.1902 10.0158
48.3858 9.83646
48.5815 9.74332
48.7774 9.61103
48.9734 9.4786
49.1696 9.34456
49.3661 9.15515
49.5626 9.0195
49.7592 8.91156
49.956 8.73368
50.153 8.61062
50.3501 8.46165
50.5474 8.39137
50.7448 8.25504
50.9424 8.09525
51.1402 7.99864
51.3381 7.8774
51.5362 7.71837
51.7344 7.58978
51.9328 7.45705
52.1316 7.31619
52.3304 7.26755
52.5293 7.13491
52.7284 7.00116
52.9276 6.87714
53.1271 6.80024
53.3267 6.66021
53.5265 6.53149
53.7264 6.40309
53.9266 6.35544
54.1269 6.13987
54.3274 6.10897
54.528 5.94098
54.7289 5.77232
54.9301 5.57422
55.1314 5.50581
55.3328 5.28954
55.5344 5.05853
55.7361 4.94755

File: Ni3Fe_FD0425.xy
TT I
1.27165 7.52978
1.45013 6.03243
1.62863 5.25197
1.80712 5.03614
1.98562 4.68176
2.16411 4.9221
2.34263 5.1523
2.52115 5.99498
2.69965 7.5784
2.87818 8.93128
3.05672 11.3346
3.23527 15.4147
3.4138 19.0637
3.59237 25.1623
3.77094 27.1211
3.9495 30.0841
4.12809 35.908
4.30669 304.881
4.4853 75.6838
4.6639 56.4974
4.84253 67.6729
5.02118 88.256
5.19981 418.768
5.37848 222.611
5.55716 104.64
5.73586 93.7275
5.91455 96.5232
6.09328 3904.66
6.27201 87.3464
6.45075 69.1179
6.62952 64.6918
6.8083 60.5511
6.98711 57.6084
7.16591 57.2059
7.34475 111.811
7.5236 56.4895
7.70247 57.6959
7.88135 59.2342
8.06026 63.3597
8.23919 70.7577
8.41812 87.6893
8.59709 1053.56
8.77609 104.106
8.9551 96.151
9.13412 83.6723
9.31318 84.1636
9.49226 85.8178
9.67134 104.864
9.85047 101.672
10.0296 348.213
10.2088 502.859
10.388 107.996
10.5672 467.92
10.7465 88.9524
10.9257 80.6218
11.105 73.5975
11.2844 73.1735
11.4637 66.2961
11.6431 65.0353
11.8225 63.9858
12.002 65.2745
12.1814 142.772
12.3609 75.4803
12.5405 66.1748
12.72 73.1013
12.8996 72.4061
13.0792 80.1928
13.2589 218.605
13.4386 140.01
13.6183 224.348
13.7981 106.38
13.9779 77.3876
14.1577 74.5232
14.3376 74.2212
14.5175 70.2467
14.6974 72.0933
14.8774 108.31
15.0574 169.182
15.2374 73.8682
15.4175 67.4704
15.5976 67.3302
15.7778 94.4376
15.958 171.973
16.1382 65.2677
16.3185 60.7371
16.4988 56.8277
16.6792 55.9182
16.8596 56.6616
17.04 57.0307
17.2205 66.6278
17.401 74.6991
17.5815 60.6277
17.7622 62.4768
17.9428 74.728
18.1237 137.795
18.3044 88.8272
18.4852 83.3099
18.666 61.7674
18.8469 59.2534
19.0278 58.311
19.2088 61.0069
19.3898 77.8272
19.5709 55.8158
19.752 54.3237
19.9332 57.3418
20.1144 70.4652
20.2957 63.6242
20.477 55.9443
20.6586 50.9058
20.84 49.8962
21.0215 49.7407
21.203 51.5511
21.3846 50.2019
21.5662 49.7611
21.7479 53.3698
21.9297 65.4987
22.1115 56.6951
22.2933 51.3608
22.4753 50.0276
22.6572 49.9095
22.8393 52.5004
23.0214 59.1019
23.2037 49.9048
23.3859 50.7475
23.5682 56.9385
23.7505 49.9391
23.9329 46.2482
24.1154 45.2162
24.2979 44.3402
24.4805 43.8549
24.6631 43.8589
24.8458 43.093
25.0286 43.6533
25.2114 45.5075
25.3943 45.8492
25.5773 41.8263
25.7605 41.4467
25.9436 41.5688
26.1268 42.7099
26.31 41.0777
26.4933 41.571
26.6767 42.9644
26.8601 41.4868
27.0437 39.7544
27.2272 39.4239
27.4109 39.1869
27.5946 39.2268
27.7784 38.6903
27.9623 39.0612
28.1462 39.7846
28.3304 38.2137
28.5145 36.7649
28.6987 36.453
28.8829 36.136
29.0673 35.59
29.2517 35.1151
29.4361 35.0153
29.6207 33.8721
29.8053 33.6722
29.99 33.3383
30.1748 33.1844
30.3597 33.0552
30.5447 32.8086
30.7297 32.9485
30.915 32.3492
31.1002 31.8431
31.2855 31.6418
31.4708 31.4793
31.6563 31.064
31.8418 30.7267
32.0275 30.6426
32.2132 30.0441
32.399 29.6527
32.5848 29.1539
32.7708 28.8126
32.9569 28.6377
33.143 28.4715
33.3293 28.0241
33.5158 27.7157
33.7022 27.2062
33.8887 27.0002
34.0753 26.5932
34.262 26.193
34.4488 25.8248
34.6357 25.5569
34.8227 25.2544
35.0098 25.0907
35.1969 24.7564
35.3842 24.5047
35.5716 24.3666
35.759 24.0402
35.9468 23.6351
36.1345 23.4197
36.3222 23.2038
36.5101 22.9082
36.6981 22.5468
36.8861 22.3024
37.0743 22.0152
37.2626 21.7799
37.451 21.4643
37.6395 21.275
37.8281 21.0209
38.0168 20.632
38.2056 20.4323
38.3945 20.1455
38.5837 19.9668
38.7728 19.6754
38.9621 19.4107
39.1514 19.1515
39.3409 18.976
39.5304 18.6684
39.7201 18.4465
39.9099 18.2494
40.0999 17.981
40.2899 17.7726
40.48 17.5426
40.6703 17.3253
40.8607 17.1121
41.0512 16.9187
41.242 16.6483
41.4327 16.448
41.6236 16.2174
41.8146 15.9952
42.0057 15.7785
42.1969 15.5961
42.3882 15.4231
42.5797 15.1545
42.7713 14.9339
42.963 14.7546
43.1549 14.5309
43.3468 14.3326
43.5389 14.1196
43.7312 13.9153
43.9237 13.7712
44.1162 13.5479
44.3088 13.3286
44.5016 13.2019
44.6945 13.0508
44.8875 12.8653
45.0806 12.6145
45.2739 12.4616
45.4673 12.3005
45.6609 12.171
45.8546 11.9579
46.0484 11.7778
46.2424 11.6203
46.4365 11.4608
46.631 11.2659
46.8254 11.087
47.0199 10.91
47.2146 10.8201
47.4095 10.6242
47.6044 10.4719
47.7996 10.361
47.9948 10.1466
48.1902 10.04
48.3858 9.86991
48.5815 9.7643
48.7774 9.61923
48.9734 9.44338
49.1696 9.32088
49.3661 9.15422
49.5626 8.96426
49.7592 8.88471
49.956 8.7795
50.153 8.63278
50.3501 8.496
50.5474 8.36309
50.7448 8.25554
50.9424 8.12125
51.1402 7.98492
51.3381 7.88161
51.5362 7.70837
51.7344 7.59071
51.9328 7.44911
52.1316 7.3553
52.3304 7.246
52.5293 7.13092
52.7284 6.97322
52.9276 6.85179
53.1271 6.77605
53.3267 6.64299
53.5265 6.52926
53.7264 6.42337
53.9266 6.29581
54.1269 6.14667
54.3274 6.13245
54.528 5.94185
54.7289 5.83132
54.9301 5.61694
55.1314 5.44199
55.3328 5.29204
55.5344 5.0405
55.7361 4.94707