Folder: NiFe_MOF_catalyst_paper/XRD (part 65)

File: Ni3Fe_FD0338.xy
TT I
1.27165 7.12784
1.45013 6.79977
1.62863 5.55426
1.80712 5.2156
1.98562 5.09961
2.16411 4.82773
2.34263 5.00542
2.52115 6.14008
2.69965 7.27415
2.87818 7.95793
3.05672 11.4667
3.23527 14.8534
3.4138 18.8564
3.59237 23.6685
3.77094 26.7049
3.9495 29.907
4.12809 35.3899
4.30669 152.03
4.4853 60.2851
4.6639 56.9087
4.84253 70.0554
5.02118 91.6343
5.19981 579.104
5.37848 226.569
5.55716 106.408
5.73586 96.0533
5.91455 101.64
6.09328 4081.48
6.27201 86.345
6.45075 69.7517
6.62952 64.198
6.8083 60.0706
6.98711 57.2153
7.16591 56.551
7.34475 80.0716
7.5236 55.7568
7.70247 57.593
7.88135 59.1461
8.06026 63.9695
8.23919 72.02
8.41812 88.7116
8.59709 1168.65
8.77609 104.656
8.9551 92.0237
9.13412 84.5928
9.31318 85.9367
9.49226 87.7435
9.67134 98.5192
9.85047 103.77
10.0296 432.617
10.2088 485.751
10.388 109.787
10.5672 482.414
10.7465 89.7018
10.9257 80.2535
11.105 74.0679
11.2844 71.6505
11.4637 66.8796
11.6431 65.2464
11.8225 64.2421
12.002 66.3009
12.1814 149.339
12.3609 71.5072
12.5405 66.4634
12.72 70.9251
12.8996 73.5436
13.0792 82.6935
13.2589 244.984
13.4386 133.251
13.6183 242.538
13.7981 102.676
13.9779 78.2132
14.1577 74.3117
14.3376 73.3944
14.5175 71.0366
14.6974 72.8852
14.8774 119.16
15.0574 155.834
15.2374 72.5117
15.4175 68.5405
15.5976 68.1363
15.7778 102.596
15.958 165.055
16.1382 63.9518
16.3185 59.9167
16.4988 57.1514
16.6792 56.092
16.8596 56.6874
17.04 57.8534
17.2205 68.9226
17.401 74.2915
17.5815 61.0603
17.7622 63.3162
17.9428 78.941
18.1237 139.904
18.3044 91.5703
18.4852 80.3375
18.666 62.1919
18.8469 59.6336
19.0278 58.4446
19.2088 62.0122
19.3898 77.1306
19.5709 55.9415
19.752 55.049
19.9332 58.3273
20.1144 71.3654
20.2957 64.4395
20.477 55.5307
20.6586 51.1453
20.84 50.4563
21.0215 50.2691
21.203 52.0006
21.3846 50.7386
21.5662 50.5583
21.7479 54.6232
21.9297 66.2674
22.1115 57.4149
22.2933 51.5635
22.4753 50.3404
22.6572 50.5478
22.8393 53.6301
23.0214 59.0474
23.2037 50.276
23.3859 51.7055
23.5682 57.6039
23.7505 49.7774
23.9329 46.7087
24.1154 45.342
24.2979 44.7673
24.4805 44.2372
24.6631 44.1933
24.8458 43.4259
25.0286 44.1709
25.2114 45.9614
25.3943 45.9916
25.5773 42.0891
25.7605 41.7428
25.9436 42.1265
26.1268 42.9034
26.31 41.454
26.4933 42.0122
26.6767 43.4062
26.8601 41.7015
27.0437 40.0712
27.2272 39.6235
27.4109 39.5436
27.5946 39.5653
27.7784 39.1278
27.9623 39.496
28.1462 40.1077
28.3304 38.2357
28.5145 37.0948
28.6987 36.6845
28.8829 36.4425
29.0673 35.6903
29.2517 35.2696
29.4361 35.1394
29.6207 34.1816
29.8053 33.8304
29.99 33.6355
30.1748 33.3882
30.3597 33.2393
30.5447 33.0793
30.7297 33.234
30.915 32.5626
31.1002 32.0623
31.2855 31.8109
31.4708 31.6549
31.6563 31.2386
31.8418 31.1096
32.0275 30.8111
32.2132 30.2447
32.399 29.7885
32.5848 29.3058
32.7708 29.0609
32.9569 28.8024
33.143 28.617
33.3293 28.1941
33.5158 27.7945
33.7022 27.417
33.8887 27.1572
34.0753 26.7601
34.262 26.4387
34.4488 25.9628
34.6357 25.688
34.8227 25.3884
35.0098 25.2175
35.1969 24.9521
35.3842 24.715
35.5716 24.5113
35.759 24.192
35.9468 23.7844
36.1345 23.5599
36.3222 23.3622
36.5101 23.0762
36.6981 22.7314
36.8861 22.49
37.0743 22.1079
37.2626 21.8127
37.451 21.6265
37.6395 21.405
37.8281 21.1261
38.0168 20.7522
38.2056 20.5838
38.3945 20.3079
38.5837 20.0356
38.7728 19.8152
38.9621 19.4676
39.1514 19.272
39.3409 18.9482
39.5304 18.7879
39.7201 18.5316
39.9099 18.3606
40.0999 18.0766
40.2899 17.9212
40.48 17.6099
40.6703 17.428
40.8607 17.2192
41.0512 17.0006
41.242 16.7293
41.4327 16.5002
41.6236 16.3014
41.8146 16.1284
42.0057 15.8873
42.1969 15.6041
42.3882 15.4632
42.5797 15.2778
42.7713 15.0521
42.963 14.8448
43.1549 14.6638
43.3468 14.4513
43.5389 14.2197
43.7312 14.0337
43.9237 13.8175
44.1162 13.6152
44.3088 13.4694
44.5016 13.2504
44.6945 13.0866
44.8875 12.9063
45.0806 12.7336
45.2739 12.5568
45.4673 12.3623
45.6609 12.1726
45.8546 12.0523
46.0484 11.8458
46.2424 11.6456
46.4365 11.5232
46.631 11.3487
46.8254 11.1585
47.0199 11.0092
47.2146 10.8334
47.4095 10.6711
47.6044 10.5288
47.7996 10.3624
47.9948 10.1972
48.1902 10.0462
48.3858 9.95278
48.5815 9.79535
48.7774 9.67854
48.9734 9.51248
49.1696 9.35186
49.3661 9.25285
49.5626 9.05289
49.7592 8.97508
49.956 8.81679
50.153 8.68835
50.3501 8.51899
50.5474 8.41675
50.7448 8.31088
50.9424 8.15813
51.1402 8.02244
51.3381 7.88906
51.5362 7.76769
51.7344 7.64781
51.9328 7.50156
52.1316 7.40453
52.3304 7.27964
52.5293 7.1255
52.7284 7.06203
52.9276 6.96492
53.1271 6.76567
53.3267 6.68097
53.5265 6.58103
53.7264 6.43635
53.9266 6.33479
54.1269 6.23175
54.3274 6.14832
54.528 5.95758
54.7289 5.75324
54.9301 5.59428
55.1314 5.53974
55.3328 5.27721
55.5344 5.09726
55.7361 4.96895

File: Ni3Fe_FD0339.xy
TT I
1.27165 8.03636
1.45013 6.3668
1.62863 5.3441
1.80712 4.84171
1.98562 4.62386
2.16411 4.77535
2.34263 4.45802
2.52115 5.55472
2.69965 6.83498
2.87818 8.94809
3.05672 11.5623
3.23527 14.9041
3.4138 18.6736
3.59237 23.6677
3.77094 26.2859
3.9495 30.2246
4.12809 34.9971
4.30669 151.017
4.4853 59.6608
4.6639 57.0453
4.84253 70.0489
5.02118 92.0588
5.19981 577.501
5.37848 225.685
5.55716 106.77
5.73586 96.4209
5.91455 101.583
6.09328 4079.99
6.27201 85.9579
6.45075 69.2865
6.62952 63.7118
6.8083 59.8997
6.98711 57.132
7.16591 56.6865
7.34475 79.5197
7.5236 55.7117
7.70247 57.7052
7.88135 59.4954
8.06026 64.1758
8.23919 71.3452
8.41812 88.1704
8.59709 1167.66
8.77609 104.226
8.9551 92.1551
9.13412 84.4679
9.31318 85.7699
9.49226 87.2684
9.67134 98.3265
9.85047 103.526
10.0296 432.281
10.2088 490.019
10.388 109.725
10.5672 484.873
10.7465 89.42
10.9257 80.1138
11.105 73.9407
11.2844 71.3994
11.4637 66.5684
11.6431 65.3233
11.8225 64.1228
12.002 66.08
12.1814 149.47
12.3609 71.1974
12.5405 66.2012
12.72 70.7295
12.8996 73.2241
13.0792 82.5192
13.2589 244.988
13.4386 133.511
13.6183 242.344
13.7981 102.889
13.9779 78.2736
14.1577 74.3753
14.3376 72.9106
14.5175 71.0323
14.6974 72.8692
14.8774 118.975
15.0574 156.073
15.2374 72.347
15.4175 68.3603
15.5976 68.1522
15.7778 102.485
15.958 165.35
16.1382 64.0656
16.3185 60.0352
16.4988 56.7927
16.6792 55.8723
16.8596 56.5346
17.04 57.8876
17.2205 69.136
17.401 74.03
17.5815 61.0219
17.7622 63.422
17.9428 78.8762
18.1237 140.009
18.3044 91.5759
18.4852 80.0647
18.666 62.2763
18.8469 59.7301
19.0278 58.6091
19.2088 61.6804
19.3898 77.2211
19.5709 55.8222
19.752 54.9652
19.9332 58.5387
20.1144 71.4798
20.2957 64.5118
20.477 55.2234
20.6586 51.1811
20.84 50.2663
21.0215 50.075
21.203 52.0924
21.3846 50.5898
21.5662 50.546
21.7479 54.834
21.9297 66.2773
22.1115 57.2829
22.2933 51.349
22.4753 50.3316
22.6572 50.57
22.8393 53.8199
23.0214 59.192
23.2037 50.3745
23.3859 51.6773
23.5682 57.6762
23.7505 50.0115
23.9329 46.4689
24.1154 45.3835
24.2979 44.7182
24.4805 44.257
24.6631 44.0333
24.8458 43.5621
25.0286 44.313
25.2114 46.0259
25.3943 46.0028
25.5773 42.2797
25.7605 41.7974
25.9436 42.0388
26.1268 42.9664
26.31 41.4205
26.4933 41.9766
26.6767 43.3586
26.8601 41.6961
27.0437 40.067
27.2272 39.741
27.4109 39.5413
27.5946 39.71
27.7784 38.9917
27.9623 39.4621
28.1462 40.0063
28.3304 38.2037
28.5145 36.9759
28.6987 36.7534
28.8829 36.4415
29.0673 35.6511
29.2517 35.3343
29.4361 35.1517
29.6207 34.0861
29.8053 33.8793
29.99 33.5195
30.1748 33.358
30.3597 33.2301
30.5447 33.1601
30.7297 33.1202
30.915 32.6282
31.1002 32.0308
31.2855 31.7553
31.4708 31.6249
31.6563 31.2949
31.8418 31.1245
32.0275 30.7116
32.2132 30.2802
32.399 29.7412
32.5848 29.3642
32.7708 29.0705
32.9569 28.8289
33.143 28.6036
33.3293 28.2235
33.5158 27.814
33.7022 27.2866
33.8887 27.0539
34.0753 26.6945
34.262 26.3925
34.4488 26.0126
34.6357 25.6928
34.8227 25.443
35.0098 25.1492
35.1969 24.9216
35.3842 24.6792
35.5716 24.4263
35.759 24.1781
35.9468 23.7618
36.1345 23.5435
36.3222 23.3078
36.5101 23.0962
36.6981 22.7423
36.8861 22.3696
37.0743 22.0564
37.2626 21.893
37.451 21.5977
37.6395 21.4874
37.8281 21.0611
38.0168 20.8263
38.2056 20.4534
38.3945 20.2692
38.5837 19.9827
38.7728 19.7888
38.9621 19.4419
39.1514 19.1933
39.3409 19.0202
39.5304 18.7702
39.7201 18.5277
39.9099 18.3243
40.0999 18.0656
40.2899 17.8491
40.48 17.5457
40.6703 17.3712
40.8607 17.2463
41.0512 16.9827
41.242 16.7326
41.4327 16.5615
41.6236 16.2371
41.8146 16.1408
42.0057 15.8378
42.1969 15.6298
42.3882 15.4858
42.5797 15.2793
42.7713 15.0646
42.963 14.7974
43.1549 14.587
43.3468 14.4251
43.5389 14.2089
43.7312 14.0103
43.9237 13.8448
44.1162 13.6218
44.3088 13.4111
44.5016 13.2506
44.6945 13.1004
44.8875 12.8937
45.0806 12.6891
45.2739 12.5474
45.4673 12.3821
45.6609 12.1686
45.8546 11.9996
46.0484 11.8365
46.2424 11.6825
46.4365 11.4624
46.631 11.3444
46.8254 11.1252
47.0199 10.9647
47.2146 10.8586
47.4095 10.6445
47.6044 10.5015
47.7996 10.3471
47.9948 10.2311
48.1902 10.0313
48.3858 9.91126
48.5815 9.77131
48.7774 9.65965
48.9734 9.49499
49.1696 9.35092
49.3661 9.18183
49.5626 9.05793
49.7592 8.92921
49.956 8.81139
50.153 8.67853
50.3501 8.52388
50.5474 8.4244
50.7448 8.29105
50.9424 8.13286
51.1402 8.04862
51.3381 7.89653
51.5362 7.79324
51.7344 7.64232
51.9328 7.50451
52.1316 7.34654
52.3304 7.28321
52.5293 7.14289
52.7284 7.01433
52.9276 6.89052
53.1271 6.78141
53.3267 6.63289
53.5265 6.51703
53.7264 6.4798
53.9266 6.34352
54.1269 6.25164
54.3274 6.06399
54.528 5.92102
54.7289 5.7977
54.9301 5.56999
55.1314 5.52397
55.3328 5.30521
55.5344 5.11343
55.7361 4.89085

File: Ni3Fe_FD0340.xy
TT I
1.27165 7.68889
1.45013 6.05578
1.62863 5.12867
1.80712 4.79885
1.98562 4.64447
2.16411 4.51074
2.34263 4.62259
2.52115 6.09751
2.69965 7.39328
2.87818 8.09572
3.05672 10.7069
3.23527 15.012
3.4138 18.9364
3.59237 24.0876
3.77094 26.5967
3.9495 30.6737
4.12809 35.5035
4.30669 149.077
4.4853 59.8019
4.6639 57.1147
4.84253 69.5999
5.02118 91.8216
5.19981 583.175
5.37848 225.629
5.55716 106.925
5.73586 96.5303
5.91455 101.332
6.09328 4072.64
6.27201 86.2358
6.45075 69.518
6.62952 64.061
6.8083 59.895
6.98711 57.1906
7.16591 56.4527
7.34475 79.546
7.5236 55.8964
7.70247 57.5713
7.88135 59.1797
8.06026 63.857
8.23919 71.8374
8.41812 88.5805
8.59709 1170.96
8.77609 104.274
8.9551 92.0991
9.13412 84.5341
9.31318 85.8022
9.49226 87.2243
9.67134 98.7078
9.85047 103.841
10.0296 434.565
10.2088 484.68
10.388 110.138
10.5672 484.915
10.7465 89.4846
10.9257 80.0315
11.105 73.9911
11.2844 71.5021
11.4637 66.5417
11.6431 65.483
11.8225 64.1811
12.002 66.1891
12.1814 149.889
12.3609 71.1723
12.5405 66.2021
12.72 70.9431
12.8996 73.2356
13.0792 83.176
13.2589 245.519
13.4386 133.327
13.6183 243.014
13.7981 102.645
13.9779 78.1975
14.1577 74.2911
14.3376 73.0304
14.5175 70.9547
14.6974 72.7139
14.8774 119.25
15.0574 155.877
15.2374 72.1514
15.4175 68.5937
15.5976 67.913
15.7778 102.286
15.958 165.02
16.1382 63.916
16.3185 59.9399
16.4988 57.1214
16.6792 55.9587
16.8596 56.76
17.04 57.8132
17.2205 69.0062
17.401 73.8317
17.5815 61.154
17.7622 63.2578
17.9428 78.8145
18.1237 140.203
18.3044 91.8229
18.4852 80.3062
18.666 62.1674
18.8469 59.817
19.0278 58.5916
19.2088 62.0682
19.3898 77.1452
19.5709 55.9572
19.752 54.9672
19.9332 58.5569
20.1144 71.3579
20.2957 64.3481
20.477 55.4394
20.6586 51.3121
20.84 50.3743
21.0215 50.0877
21.203 52.1299
21.3846 50.657
21.5662 50.5436
21.7479 54.7316
21.9297 66.2665
22.1115 57.4138
22.2933 51.5396
22.4753 50.1534
22.6572 50.7544
22.8393 53.7039
23.0214 58.9624
23.2037 50.5606
23.3859 51.6206
23.5682 57.6658
23.7505 49.8718
23.9329 46.5646
24.1154 45.4146
24.2979 44.7962
24.4805 44.3452
24.6631 44.2701
24.8458 43.5262
25.0286 44.2612
25.2114 45.9095
25.3943 46.0046
25.5773 42.1017
25.7605 41.7905
25.9436 42.1036
26.1268 42.7584
26.31 41.4155
26.4933 42.0392
26.6767 43.358
26.8601 41.6928
27.0437 40.0789
27.2272 39.6068
27.4109 39.5365
27.5946 39.6126
27.7784 39.0254
27.9623 39.628
28.1462 39.9832
28.3304 38.4136
28.5145 36.9073
28.6987 36.6119
28.8829 36.4266
29.0673 35.7676
29.2517 35.2441
29.4361 35.1141
29.6207 34.0953
29.8053 33.881
29.99 33.4194
30.1748 33.4042
30.3597 33.2773
30.5447 33.0344
30.7297 33.2479
30.915 32.4904
31.1002 32.034
31.2855 31.7608
31.4708 31.7258
31.6563 31.3793
31.8418 31.0635
32.0275 30.7535
32.2132 30.2345
32.399 29.7442
32.5848 29.3495
32.7708 28.9456
32.9569 28.8407
33.143 28.6018
33.3293 28.1528
33.5158 27.7903
33.7022 27.419
33.8887 27.0285
34.0753 26.7508
34.262 26.352
34.4488 26.051
34.6357 25.6631
34.8227 25.4628
35.0098 25.2177
35.1969 24.9022
35.3842 24.7437
35.5716 24.5171
35.759 24.1292
35.9468 23.7766
36.1345 23.5707
36.3222 23.317
36.5101 23.0421
36.6981 22.7414
36.8861 22.4402
37.0743 22.0776
37.2626 21.9133
37.451 21.5757
37.6395 21.4025
37.8281 21.0859
38.0168 20.8378
38.2056 20.536
38.3945 20.1982
38.5837 20.0178
38.7728 19.7703
38.9621 19.4721
39.1514 19.2428
39.3409 18.996
39.5304 18.8454
39.7201 18.6018
39.9099 18.3067
40.0999 18.1212
40.2899 17.8883
40.48 17.6418
40.6703 17.4643
40.8607 17.2114
41.0512 17.0478
41.242 16.6713
41.4327 16.5513
41.6236 16.2906
41.8146 16.11
42.0057 15.8479
42.1969 15.6727
42.3882 15.4168
42.5797 15.2261
42.7713 15.0133
42.963 14.8241
43.1549 14.6308
43.3468 14.3949
43.5389 14.2245
43.7312 13.9873
43.9237 13.8296
44.1162 13.6883
44.3088 13.4491
44.5016 13.2304
44.6945 13.0744
44.8875 12.9347
45.0806 12.7276
45.2739 12.5531
45.4673 12.3452
45.6609 12.1687
45.8546 12.038
46.0484 11.8694
46.2424 11.675
46.4365 11.5161
46.631 11.3224
46.8254 11.1977
47.0199 11.0131
47.2146 10.8382
47.4095 10.6554
47.6044 10.5182
47.7996 10.3623
47.9948 10.2433
48.1902 10.0469
48.3858 9.94855
48.5815 9.84667
48.7774 9.6401
48.9734 9.54008
49.1696 9.3524
49.3661 9.19858
49.5626 9.06527
49.7592 8.94083
49.956 8.79992
50.153 8.62898
50.3501 8.56026
50.5474 8.42268
50.7448 8.26338
50.9424 8.16134
51.1402 8.03409
51.3381 7.85239
51.5362 7.77556
51.7344 7.61291
51.9328 7.47952
52.1316 7.35301
52.3304 7.27483
52.5293 7.11595
52.7284 7.03307
52.9276 6.87562
53.1271 6.78791
53.3267 6.69969
53.5265 6.54857
53.7264 6.4316
53.9266 6.30734
54.1269 6.26079
54.3274 6.09713
54.528 5.9509
54.7289 5.83956
54.9301 5.65474
55.1314 5.51187
55.3328 5.27147
55.5344 5.10776
55.7361 4.94928

File: Ni3Fe_FD0342.xy
TT I
1.27165 8.06915
1.45013 5.99645
1.62863 5.83423
1.80712 4.89396
1.98562 5.0319
2.16411 4.26653
2.34263 5.14559
2.52115 6.52437
2.69965 7.065
2.87818 8.37266
3.05672 11.0219
3.23527 15.334
3.4138 19.1524
3.59237 23.5507
3.77094 26.6539
3.9495 30.2741
4.12809 34.9332
4.30669 145.501
4.4853 59.0052
4.6639 57.2249
4.84253 69.6063
5.02118 91.8128
5.19981 587.03
5.37848 226.362
5.55716 106.626
5.73586 95.949
5.91455 101.563
6.09328 4036.39
6.27201 86.2325
6.45075 69.2864
6.62952 63.8845
6.8083 59.622
6.98711 56.9587
7.16591 56.9271
7.34475 77.8748
7.5236 56.0282
7.70247 57.648
7.88135 59.3038
8.06026 63.9615
8.23919 71.4201
8.41812 88.4407
8.59709 1170.55
8.77609 104.682
8.9551 91.9808
9.13412 84.6878
9.31318 85.4859
9.49226 87.2677
9.67134 98.5294
9.85047 103.486
10.0296 435.916
10.2088 481.048
10.388 109.779
10.5672 486.956
10.7465 89.5801
10.9257 80.0368
11.105 73.4531
11.2844 71.0978
11.4637 66.5133
11.6431 65.2192
11.8225 64.1839
12.002 66.3635
12.1814 149.587
12.3609 70.9246
12.5405 66.4685
12.72 70.7116
12.8996 73.3177
13.0792 82.8647
13.2589 245.847
13.4386 132.946
13.6183 243.086
13.7981 102.392
13.9779 78.2487
14.1577 74.4295
14.3376 72.7208
14.5175 70.7782
14.6974 72.8644
14.8774 119.354
15.0574 155.277
15.2374 72.1384
15.4175 68.3058
15.5976 68.2494
15.7778 102.645
15.958 163.917
16.1382 63.7366
16.3185 59.9913
16.4988 57.1345
16.6792 56.0619
16.8596 56.4882
17.04 57.7443
17.2205 69.0884
17.401 73.9405
17.5815 61.0358
17.7622 63.2281
17.9428 78.8872
18.1237 140.039
18.3044 91.7154
18.4852 80.3993
18.666 62.2451
18.8469 59.795
19.0278 58.5041
19.2088 61.9908
19.3898 76.945
19.5709 55.7735
19.752 55.0649
19.9332 58.4367
20.1144 71.346
20.2957 64.3643
20.477 55.3386
20.6586 51.2448
20.84 50.3223
21.0215 50.0442
21.203 51.9226
21.3846 50.5638
21.5662 50.8099
21.7479 54.7062
21.9297 66.3345
22.1115 57.1993
22.2933 51.4328
22.4753 50.0875
22.6572 50.6682
22.8393 53.7776
23.0214 59.0094
23.2037 50.3943
23.3859 51.6015
23.5682 57.6147
23.7505 49.8977
23.9329 46.574
24.1154 45.3498
24.2979 44.672
24.4805 44.1831
24.6631 44.1674
24.8458 43.5626
25.0286 44.2705
25.2114 45.9077
25.3943 46.0236
25.5773 42.1188
25.7605 41.6806
25.9436 42.0792
26.1268 42.7497
26.31 41.3642
26.4933 42.0314
26.6767 43.3601
26.8601 41.7531
27.0437 40.136
27.2272 39.6872
27.4109 39.5008
27.5946 39.4476
27.7784 39.0062
27.9623 39.4046
28.1462 39.9259
28.3304 38.2603
28.5145 37.0082
28.6987 36.6084
28.8829 36.4383
29.0673 35.7538
29.2517 35.2851
29.4361 35.0588
29.6207 34.0325
29.8053 33.8421
29.99 33.5297
30.1748 33.4299
30.3597 33.285
30.5447 33.0887
30.7297 33.1183
30.915 32.4868
31.1002 32.0738
31.2855 31.8629
31.4708 31.7251
31.6563 31.2088
31.8418 30.9052
32.0275 30.8025
32.2132 30.2538
32.399 29.7264
32.5848 29.4073
32.7708 29.0087
32.9569 28.7536
33.143 28.5211
33.3293 28.2395
33.5158 27.8536
33.7022 27.322
33.8887 27.1068
34.0753 26.7395
34.262 26.4165
34.4488 26.0352
34.6357 25.6805
34.8227 25.4627
35.0098 25.1917
35.1969 24.8822
35.3842 24.6608
35.5716 24.4944
35.759 24.0984
35.9468 23.723
36.1345 23.5091
36.3222 23.2646
36.5101 23.1203
36.6981 22.7077
36.8861 22.3857
37.0743 22.1241
37.2626 21.8494
37.451 21.5382
37.6395 21.4667
37.8281 21.0313
38.0168 20.7072
38.2056 20.5318
38.3945 20.1881
38.5837 19.9978
38.7728 19.7657
38.9621 19.4571
39.1514 19.2149
39.3409 18.9979
39.5304 18.7454
39.7201 18.5351
39.9099 18.3653
40.0999 18.1278
40.2899 17.8586
40.48 17.6002
40.6703 17.3933
40.8607 17.2175
41.0512 16.9673
41.242 16.7521
41.4327 16.5455
41.6236 16.2842
41.8146 16.1439
42.0057 15.865
42.1969 15.61
42.3882 15.459
42.5797 15.2166
42.7713 15.0507
42.963 14.8744
43.1549 14.59
43.3468 14.3803
43.5389 14.2062
43.7312 14.0141
43.9237 13.7742
44.1162 13.6134
44.3088 13.4179
44.5016 13.2086
44.6945 13.0728
44.8875 12.9373
45.0806 12.659
45.2739 12.5366
45.4673 12.3722
45.6609 12.1553
45.8546 11.9954
46.0484 11.8209
46.2424 11.6653
46.4365 11.5419
46.631 11.304
46.8254 11.0977
47.0199 11.0191
47.2146 10.8228
47.4095 10.6891
47.6044 10.4796
47.7996 10.352
47.9948 10.2288
48.1902 10.0629
48.3858 9.88725
48.5815 9.82001
48.7774 9.63691
48.9734 9.51241
49.1696 9.34094
49.3661 9.17786
49.5626 9.0538
49.7592 8.9359
49.956 8.81069
50.153 8.65763
50.3501 8.51609
50.5474 8.40318
50.7448 8.28824
50.9424 8.14449
51.1402 8.04806
51.3381 7.86582
51.5362 7.75348
51.7344 7.61182
51.9328 7.50596
52.1316 7.38069
52.3304 7.28119
52.5293 7.12209
52.7284 7.06409
52.9276 6.9009
53.1271 6.78254
53.3267 6.67716
53.5265 6.5559
53.7264 6.43718
53.9266 6.30652
54.1269 6.24575
54.3274 6.07638
54.528 5.91958
54.7289 5.77505
54.9301 5.62658
55.1314 5.53297
55.3328 5.25834
55.5344 5.09802
55.7361 4.90956

File: Ni3Fe_FD0343.xy
TT I
1.27165 8.04941
1.45013 6.69493
1.62863 5.18848
1.80712 5.20928
1.98562 4.96397
2.16411 4.95038
2.34263 5.12505
2.52115 5.8765
2.69965 7.77821
2.87818 9.18778
3.05672 11.0131
3.23527 14.7893
3.4138 19.2869
3.59237 23.5328
3.77094 26.1853
3.9495 30.2902
4.12809 35.5863
4.30669 142.987
4.4853 59.0826
4.6639 57.2998
4.84253 69.6536
5.02118 91.9261
5.19981 589.709
5.37848 227.325
5.55716 106.706
5.73586 96.7326
5.91455 101.639
6.09328 4044.11
6.27201 85.949
6.45075 69.5519
6.62952 63.8472
6.8083 59.527
6.98711 56.7818
7.16591 56.6077
7.34475 77.2666
7.5236 55.5863
7.70247 57.3855
7.88135 59.4494
8.06026 64.1876
8.23919 72.0877
8.41812 88.3524
8.59709 1174.06
8.77609 104.349
8.9551 91.7806
9.13412 84.568
9.31318 86.0102
9.49226 87.3667
9.67134 98.2566
9.85047 103.809
10.0296 437.74
10.2088 478.731
10.388 110.241
10.5672 486.949
10.7465 89.4852
10.9257 80.2011
11.105 73.5701
11.2844 71.2188
11.4637 66.5359
11.6431 65.2211
11.8225 64.257
12.002 66.3205
12.1814 149.978
12.3609 70.8451
12.5405 66.0878
12.72 70.6264
12.8996 73.0616
13.0792 82.9091
13.2589 246.65
13.4386 132.966
13.6183 244.133
13.7981 102.557
13.9779 78.0604
14.1577 74.2191
14.3376 72.9024
14.5175 71.1358
14.6974 72.8539
14.8774 119.693
15.0574 155.242
15.2374 72.1607
15.4175 68.373
15.5976 68.1928
15.7778 102.842
15.958 163.821
16.1382 63.8539
16.3185 59.9373
16.4988 57.0844
16.6792 56.0943
16.8596 56.6644
17.04 57.9999
17.2205 69.0634
17.401 73.912
17.5815 61.2128
17.7622 63.3141
17.9428 78.8953
18.1237 139.669
18.3044 91.9635
18.4852 80.113
18.666 62.1934
18.8469 59.7375
19.0278 58.5734
19.2088 61.9393
19.3898 76.8396
19.5709 55.9162
19.752 55.0158
19.9332 58.5179
20.1144 71.32
20.2957 64.3952
20.477 55.1749
20.6586 51.1134
20.84 50.2586
21.0215 50.1592
21.203 51.8534
21.3846 50.5897
21.5662 50.6724
21.7479 54.6728
21.9297 66.1936
22.1115 57.1567
22.2933 51.4998
22.4753 50.1729
22.6572 50.5894
22.8393 53.6964
23.0214 58.934
23.2037 50.46
23.3859 51.5051
23.5682 57.6999
23.7505 49.8092
23.9329 46.618
24.1154 45.5063
24.2979 44.8002
24.4805 44.2106
24.6631 44.0483
24.8458 43.6127
25.0286 44.2999
25.2114 46.0386
25.3943 45.8855
25.5773 42.144
25.7605 41.752
25.9436 42.176
26.1268 42.858
26.31 41.3408
26.4933 41.985
26.6767 43.3138
26.8601 41.4715
27.0437 40.0079
27.2272 39.7107
27.4109 39.6136
27.5946 39.5523
27.7784 39.0854
27.9623 39.4024
28.1462 39.9595
28.3304 38.3284
28.5145 36.9504
28.6987 36.5488
28.8829 36.4471
29.0673 35.7124
29.2517 35.3759
29.4361 35.0818
29.6207 34.1195
29.8053 33.8436
29.99 33.5117
30.1748 33.3352
30.3597 33.2387
30.5447 33.0903
30.7297 33.1838
30.915 32.5975
31.1002 32.0323
31.2855 31.7589
31.4708 31.7939
31.6563 31.23
31.8418 31.0418
32.0275 30.7758
32.2132 30.1963
32.399 29.8114
32.5848 29.3704
32.7708 28.8683
32.9569 28.8294
33.143 28.6053
33.3293 28.1473
33.5158 27.7566
33.7022 27.2874
33.8887 27.037
34.0753 26.7429
34.262 26.3917
34.4488 26.1464
34.6357 25.7147
34.8227 25.3347
35.0098 25.173
35.1969 24.8308
35.3842 24.7177
35.5716 24.39
35.759 24.1633
35.9468 23.7714
36.1345 23.6052
36.3222 23.2954
36.5101 23.0347
36.6981 22.7213
36.8861 22.4226
37.0743 22.1472
37.2626 21.8749
37.451 21.6243
37.6395 21.4968
37.8281 21.06
38.0168 20.7927
38.2056 20.5123
38.3945 20.2929
38.5837 20.0275
38.7728 19.7727
38.9621 19.5329
39.1514 19.2541
39.3409 19.0169
39.5304 18.8126
39.7201 18.6284
39.9099 18.3239
40.0999 18.1267
40.2899 17.837
40.48 17.6608
40.6703 17.4449
40.8607 17.1845
41.0512 17.0099
41.242 16.7736
41.4327 16.5115
41.6236 16.2657
41.8146 16.075
42.0057 15.8304
42.1969 15.6634
42.3882 15.4703
42.5797 15.2368
42.7713 15.0232
42.963 14.8082
43.1549 14.6017
43.3468 14.3868
43.5389 14.2275
43.7312 14.0136
43.9237 13.7854
44.1162 13.6016
44.3088 13.4708
44.5016 13.2487
44.6945 13.1047
44.8875 12.8719
45.0806 12.7189
45.2739 12.5366
45.4673 12.3725
45.6609 12.1687
45.8546 12.022
46.0484 11.886
46.2424 11.6798
46.4365 11.5377
46.631 11.327
46.8254 11.1375
47.0199 10.9962
47.2146 10.8398
47.4095 10.6519
47.6044 10.4897
47.7996 10.3399
47.9948 10.1997
48.1902 10.0937
48.3858 9.90428
48.5815 9.77231
48.7774 9.61127
48.9734 9.48879
49.1696 9.33787
49.3661 9.19583
49.5626 9.08732
49.7592 8.92479
49.956 8.8286
50.153 8.6522
50.3501 8.52573
50.5474 8.40461
50.7448 8.2879
50.9424 8.13739
51.1402 8.02555
51.3381 7.91815
51.5362 7.77603
51.7344 7.64971
51.9328 7.45084
52.1316 7.36965
52.3304 7.30078
52.5293 7.16458
52.7284 7.01944
52.9276 6.90113
53.1271 6.84083
53.3267 6.6707
53.5265 6.59565
53.7264 6.45172
53.9266 6.31031
54.1269 6.19208
54.3274 6.06035
54.528 5.8971
54.7289 5.76972
54.9301 5.64128
55.1314 5.51133
55.3328 5.29481
55.5344 5.08335
55.7361 4.96307