Folder: NiFe_MOF_catalyst_paper/XRD (part 77)

File: Ni3Fe_FD0410.xy
TT I
1.27165 8.01962
1.45013 5.27671
1.62863 5.31486
1.80712 4.78005
1.98562 4.50603
2.16411 4.62631
2.34263 4.94879
2.52115 6.14477
2.69965 7.26769
2.87818 9.06313
3.05672 11.3871
3.23527 15.1171
3.4138 19.1622
3.59237 24.7141
3.77094 26.4161
3.9495 30.3457
4.12809 35.486
4.30669 272.691
4.4853 72.2673
4.6639 56.4386
4.84253 68.1022
5.02118 88.6392
5.19981 426.549
5.37848 224.134
5.55716 104.958
5.73586 93.9263
5.91455 97.1505
6.09328 3888.74
6.27201 87.0525
6.45075 69.2042
6.62952 64.4221
6.8083 60.8627
6.98711 57.5157
7.16591 56.932
7.34475 104.356
7.5236 56.3196
7.70247 57.6097
7.88135 59.1101
8.06026 63.2787
8.23919 70.9544
8.41812 88.0318
8.59709 1072.04
8.77609 104.312
8.9551 95.2219
9.13412 83.2205
9.31318 84.4657
9.49226 86.22
9.67134 103.334
9.85047 102.018
10.0296 361.892
10.2088 508.148
10.388 108.247
10.5672 472.248
10.7465 89.092
10.9257 80.9257
11.105 73.5897
11.2844 72.8057
11.4637 66.1578
11.6431 64.9627
11.8225 63.8043
12.002 65.0626
12.1814 143.392
12.3609 74.6949
12.5405 66.3413
12.72 72.5199
12.8996 72.2432
13.0792 80.4625
13.2589 224.984
13.4386 138.246
13.6183 229.077
13.7981 106.165
13.9779 77.5747
14.1577 74.3015
14.3376 73.9691
14.5175 70.4772
14.6974 72.2955
14.8774 110.038
15.0574 164.776
15.2374 73.5479
15.4175 68.0462
15.5976 67.3449
15.7778 95.4821
15.958 170.547
16.1382 65.0838
16.3185 60.4376
16.4988 57.0058
16.6792 55.8929
16.8596 56.7615
17.04 57.1863
17.2205 67.0812
17.401 74.4877
17.5815 60.5394
17.7622 62.3704
17.9428 75.6423
18.1237 137.565
18.3044 89.6047
18.4852 82.5784
18.666 61.9229
18.8469 59.6201
19.0278 58.4739
19.2088 61.0356
19.3898 77.548
19.5709 55.7483
19.752 54.4641
19.9332 57.4173
20.1144 70.8018
20.2957 64.1961
20.477 55.8248
20.6586 50.9285
20.84 49.8821
21.0215 49.741
21.203 51.7922
21.3846 50.3177
21.5662 49.9489
21.7479 53.6302
21.9297 65.6918
22.1115 57.0073
22.2933 51.3504
22.4753 50.1255
22.6572 49.9209
22.8393 52.6064
23.0214 59.0411
23.2037 50.0191
23.3859 50.7013
23.5682 57.1661
23.7505 50.0654
23.9329 46.4336
24.1154 45.178
24.2979 44.5641
24.4805 43.813
24.6631 43.8388
24.8458 43.2557
25.0286 43.7841
25.2114 45.4797
25.3943 45.7095
25.5773 41.9813
25.7605 41.4109
25.9436 41.7245
26.1268 42.6475
26.31 41.0921
26.4933 41.5707
26.6767 43.011
26.8601 41.373
27.0437 39.7446
27.2272 39.4537
27.4109 39.1875
27.5946 39.1249
27.7784 38.6489
27.9623 39.1008
28.1462 39.5629
28.3304 38.1213
28.5145 36.8316
28.6987 36.4595
28.8829 36.1833
29.0673 35.5126
29.2517 34.9792
29.4361 34.9146
29.6207 33.9402
29.8053 33.6655
29.99 33.3553
30.1748 33.2473
30.3597 33.0951
30.5447 32.8205
30.7297 32.921
30.915 32.4102
31.1002 31.8747
31.2855 31.5427
31.4708 31.5022
31.6563 31.0742
31.8418 30.7322
32.0275 30.6579
32.2132 30.0287
32.399 29.5491
32.5848 29.1292
32.7708 28.8068
32.9569 28.6422
33.143 28.3531
33.3293 28.1147
33.5158 27.634
33.7022 27.2132
33.8887 26.9293
34.0753 26.6569
34.262 26.2644
34.4488 25.9124
34.6357 25.6507
34.8227 25.207
35.0098 25.0715
35.1969 24.754
35.3842 24.4903
35.5716 24.3493
35.759 24.0027
35.9468 23.644
36.1345 23.4477
36.3222 23.1838
36.5101 22.8803
36.6981 22.6282
36.8861 22.3042
37.0743 21.9897
37.2626 21.713
37.451 21.4737
37.6395 21.3213
37.8281 20.9906
38.0168 20.7058
38.2056 20.4273
38.3945 20.1421
38.5837 19.8691
38.7728 19.6837
38.9621 19.4703
39.1514 19.1218
39.3409 18.926
39.5304 18.7173
39.7201 18.5421
39.9099 18.2716
40.0999 18.0595
40.2899 17.7537
40.48 17.5476
40.6703 17.326
40.8607 17.1657
41.0512 16.9005
41.242 16.6462
41.4327 16.397
41.6236 16.2053
41.8146 16.0236
42.0057 15.8027
42.1969 15.5588
42.3882 15.3529
42.5797 15.1575
42.7713 14.9531
42.963 14.737
43.1549 14.5502
43.3468 14.2926
43.5389 14.1971
43.7312 13.9078
43.9237 13.7354
44.1162 13.6024
44.3088 13.3974
44.5016 13.2157
44.6945 13.0069
44.8875 12.8408
45.0806 12.627
45.2739 12.5142
45.4673 12.3401
45.6609 12.1517
45.8546 11.9658
46.0484 11.794
46.2424 11.6402
46.4365 11.4707
46.631 11.2446
46.8254 11.118
47.0199 10.9782
47.2146 10.7961
47.4095 10.6461
47.6044 10.4576
47.7996 10.3319
47.9948 10.132
48.1902 10.0489
48.3858 9.86743
48.5815 9.78751
48.7774 9.64223
48.9734 9.47617
49.1696 9.32416
49.3661 9.14738
49.5626 9.00221
49.7592 8.91421
49.956 8.75623
50.153 8.64893
50.3501 8.4819
50.5474 8.35106
50.7448 8.2524
50.9424 8.12326
51.1402 7.9966
51.3381 7.84561
51.5362 7.71263
51.7344 7.60394
51.9328 7.47932
52.1316 7.35313
52.3304 7.21695
52.5293 7.12368
52.7284 7.05269
52.9276 6.84714
53.1271 6.75086
53.3267 6.69999
53.5265 6.58136
53.7264 6.46237
53.9266 6.31973
54.1269 6.19037
54.3274 6.077
54.528 5.95352
54.7289 5.77734
54.9301 5.63464
55.1314 5.45985
55.3328 5.31253
55.5344 5.08128
55.7361 4.90153

File: Ni3Fe_FD0411.xy
TT I
1.27165 7.76135
1.45013 6.53564
1.62863 5.45802
1.80712 5.49813
1.98562 4.95823
2.16411 5.14699
2.34263 4.51108
2.52115 6.50565
2.69965 7.76545
2.87818 8.20194
3.05672 11.6939
3.23527 15.1584
3.4138 19.2775
3.59237 25.0094
3.77094 26.8957
3.9495 30.5543
4.12809 36.3025
4.30669 274.595
4.4853 72.499
4.6639 56.0727
4.84253 68.3203
5.02118 88.8673
5.19981 426.725
5.37848 224.064
5.55716 104.697
5.73586 94.3088
5.91455 97.3816
6.09328 3879.25
6.27201 86.9913
6.45075 68.8419
6.62952 64.8593
6.8083 60.085
6.98711 57.108
7.16591 57.2449
7.34475 104.916
7.5236 56.016
7.70247 57.3063
7.88135 58.9445
8.06026 63.5922
8.23919 71.1536
8.41812 88.0576
8.59709 1068.38
8.77609 104.677
8.9551 95.0569
9.13412 83.4337
9.31318 84.2965
9.49226 86.0933
9.67134 103.401
9.85047 102.317
10.0296 361.189
10.2088 507.127
10.388 108.37
10.5672 472.458
10.7465 89.2305
10.9257 80.4588
11.105 73.5517
11.2844 73.1122
11.4637 66.3886
11.6431 64.8917
11.8225 64.0699
12.002 65.2633
12.1814 143.41
12.3609 74.6232
12.5405 66.1212
12.72 72.6547
12.8996 72.6696
13.0792 80.5611
13.2589 225.118
13.4386 138.651
13.6183 228.346
13.7981 106.572
13.9779 77.5806
14.1577 74.6989
14.3376 73.7891
14.5175 70.5401
14.6974 71.9518
14.8774 109.977
15.0574 164.648
15.2374 73.4982
15.4175 67.7722
15.5976 67.3008
15.7778 95.5309
15.958 170.8
16.1382 64.8697
16.3185 60.4412
16.4988 56.9785
16.6792 55.938
16.8596 56.6733
17.04 57.1512
17.2205 67.0508
17.401 74.5562
17.5815 60.7589
17.7622 62.6031
17.9428 75.455
18.1237 137.351
18.3044 89.6399
18.4852 82.5372
18.666 61.9697
18.8469 59.3952
19.0278 58.2874
19.2088 61.0412
19.3898 77.6244
19.5709 55.8723
19.752 54.5315
19.9332 57.4968
20.1144 70.7292
20.2957 63.9576
20.477 55.7788
20.6586 50.8832
20.84 49.8513
21.0215 49.6921
21.203 51.6405
21.3846 50.2334
21.5662 49.9019
21.7479 53.4366
21.9297 65.6959
22.1115 57.1268
22.2933 51.324
22.4753 50.1278
22.6572 50.0253
22.8393 52.6532
23.0214 58.9663
23.2037 50.0722
23.3859 50.8344
23.5682 57.2811
23.7505 50.1013
23.9329 46.2579
24.1154 45.2154
24.2979 44.6087
24.4805 43.8576
24.6631 43.95
24.8458 43.3096
25.0286 43.7893
25.2114 45.68
25.3943 45.7696
25.5773 41.9814
25.7605 41.3953
25.9436 41.733
26.1268 42.6258
26.31 41.1377
26.4933 41.5597
26.6767 43.0717
26.8601 41.5789
27.0437 39.8118
27.2272 39.4299
27.4109 39.2113
27.5946 39.3571
27.7784 38.7592
27.9623 39.1663
28.1462 39.7349
28.3304 38.1124
28.5145 36.956
28.6987 36.5515
28.8829 36.2522
29.0673 35.5501
29.2517 35.1153
29.4361 35.0226
29.6207 33.9431
29.8053 33.6858
29.99 33.3515
30.1748 33.224
30.3597 33.093
30.5447 32.8775
30.7297 32.9029
30.915 32.3873
31.1002 31.8881
31.2855 31.4836
31.4708 31.5196
31.6563 31.0646
31.8418 30.7684
32.0275 30.5566
32.2132 30.0981
32.399 29.6751
32.5848 29.0881
32.7708 28.8037
32.9569 28.6512
33.143 28.4453
33.3293 28.0814
33.5158 27.6976
33.7022 27.2739
33.8887 26.9374
34.0753 26.615
34.262 26.318
34.4488 26.0097
34.6357 25.6328
34.8227 25.2986
35.0098 25.1041
35.1969 24.761
35.3842 24.462
35.5716 24.3678
35.759 24.0066
35.9468 23.6026
36.1345 23.4264
36.3222 23.1659
36.5101 22.9293
36.6981 22.7079
36.8861 22.3222
37.0743 21.9884
37.2626 21.8378
37.451 21.4711
37.6395 21.333
37.8281 20.9969
38.0168 20.6577
38.2056 20.4308
38.3945 20.1456
38.5837 19.8853
38.7728 19.6841
38.9621 19.3792
39.1514 19.1298
39.3409 18.9087
39.5304 18.6984
39.7201 18.3914
39.9099 18.3205
40.0999 18.0673
40.2899 17.8003
40.48 17.5093
40.6703 17.3032
40.8607 17.1427
41.0512 16.9096
41.242 16.6186
41.4327 16.4633
41.6236 16.2243
41.8146 15.9906
42.0057 15.781
42.1969 15.5596
42.3882 15.3686
42.5797 15.1315
42.7713 14.932
42.963 14.8436
43.1549 14.5348
43.3468 14.3749
43.5389 14.1674
43.7312 13.9417
43.9237 13.8128
44.1162 13.596
44.3088 13.405
44.5016 13.1776
44.6945 13.0705
44.8875 12.8407
45.0806 12.7056
45.2739 12.5134
45.4673 12.3157
45.6609 12.1371
45.8546 11.9723
46.0484 11.8199
46.2424 11.636
46.4365 11.4466
46.631 11.3047
46.8254 11.1067
47.0199 10.9147
47.2146 10.7984
47.4095 10.6615
47.6044 10.4561
47.7996 10.3115
47.9948 10.166
48.1902 10.0123
48.3858 9.89197
48.5815 9.77115
48.7774 9.61351
48.9734 9.46579
49.1696 9.29697
49.3661 9.19071
49.5626 9.02655
49.7592 8.91531
49.956 8.78144
50.153 8.64635
50.3501 8.47763
50.5474 8.37916
50.7448 8.25662
50.9424 8.11291
51.1402 8.03869
51.3381 7.8449
51.5362 7.73093
51.7344 7.5867
51.9328 7.48938
52.1316 7.34192
52.3304 7.24183
52.5293 7.06921
52.7284 6.98953
52.9276 6.89912
53.1271 6.78863
53.3267 6.67113
53.5265 6.49935
53.7264 6.46735
53.9266 6.26291
54.1269 6.21827
54.3274 6.07545
54.528 5.94747
54.7289 5.80189
54.9301 5.59126
55.1314 5.51424
55.3328 5.28231
55.5344 5.09514
55.7361 4.90521

File: Ni3Fe_FD0412.xy
TT I
1.27165 7.64948
1.45013 5.66124
1.62863 5.85734
1.80712 4.74872
1.98562 4.33323
2.16411 5.08251
2.34263 5.23498
2.52115 6.19347
2.69965 7.29792
2.87818 8.41564
3.05672 10.9235
3.23527 15.3351
3.4138 19.3186
3.59237 24.6528
3.77094 26.4024
3.9495 30.537
4.12809 35.4524
4.30669 277.937
4.4853 73.1677
4.6639 56.207
4.84253 67.9247
5.02118 88.4579
5.19981 421.198
5.37848 224.613
5.55716 105.014
5.73586 94.1135
5.91455 96.9442
6.09328 3903.06
6.27201 86.8391
6.45075 68.7421
6.62952 64.8563
6.8083 59.9596
6.98711 56.9945
7.16591 56.8301
7.34475 105.925
7.5236 56.0027
7.70247 57.6565
7.88135 59.4463
8.06026 63.416
8.23919 71.1885
8.41812 87.6801
8.59709 1061.87
8.77609 104.446
8.9551 95.2721
9.13412 83.3218
9.31318 84.3322
9.49226 86.0329
9.67134 103.063
9.85047 101.745
10.0296 356.285
10.2088 513.715
10.388 108.197
10.5672 471.365
10.7465 88.641
10.9257 80.5822
11.105 73.4151
11.2844 73.1177
11.4637 66.1544
11.6431 65.008
11.8225 63.7086
12.002 65.174
12.1814 142.288
12.3609 74.6242
12.5405 65.8557
12.72 72.7059
12.8996 72.3722
13.0792 80.3097
13.2589 223.452
13.4386 138.855
13.6183 227.807
13.7981 106.4
13.9779 77.6672
14.1577 74.2722
14.3376 74.0629
14.5175 70.3314
14.6974 71.6231
14.8774 109.507
15.0574 165.267
15.2374 73.4963
15.4175 67.934
15.5976 67.3877
15.7778 94.9357
15.958 171.076
16.1382 64.9341
16.3185 60.3603
16.4988 56.9955
16.6792 55.6512
16.8596 56.5308
17.04 56.9797
17.2205 66.782
17.401 74.461
17.5815 60.5557
17.7622 62.3691
17.9428 75.3026
18.1237 137.282
18.3044 89.1769
18.4852 82.3869
18.666 61.7312
18.8469 59.1699
19.0278 58.2933
19.2088 60.9442
19.3898 77.5349
19.5709 55.4469
19.752 54.2624
19.9332 57.3346
20.1144 70.5747
20.2957 63.6747
20.477 55.6062
20.6586 50.7339
20.84 49.844
21.0215 49.8481
21.203 51.4262
21.3846 49.9886
21.5662 49.7281
21.7479 53.4353
21.9297 65.4914
22.1115 56.9693
22.2933 51.3004
22.4753 50.1087
22.6572 49.9071
22.8393 52.6328
23.0214 59.0471
23.2037 49.9816
23.3859 50.7705
23.5682 57.1583
23.7505 50.0478
23.9329 46.1831
24.1154 45.0774
24.2979 44.4247
24.4805 43.8938
24.6631 43.8574
24.8458 43.1943
25.0286 43.6395
25.2114 45.4104
25.3943 45.609
25.5773 41.9463
25.7605 41.3688
25.9436 41.6045
26.1268 42.5683
26.31 41.0875
26.4933 41.6406
26.6767 43.0803
26.8601 41.3275
27.0437 39.7887
27.2272 39.3346
27.4109 39.2858
27.5946 39.3789
27.7784 38.7038
27.9623 38.9582
28.1462 39.6653
28.3304 38.2094
28.5145 36.7242
28.6987 36.3902
28.8829 36.1443
29.0673 35.4751
29.2517 35.0257
29.4361 34.8349
29.6207 33.816
29.8053 33.6236
29.99 33.3857
30.1748 33.1442
30.3597 33.0845
30.5447 32.7787
30.7297 32.9258
30.915 32.3431
31.1002 31.8168
31.2855 31.4844
31.4708 31.382
31.6563 31.021
31.8418 30.7286
32.0275 30.6033
32.2132 30.0818
32.399 29.6521
32.5848 29.1447
32.7708 28.7642
32.9569 28.607
33.143 28.3808
33.3293 28.0586
33.5158 27.6665
33.7022 27.1984
33.8887 26.912
34.0753 26.6343
34.262 26.2024
34.4488 25.8253
34.6357 25.473
34.8227 25.2451
35.0098 24.9947
35.1969 24.7329
35.3842 24.5086
35.5716 24.3126
35.759 23.9173
35.9468 23.6486
36.1345 23.3612
36.3222 23.1074
36.5101 22.9912
36.6981 22.5807
36.8861 22.2569
37.0743 21.9972
37.2626 21.7085
37.451 21.5211
37.6395 21.2934
37.8281 20.9016
38.0168 20.6819
38.2056 20.3766
38.3945 20.0968
38.5837 19.9004
38.7728 19.5821
38.9621 19.3688
39.1514 19.125
39.3409 18.861
39.5304 18.614
39.7201 18.3785
39.9099 18.2048
40.0999 17.9359
40.2899 17.7966
40.48 17.5038
40.6703 17.3376
40.8607 17.0581
41.0512 16.8612
41.242 16.62
41.4327 16.4111
41.6236 16.1839
41.8146 15.9298
42.0057 15.7883
42.1969 15.5389
42.3882 15.4393
42.5797 15.1533
42.7713 14.9435
42.963 14.7545
43.1549 14.5157
43.3468 14.2673
43.5389 14.1524
43.7312 13.9223
43.9237 13.7647
44.1162 13.557
44.3088 13.3349
44.5016 13.158
44.6945 13.013
44.8875 12.7879
45.0806 12.6638
45.2739 12.4913
45.4673 12.321
45.6609 12.0791
45.8546 11.9589
46.0484 11.7695
46.2424 11.6174
46.4365 11.4384
46.631 11.2364
46.8254 11.1264
47.0199 10.9389
47.2146 10.7888
47.4095 10.6222
47.6044 10.4598
47.7996 10.2965
47.9948 10.1317
48.1902 10.0337
48.3858 9.91253
48.5815 9.74247
48.7774 9.61647
48.9734 9.44509
49.1696 9.30395
49.3661 9.14927
49.5626 9.02021
49.7592 8.90971
49.956 8.76039
50.153 8.64176
50.3501 8.48212
50.5474 8.35043
50.7448 8.20451
50.9424 8.11936
51.1402 7.96188
51.3381 7.84273
51.5362 7.70431
51.7344 7.59598
51.9328 7.39544
52.1316 7.30518
52.3304 7.21367
52.5293 7.11246
52.7284 6.98606
52.9276 6.90878
53.1271 6.7643
53.3267 6.62493
53.5265 6.51785
53.7264 6.40608
53.9266 6.29128
54.1269 6.1909
54.3274 6.04805
54.528 5.90842
54.7289 5.79714
54.9301 5.62491
55.1314 5.45264
55.3328 5.2824
55.5344 5.06438
55.7361 4.97158

File: Ni3Fe_FD0413.xy
TT I
1.27165 7.40475
1.45013 6.5544
1.62863 5.08205
1.80712 5.31023
1.98562 4.85979
2.16411 4.91061
2.34263 5.14448
2.52115 5.94961
2.69965 7.13909
2.87818 8.71359
3.05672 10.9911
3.23527 15.1194
3.4138 19.2662
3.59237 25.0176
3.77094 26.7915
3.9495 30.6464
4.12809 35.2508
4.30669 280.694
4.4853 72.9954
4.6639 56.4439
4.84253 67.7266
5.02118 88.5393
5.19981 421.589
5.37848 223.94
5.55716 104.948
5.73586 94.5824
5.91455 96.853
6.09328 3884.0
6.27201 86.7598
6.45075 69.0702
6.62952 64.4295
6.8083 60.4903
6.98711 57.5559
7.16591 57.2863
7.34475 106.774
7.5236 56.0953
7.70247 57.365
7.88135 58.8503
8.06026 63.5174
8.23919 71.2019
8.41812 87.8845
8.59709 1061.46
8.77609 104.095
8.9551 95.2174
9.13412 83.0983
9.31318 83.9366
9.49226 85.7243
9.67134 103.247
9.85047 102.152
10.0296 355.85
10.2088 520.545
10.388 108.254
10.5672 469.242
10.7465 89.0327
10.9257 80.5739
11.105 73.4115
11.2844 73.0159
11.4637 66.4184
11.6431 65.0473
11.8225 63.866
12.002 64.8452
12.1814 142.093
12.3609 74.8426
12.5405 66.1078
12.72 72.9143
12.8996 72.1733
13.0792 80.4111
13.2589 222.328
13.4386 139.337
13.6183 226.581
13.7981 106.728
13.9779 77.3798
14.1577 74.4898
14.3376 73.732
14.5175 70.0738
14.6974 72.0714
14.8774 109.374
15.0574 165.404
15.2374 73.3784
15.4175 67.805
15.5976 67.063
15.7778 94.8926
15.958 171.35
16.1382 64.9792
16.3185 60.2918
16.4988 56.8307
16.6792 55.8274
16.8596 56.6442
17.04 57.1333
17.2205 66.9678
17.401 74.6057
17.5815 60.5691
17.7622 62.6176
17.9428 75.346
18.1237 136.932
18.3044 89.1283
18.4852 82.7997
18.666 61.8979
18.8469 59.3481
19.0278 58.1021
19.2088 60.8957
19.3898 77.5615
19.5709 55.6868
19.752 54.4436
19.9332 57.226
20.1144 70.4237
20.2957 63.9276
20.477 55.9449
20.6586 50.8079
20.84 49.9993
21.0215 49.7501
21.203 51.6964
21.3846 50.2397
21.5662 49.9283
21.7479 53.5432
21.9297 65.3318
22.1115 57.0386
22.2933 51.2563
22.4753 49.8876
22.6572 49.8932
22.8393 52.5154
23.0214 58.97
23.2037 49.9443
23.3859 50.7207
23.5682 57.1949
23.7505 50.0462
23.9329 46.1589
24.1154 45.1312
24.2979 44.3709
24.4805 43.8203
24.6631 43.9018
24.8458 43.0591
25.0286 43.6517
25.2114 45.577
25.3943 45.8033
25.5773 41.9678
25.7605 41.4957
25.9436 41.6877
26.1268 42.6754
26.31 41.069
26.4933 41.6611
26.6767 43.1078
26.8601 41.4808
27.0437 39.807
27.2272 39.3644
27.4109 39.1186
27.5946 39.2944
27.7784 38.7268
27.9623 39.108
28.1462 39.6732
28.3304 38.1979
28.5145 36.7524
28.6987 36.4673
28.8829 36.2091
29.0673 35.4954
29.2517 35.135
29.4361 34.8001
29.6207 33.8034
29.8053 33.5865
29.99 33.4019
30.1748 33.16
30.3597 32.962
30.5447 32.806
30.7297 32.9579
30.915 32.3843
31.1002 31.8973
31.2855 31.6456
31.4708 31.5489
31.6563 31.1599
31.8418 30.7874
32.0275 30.6119
32.2132 30.128
32.399 29.6106
32.5848 29.0726
32.7708 28.8697
32.9569 28.6514
33.143 28.3618
33.3293 28.0661
33.5158 27.7355
33.7022 27.1463
33.8887 26.8924
34.0753 26.6134
34.262 26.2047
34.4488 25.9141
34.6357 25.5437
34.8227 25.2096
35.0098 25.0836
35.1969 24.7579
35.3842 24.4221
35.5716 24.2999
35.759 23.9481
35.9468 23.6973
36.1345 23.4164
36.3222 23.1978
36.5101 22.9315
36.6981 22.6233
36.8861 22.2478
37.0743 21.9803
37.2626 21.7363
37.451 21.4467
37.6395 21.2732
37.8281 20.9841
38.0168 20.6894
38.2056 20.4504
38.3945 20.1164
38.5837 19.8698
38.7728 19.6527
38.9621 19.4571
39.1514 19.1042
39.3409 18.9035
39.5304 18.7233
39.7201 18.4709
39.9099 18.2842
40.0999 18.0069
40.2899 17.7397
40.48 17.5133
40.6703 17.3377
40.8607 17.1264
41.0512 16.9116
41.242 16.591
41.4327 16.4563
41.6236 16.1854
41.8146 16.0871
42.0057 15.7639
42.1969 15.5658
42.3882 15.3995
42.5797 15.1468
42.7713 14.9613
42.963 14.7084
43.1549 14.559
43.3468 14.3848
43.5389 14.1489
43.7312 13.9164
43.9237 13.749
44.1162 13.58
44.3088 13.3441
44.5016 13.1655
44.6945 13.051
44.8875 12.8512
45.0806 12.6329
45.2739 12.4879
45.4673 12.3324
45.6609 12.1313
45.8546 11.9547
46.0484 11.8035
46.2424 11.5731
46.4365 11.481
46.631 11.268
46.8254 11.1273
47.0199 10.9403
47.2146 10.7693
47.4095 10.623
47.6044 10.4537
47.7996 10.3067
47.9948 10.1533
48.1902 9.98246
48.3858 9.88816
48.5815 9.73785
48.7774 9.6004
48.9734 9.4739
49.1696 9.34214
49.3661 9.14822
49.5626 9.0222
49.7592 8.87127
49.956 8.77922
50.153 8.58719
50.3501 8.50829
50.5474 8.36311
50.7448 8.2434
50.9424 8.10965
51.1402 7.97929
51.3381 7.82721
51.5362 7.73385
51.7344 7.61345
51.9328 7.47587
52.1316 7.33057
52.3304 7.21393
52.5293 7.08768
52.7284 6.98208
52.9276 6.87362
53.1271 6.76128
53.3267 6.63371
53.5265 6.52495
53.7264 6.38534
53.9266 6.30456
54.1269 6.19512
54.3274 6.07373
54.528 5.97321
54.7289 5.75623
54.9301 5.60213
55.1314 5.48119
55.3328 5.31023
55.5344 5.0717
55.7361 4.85556

File: Ni3Fe_FD0414.xy
TT I
1.27165 7.60986
1.45013 6.28937
1.62863 5.4444
1.80712 5.05664
1.98562 4.56345
2.16411 5.46087
2.34263 5.1605
2.52115 6.29122
2.69965 7.25176
2.87818 8.86472
3.05672 11.0048
3.23527 14.9496
3.4138 19.1786
3.59237 25.3371
3.77094 26.9914
3.9495 30.6062
4.12809 35.9592
4.30669 280.284
4.4853 73.1991
4.6639 56.4631
4.84253 68.5251
5.02118 88.828
5.19981 424.649
5.37848 223.066
5.55716 104.766
5.73586 94.4211
5.91455 97.4788
6.09328 3881.75
6.27201 87.0818
6.45075 69.2698
6.62952 65.0554
6.8083 60.5669
6.98711 57.3881
7.16591 57.2542
7.34475 106.397
7.5236 56.018
7.70247 57.5128
7.88135 59.4081
8.06026 63.5679
8.23919 71.0555
8.41812 87.9487
8.59709 1069.03
8.77609 104.189
8.9551 95.6006
9.13412 83.1673
9.31318 84.1352
9.49226 86.1847
9.67134 103.617
9.85047 101.975
10.0296 358.259
10.2088 515.545
10.388 108.15
10.5672 470.916
10.7465 89.1839
10.9257 80.8668
11.105 73.5673
11.2844 72.9556
11.4637 66.1149
11.6431 65.4386
11.8225 63.9644
12.002 65.038
12.1814 142.224
12.3609 74.9802
12.5405 65.9681
12.72 72.8574
12.8996 72.5286
13.0792 80.3892
13.2589 222.885
13.4386 138.797
13.6183 227.561
13.7981 106.245
13.9779 77.5228
14.1577 74.3895
14.3376 74.0439
14.5175 70.3339
14.6974 72.1604
14.8774 109.735
15.0574 164.354
15.2374 73.6838
15.4175 68.1042
15.5976 67.2743
15.7778 95.297
15.958 170.688
16.1382 65.1116
16.3185 60.436
16.4988 57.0064
16.6792 55.8306
16.8596 56.7141
17.04 57.2558
17.2205 67.0274
17.401 74.6053
17.5815 60.4316
17.7622 62.4836
17.9428 75.3002
18.1237 136.89
18.3044 89.2794
18.4852 82.8275
18.666 61.775
18.8469 59.265
19.0278 58.2206
19.2088 61.0479
19.3898 77.6594
19.5709 55.7647
19.752 54.4843
19.9332 57.6319
20.1144 70.7035
20.2957 63.936
20.477 55.7478
20.6586 50.9273
20.84 49.9759
21.0215 49.7254
21.203 51.7073
21.3846 50.5035
21.5662 50.0207
21.7479 53.3877
21.9297 65.3896
22.1115 56.9594
22.2933 51.3146
22.4753 50.2464
22.6572 50.038
22.8393 52.5965
23.0214 58.941
23.2037 49.9546
23.3859 50.8873
23.5682 57.0398
23.7505 50.0046
23.9329 46.2272
24.1154 45.1517
24.2979 44.464
24.4805 43.8947
24.6631 43.783
24.8458 43.2094
25.0286 43.7083
25.2114 45.6247
25.3943 45.8198
25.5773 41.8944
25.7605 41.3293
25.9436 41.7707
26.1268 42.7552
26.31 41.0353
26.4933 41.5765
26.6767 43.0565
26.8601 41.4179
27.0437 39.7776
27.2272 39.3997
27.4109 39.2506
27.5946 39.2676
27.7784 38.8771
27.9623 39.0926
28.1462 39.7078
28.3304 38.2895
28.5145 36.8623
28.6987 36.5041
28.8829 36.2518
29.0673 35.4346
29.2517 35.1511
29.4361 35.0219
29.6207 33.9242
29.8053 33.6759
29.99 33.3525
30.1748 33.1143
30.3597 32.9773
30.5447 32.8253
30.7297 32.947
30.915 32.4249
31.1002 31.8274
31.2855 31.5408
31.4708 31.4438
31.6563 31.0204
31.8418 30.8156
32.0275 30.6725
32.2132 30.0608
32.399 29.5901
32.5848 29.1614
32.7708 28.8221
32.9569 28.606
33.143 28.3915
33.3293 28.1122
33.5158 27.6478
33.7022 27.173
33.8887 26.9224
34.0753 26.5436
34.262 26.2263
34.4488 25.8682
34.6357 25.5449
34.8227 25.2422
35.0098 25.0975
35.1969 24.7591
35.3842 24.4947
35.5716 24.3677
35.759 23.9325
35.9468 23.6927
36.1345 23.4253
36.3222 23.1478
36.5101 22.9142
36.6981 22.6681
36.8861 22.3606
37.0743 22.0181
37.2626 21.7874
37.451 21.5068
37.6395 21.3457
37.8281 20.9291
38.0168 20.6868
38.2056 20.3705
38.3945 20.1141
38.5837 19.9525
38.7728 19.6269
38.9621 19.3679
39.1514 19.1387
39.3409 18.8846
39.5304 18.6482
39.7201 18.423
39.9099 18.2221
40.0999 17.9905
40.2899 17.7673
40.48 17.5329
40.6703 17.3359
40.8607 17.1033
41.0512 16.9119
41.242 16.6106
41.4327 16.4116
41.6236 16.1727
41.8146 16.0024
42.0057 15.7672
42.1969 15.5552
42.3882 15.4015
42.5797 15.1876
42.7713 14.9615
42.963 14.7783
43.1549 14.567
43.3468 14.3295
43.5389 14.1603
43.7312 13.9769
43.9237 13.724
44.1162 13.5941
44.3088 13.3891
44.5016 13.1739
44.6945 13.0474
44.8875 12.8281
45.0806 12.6565
45.2739 12.4902
45.4673 12.3489
45.6609 12.1105
45.8546 11.9644
46.0484 11.7997
46.2424 11.648
46.4365 11.4631
46.631 11.2618
46.8254 11.0858
47.0199 10.9657
47.2146 10.8354
47.4095 10.6707
47.6044 10.4647
47.7996 10.2837
47.9948 10.1436
48.1902 9.98937
48.3858 9.9068
48.5815 9.76182
48.7774 9.60071
48.9734 9.43131
49.1696 9.30397
49.3661 9.1726
49.5626 9.03251
49.7592 8.91735
49.956 8.76255
50.153 8.65188
50.3501 8.48224
50.5474 8.38079
50.7448 8.26048
50.9424 8.12234
51.1402 7.94826
51.3381 7.85406
51.5362 7.71778
51.7344 7.59694
51.9328 7.47966
52.1316 7.35685
52.3304 7.24835
52.5293 7.14981
52.7284 7.01367
52.9276 6.84846
53.1271 6.78838
53.3267 6.63939
53.5265 6.53455
53.7264 6.40717
53.9266 6.33921
54.1269 6.20102
54.3274 6.06159
54.528 5.92283
54.7289 5.747
54.9301 5.63729
55.1314 5.48597
55.3328 5.23158
55.5344 5.08115
55.7361 4.95028