Folder: NiFe_MOF_catalyst_paper/XRD (part 60)

File: Ni3Fe_FD0312.xy
TT I
1.27165 7.48314
1.45013 6.14352
1.62863 5.4297
1.80712 5.25283
1.98562 4.93348
2.16411 4.61362
2.34263 5.22609
2.52115 5.50336
2.69965 7.17111
2.87818 8.30668
3.05672 11.0581
3.23527 15.4443
3.4138 19.3091
3.59237 25.3384
3.77094 26.6936
3.9495 30.7633
4.12809 35.4404
4.30669 295.567
4.4853 74.6049
4.6639 56.3962
4.84253 68.5184
5.02118 90.5922
5.19981 479.231
5.37848 239.664
5.55716 106.001
5.73586 94.9107
5.91455 99.6937
6.09328 3789.89
6.27201 88.5719
6.45075 69.7547
6.62952 65.4424
6.8083 60.8606
6.98711 57.8557
7.16591 58.0622
7.34475 111.438
7.5236 56.6509
7.70247 57.8738
7.88135 59.2948
8.06026 64.1686
8.23919 71.4438
8.41812 89.1075
8.59709 1015.35
8.77609 105.941
8.9551 96.9868
9.13412 83.9079
9.31318 85.3239
9.49226 86.6113
9.67134 105.376
9.85047 103.018
10.0296 366.361
10.2088 534.247
10.388 109.387
10.5672 466.022
10.7465 89.9437
10.9257 81.1837
11.105 74.0127
11.2844 73.5664
11.4637 66.739
11.6431 65.5427
11.8225 64.5828
12.002 65.7699
12.1814 139.651
12.3609 76.112
12.5405 66.5898
12.72 73.8296
12.8996 73.0094
13.0792 81.2069
13.2589 215.017
13.4386 140.874
13.6183 217.733
13.7981 106.727
13.9779 78.124
14.1577 75.0258
14.3376 74.7099
14.5175 70.7174
14.6974 72.7891
14.8774 108.69
15.0574 168.599
15.2374 74.4415
15.4175 68.4947
15.5976 67.8192
15.7778 94.4101
15.958 177.661
16.1382 65.824
16.3185 61.0173
16.4988 57.2816
16.6792 56.3228
16.8596 57.2698
17.04 57.6875
17.2205 66.7989
17.401 76.3023
17.5815 61.0894
17.7622 63.1015
17.9428 76.1887
18.1237 140.802
18.3044 89.0118
18.4852 83.9484
18.666 62.5713
18.8469 59.7744
19.0278 58.8611
19.2088 61.5135
19.3898 78.7242
19.5709 56.1619
19.752 55.0088
19.9332 57.9528
20.1144 71.8194
20.2957 63.9669
20.477 56.2511
20.6586 51.3768
20.84 50.4789
21.0215 50.2743
21.203 52.167
21.3846 50.9168
21.5662 50.3556
21.7479 53.8414
21.9297 66.5951
22.1115 57.4333
22.2933 51.8095
22.4753 50.6894
22.6572 50.4814
22.8393 52.9247
23.0214 60.0799
23.2037 50.4028
23.3859 51.4089
23.5682 57.7087
23.7505 50.4324
23.9329 46.7548
24.1154 45.6072
24.2979 44.9768
24.4805 44.322
24.6631 44.2281
24.8458 43.4252
25.0286 44.0315
25.2114 46.0502
25.3943 46.29
25.5773 42.2915
25.7605 41.7822
25.9436 42.0614
26.1268 43.1224
26.31 41.5099
26.4933 41.9952
26.6767 43.5331
26.8601 41.9708
27.0437 40.2202
27.2272 39.7965
27.4109 39.6222
27.5946 39.6276
27.7784 39.1017
27.9623 39.4236
28.1462 40.1487
28.3304 38.4949
28.5145 37.069
28.6987 36.7522
28.8829 36.5938
29.0673 35.7537
29.2517 35.3943
29.4361 35.3149
29.6207 34.2019
29.8053 33.94
29.99 33.65
30.1748 33.4607
30.3597 33.3992
30.5447 33.1197
30.7297 33.3236
30.915 32.6549
31.1002 32.098
31.2855 31.8032
31.4708 31.8871
31.6563 31.3984
31.8418 31.1198
32.0275 30.8568
32.2132 30.4286
32.399 29.912
32.5848 29.4542
32.7708 29.0827
32.9569 28.8998
33.143 28.75
33.3293 28.3381
33.5158 27.9976
33.7022 27.4803
33.8887 27.2584
34.0753 26.8178
34.262 26.5642
34.4488 26.1675
34.6357 25.7505
34.8227 25.5406
35.0098 25.2799
35.1969 25.0012
35.3842 24.8383
35.5716 24.6042
35.759 24.2004
35.9468 23.8823
36.1345 23.6663
36.3222 23.4194
36.5101 23.2558
36.6981 22.8372
36.8861 22.5745
37.0743 22.1823
37.2626 21.9848
37.451 21.7475
37.6395 21.6004
37.8281 21.1752
38.0168 20.8941
38.2056 20.6544
38.3945 20.3645
38.5837 20.1255
38.7728 19.8536
38.9621 19.5852
39.1514 19.3174
39.3409 19.1011
39.5304 18.8728
39.7201 18.716
39.9099 18.4119
40.0999 18.2114
40.2899 17.9953
40.48 17.7339
40.6703 17.4742
40.8607 17.3796
41.0512 17.0166
41.242 16.8164
41.4327 16.6139
41.6236 16.4036
41.8146 16.1662
42.0057 15.9566
42.1969 15.7073
42.3882 15.5509
42.5797 15.3164
42.7713 15.0937
42.963 14.9341
43.1549 14.7035
43.3468 14.5095
43.5389 14.2844
43.7312 14.0454
43.9237 13.8817
44.1162 13.7546
44.3088 13.566
44.5016 13.3301
44.6945 13.177
44.8875 12.9127
45.0806 12.791
45.2739 12.6221
45.4673 12.4228
45.6609 12.2837
45.8546 12.0883
46.0484 11.9488
46.2424 11.7254
46.4365 11.5987
46.631 11.3941
46.8254 11.215
47.0199 11.0375
47.2146 10.9082
47.4095 10.7046
47.6044 10.556
47.7996 10.4116
47.9948 10.2665
48.1902 10.1404
48.3858 9.9998
48.5815 9.82415
48.7774 9.70391
48.9734 9.56862
49.1696 9.39299
49.3661 9.23966
49.5626 9.09228
49.7592 8.98367
49.956 8.8487
50.153 8.69293
50.3501 8.55535
50.5474 8.43584
50.7448 8.35625
50.9424 8.15571
51.1402 8.0847
51.3381 7.93885
51.5362 7.80342
51.7344 7.71901
51.9328 7.53945
52.1316 7.40293
52.3304 7.30294
52.5293 7.12823
52.7284 7.07961
52.9276 6.91862
53.1271 6.82831
53.3267 6.72935
53.5265 6.5976
53.7264 6.45015
53.9266 6.35986
54.1269 6.18437
54.3274 6.10756
54.528 5.99727
54.7289 5.89227
54.9301 5.64819
55.1314 5.51099
55.3328 5.3311
55.5344 5.13377
55.7361 5.00941

File: Ni3Fe_FD0313.xy
TT I
1.27165 7.7444
1.45013 6.17599
1.62863 5.41843
1.80712 5.08747
1.98562 4.95064
2.16411 5.0553
2.34263 4.44266
2.52115 5.8891
2.69965 7.03381
2.87818 8.61296
3.05672 11.1536
3.23527 15.1347
3.4138 19.4149
3.59237 25.2827
3.77094 26.1423
3.9495 30.4513
4.12809 35.6881
4.30669 276.487
4.4853 72.9184
4.6639 56.8834
4.84253 69.237
5.02118 90.695
5.19981 485.237
5.37848 237.18
5.55716 106.267
5.73586 95.5293
5.91455 99.8711
6.09328 3841.75
6.27201 88.3179
6.45075 69.7544
6.62952 65.1248
6.8083 60.6981
6.98711 57.5217
7.16591 57.6113
7.34475 106.596
7.5236 56.3489
7.70247 57.7893
7.88135 59.5475
8.06026 64.0967
8.23919 71.8494
8.41812 89.187
8.59709 1048.63
8.77609 105.731
8.9551 96.4012
9.13412 84.4342
9.31318 85.1864
9.49226 86.7025
9.67134 104.417
9.85047 103.022
10.0296 373.06
10.2088 521.101
10.388 109.492
10.5672 474.77
10.7465 89.4536
10.9257 81.3691
11.105 74.2152
11.2844 73.151
11.4637 66.8753
11.6431 65.5158
11.8225 64.3234
12.002 65.7231
12.1814 141.864
12.3609 75.4573
12.5405 66.5891
12.72 73.4146
12.8996 73.1091
13.0792 81.2493
13.2589 220.339
13.4386 139.105
13.6183 223.219
13.7981 106.259
13.9779 78.0797
14.1577 75.1915
14.3376 74.2355
14.5175 71.0182
14.6974 72.5155
14.8774 110.598
15.0574 165.743
15.2374 74.1874
15.4175 68.5128
15.5976 67.9013
15.7778 95.6307
15.958 176.661
16.1382 65.5429
16.3185 60.8387
16.4988 57.4177
16.6792 56.374
16.8596 56.9989
17.04 57.6436
17.2205 67.3553
17.401 75.6727
17.5815 61.179
17.7622 63.1807
17.9428 76.6465
18.1237 141.054
18.3044 89.7708
18.4852 83.1396
18.666 62.4703
18.8469 59.9394
19.0278 58.8847
19.2088 61.7121
19.3898 78.6062
19.5709 56.0296
19.752 55.0789
19.9332 57.89
20.1144 71.7771
20.2957 64.2023
20.477 56.1494
20.6586 51.2594
20.84 50.2913
21.0215 50.232
21.203 52.1264
21.3846 50.5768
21.5662 50.3194
21.7479 53.9279
21.9297 66.7497
22.1115 57.2511
22.2933 51.8337
22.4753 50.5728
22.6572 50.4627
22.8393 53.1114
23.0214 59.8017
23.2037 50.4215
23.3859 51.4159
23.5682 57.7566
23.7505 50.3482
23.9329 46.7051
24.1154 45.6637
24.2979 44.8742
24.4805 44.2047
24.6631 44.4148
24.8458 43.6462
25.0286 44.0612
25.2114 45.9474
25.3943 46.2763
25.5773 42.2141
25.7605 41.836
25.9436 42.1122
26.1268 43.0507
26.31 41.4301
26.4933 41.912
26.6767 43.4661
26.8601 41.8734
27.0437 40.1712
27.2272 39.7753
27.4109 39.4674
27.5946 39.7619
27.7784 38.9753
27.9623 39.4085
28.1462 40.1206
28.3304 38.4247
28.5145 37.0616
28.6987 36.7315
28.8829 36.5742
29.0673 35.8699
29.2517 35.4151
29.4361 35.2968
29.6207 34.2774
29.8053 34.032
29.99 33.5702
30.1748 33.5521
30.3597 33.3548
30.5447 33.1824
30.7297 33.3187
30.915 32.6392
31.1002 32.1312
31.2855 31.8419
31.4708 31.8668
31.6563 31.3888
31.8418 31.0838
32.0275 30.8575
32.2132 30.3384
32.399 29.9206
32.5848 29.5132
32.7708 29.0942
32.9569 28.9339
33.143 28.6964
33.3293 28.3179
33.5158 27.9717
33.7022 27.4615
33.8887 27.1201
34.0753 26.8492
34.262 26.4576
34.4488 26.0349
34.6357 25.8848
34.8227 25.5197
35.0098 25.2664
35.1969 25.0462
35.3842 24.7649
35.5716 24.5242
35.759 24.1724
35.9468 23.8213
36.1345 23.6128
36.3222 23.3514
36.5101 23.1316
36.6981 22.8388
36.8861 22.4983
37.0743 22.2449
37.2626 21.9487
37.451 21.6671
37.6395 21.4548
37.8281 21.1284
38.0168 20.9011
38.2056 20.6131
38.3945 20.2754
38.5837 20.1428
38.7728 19.868
38.9621 19.5468
39.1514 19.293
39.3409 19.0206
39.5304 18.8709
39.7201 18.6511
39.9099 18.5069
40.0999 18.1753
40.2899 17.9044
40.48 17.7094
40.6703 17.5148
40.8607 17.2746
41.0512 17.0065
41.242 16.8203
41.4327 16.581
41.6236 16.3501
41.8146 16.1473
42.0057 15.9285
42.1969 15.7221
42.3882 15.5209
42.5797 15.3063
42.7713 15.1264
42.963 14.8589
43.1549 14.6509
43.3468 14.4592
43.5389 14.2515
43.7312 14.0664
43.9237 13.8997
44.1162 13.6897
44.3088 13.5199
44.5016 13.3089
44.6945 13.1611
44.8875 12.9958
45.0806 12.7866
45.2739 12.6066
45.4673 12.4443
45.6609 12.2582
45.8546 12.0879
46.0484 11.8962
46.2424 11.7976
46.4365 11.5852
46.631 11.3931
46.8254 11.2066
47.0199 11.0601
47.2146 10.9237
47.4095 10.7434
47.6044 10.551
47.7996 10.4021
47.9948 10.235
48.1902 10.1127
48.3858 10.0018
48.5815 9.84084
48.7774 9.70753
48.9734 9.54215
49.1696 9.39064
49.3661 9.27424
49.5626 9.10747
49.7592 8.99076
49.956 8.83812
50.153 8.73483
50.3501 8.5516
50.5474 8.41516
50.7448 8.31997
50.9424 8.18491
51.1402 8.07585
51.3381 7.9149
51.5362 7.78278
51.7344 7.68811
51.9328 7.55124
52.1316 7.47488
52.3304 7.29443
52.5293 7.15845
52.7284 7.06713
52.9276 6.94708
53.1271 6.8347
53.3267 6.71713
53.5265 6.61791
53.7264 6.46105
53.9266 6.33497
54.1269 6.23723
54.3274 6.15717
54.528 5.9628
54.7289 5.77591
54.9301 5.63227
55.1314 5.53712
55.3328 5.30662
55.5344 5.09957
55.7361 4.97948

File: Ni3Fe_FD0314.xy
TT I
1.27165 7.47754
1.45013 6.70942
1.62863 5.86853
1.80712 4.8449
1.98562 4.7397
2.16411 4.70344
2.34263 5.26133
2.52115 5.54684
2.69965 6.93248
2.87818 8.43746
3.05672 11.0468
3.23527 14.6933
3.4138 19.1422
3.59237 24.6375
3.77094 26.9296
3.9495 30.4753
4.12809 35.3814
4.30669 264.074
4.4853 71.2043
4.6639 56.6166
4.84253 69.0214
5.02118 90.8666
5.19981 491.243
5.37848 236.436
5.55716 106.45
5.73586 95.75
5.91455 99.9824
6.09328 3868.03
6.27201 87.5894
6.45075 69.6136
6.62952 65.0162
6.8083 60.6691
6.98711 57.7553
7.16591 57.4773
7.34475 103.992
7.5236 56.0565
7.70247 58.2063
7.88135 59.4131
8.06026 63.9873
8.23919 71.6394
8.41812 89.2656
8.59709 1065.06
8.77609 105.571
8.9551 95.6518
9.13412 84.4216
9.31318 85.2701
9.49226 86.7675
9.67134 102.987
9.85047 103.255
10.0296 378.101
10.2088 519.12
10.388 109.409
10.5672 478.577
10.7465 89.7829
10.9257 81.1151
11.105 74.2891
11.2844 73.2739
11.4637 66.8084
11.6431 65.7221
11.8225 64.393
12.002 65.703
12.1814 143.258
12.3609 74.913
12.5405 66.55
12.72 72.8239
12.8996 73.0973
13.0792 81.6301
13.2589 223.891
13.4386 138.056
13.6183 225.402
13.7981 105.898
13.9779 78.0119
14.1577 74.7275
14.3376 74.2841
14.5175 70.7218
14.6974 72.6343
14.8774 111.042
15.0574 164.156
15.2374 74.0008
15.4175 68.3436
15.5976 67.702
15.7778 96.4227
15.958 174.545
16.1382 65.1949
16.3185 60.8951
16.4988 57.3492
16.6792 56.1808
16.8596 57.1236
17.04 57.5146
17.2205 67.5914
17.401 75.3351
17.5815 61.0649
17.7622 62.9846
17.9428 77.2263
18.1237 140.794
18.3044 89.9465
18.4852 82.8511
18.666 62.2661
18.8469 59.9008
19.0278 58.7665
19.2088 61.4996
19.3898 78.502
19.5709 56.066
19.752 54.9895
19.9332 58.0432
20.1144 71.9023
20.2957 64.3907
20.477 55.8731
20.6586 51.0867
20.84 50.3508
21.0215 50.3318
21.203 52.0985
21.3846 50.7196
21.5662 50.2014
21.7479 53.985
21.9297 66.6534
22.1115 57.3271
22.2933 51.7825
22.4753 50.5714
22.6572 50.4694
22.8393 53.0897
23.0214 59.9847
23.2037 50.4156
23.3859 51.2698
23.5682 57.8385
23.7505 50.3749
23.9329 46.7451
24.1154 45.5439
24.2979 44.8513
24.4805 44.4135
24.6631 44.2879
24.8458 43.723
25.0286 44.1492
25.2114 45.9546
25.3943 46.3162
25.5773 42.2932
25.7605 41.793
25.9436 42.1376
26.1268 43.0577
26.31 41.5585
26.4933 42.0764
26.6767 43.5478
26.8601 41.8748
27.0437 40.1136
27.2272 39.7615
27.4109 39.5914
27.5946 39.6043
27.7784 39.0898
27.9623 39.4467
28.1462 40.0742
28.3304 38.537
28.5145 37.1034
28.6987 36.552
28.8829 36.5594
29.0673 35.7387
29.2517 35.4212
29.4361 35.2783
29.6207 34.2372
29.8053 33.9339
29.99 33.6881
30.1748 33.4353
30.3597 33.3443
30.5447 33.097
30.7297 33.1889
30.915 32.673
31.1002 32.2321
31.2855 31.97
31.4708 31.7935
31.6563 31.2344
31.8418 31.0694
32.0275 30.8982
32.2132 30.34
32.399 29.8906
32.5848 29.4679
32.7708 29.0398
32.9569 28.8557
33.143 28.6431
33.3293 28.1557
33.5158 27.9279
33.7022 27.5111
33.8887 27.1497
34.0753 26.8641
34.262 26.4667
34.4488 26.1053
34.6357 25.7387
34.8227 25.4056
35.0098 25.2765
35.1969 24.9453
35.3842 24.7267
35.5716 24.5125
35.759 24.2336
35.9468 23.8681
36.1345 23.6798
36.3222 23.3952
36.5101 23.0319
36.6981 22.8008
36.8861 22.5308
37.0743 22.1784
37.2626 21.9868
37.451 21.6293
37.6395 21.5079
37.8281 21.2553
38.0168 20.8834
38.2056 20.6087
38.3945 20.3938
38.5837 20.1097
38.7728 19.8197
38.9621 19.5262
39.1514 19.3257
39.3409 19.0719
39.5304 18.8438
39.7201 18.6887
39.9099 18.3849
40.0999 18.2192
40.2899 17.9333
40.48 17.7201
40.6703 17.4243
40.8607 17.2747
41.0512 17.0625
41.242 16.8007
41.4327 16.6241
41.6236 16.3906
41.8146 16.1349
42.0057 15.9046
42.1969 15.7363
42.3882 15.5807
42.5797 15.2773
42.7713 15.0912
42.963 14.9172
43.1549 14.6658
43.3468 14.4722
43.5389 14.2915
43.7312 14.0543
43.9237 13.8671
44.1162 13.7237
44.3088 13.5362
44.5016 13.3136
44.6945 13.1397
44.8875 12.984
45.0806 12.7669
45.2739 12.5977
45.4673 12.4158
45.6609 12.2403
45.8546 12.0939
46.0484 11.8603
46.2424 11.7181
46.4365 11.6001
46.631 11.3554
46.8254 11.2221
47.0199 11.0282
47.2146 10.8951
47.4095 10.7239
47.6044 10.5758
47.7996 10.4158
47.9948 10.2367
48.1902 10.1096
48.3858 9.98185
48.5815 9.87931
48.7774 9.67806
48.9734 9.57025
49.1696 9.39219
49.3661 9.22971
49.5626 9.09672
49.7592 8.99091
49.956 8.83819
50.153 8.71341
50.3501 8.55335
50.5474 8.45112
50.7448 8.32815
50.9424 8.19793
51.1402 8.07025
51.3381 7.91992
51.5362 7.82528
51.7344 7.64698
51.9328 7.54727
52.1316 7.40453
52.3304 7.28933
52.5293 7.16336
52.7284 7.08071
52.9276 6.94234
53.1271 6.84162
53.3267 6.69915
53.5265 6.58955
53.7264 6.48541
53.9266 6.34894
54.1269 6.22849
54.3274 6.09719
54.528 6.01699
54.7289 5.80199
54.9301 5.58885
55.1314 5.54527
55.3328 5.28443
55.5344 5.08679
55.7361 4.99282

File: Ni3Fe_FD0315.xy
TT I
1.27165 7.44866
1.45013 6.60794
1.62863 5.30643
1.80712 4.88327
1.98562 4.50685
2.16411 4.77425
2.34263 4.37087
2.52115 5.85453
2.69965 7.22504
2.87818 8.4367
3.05672 11.2133
3.23527 15.0471
3.4138 19.0525
3.59237 25.1758
3.77094 26.5493
3.9495 30.3321
4.12809 35.51
4.30669 248.722
4.4853 69.4757
4.6639 57.093
4.84253 69.16
5.02118 91.0209
5.19981 500.472
5.37848 235.154
5.55716 106.015
5.73586 95.943
5.91455 100.61
6.09328 3943.94
6.27201 88.204
6.45075 69.8605
6.62952 65.0597
6.8083 60.8937
6.98711 57.9648
7.16591 57.1157
7.34475 101.082
7.5236 56.5686
7.70247 58.1578
7.88135 59.9178
8.06026 64.088
8.23919 71.3669
8.41812 88.9389
8.59709 1083.6
8.77609 105.43
8.9551 95.4537
9.13412 84.3232
9.31318 85.4082
9.49226 87.0754
9.67134 102.974
9.85047 103.106
10.0296 384.731
10.2088 514.683
10.388 109.396
10.5672 476.464
10.7465 89.4816
10.9257 81.3733
11.105 73.8787
11.2844 73.0776
11.4637 66.7696
11.6431 65.6497
11.8225 64.664
12.002 65.708
12.1814 144.65
12.3609 74.3888
12.5405 66.7138
12.72 73.0951
12.8996 73.2594
13.0792 81.3446
13.2589 226.812
13.4386 137.872
13.6183 229.595
13.7981 105.698
13.9779 77.8972
14.1577 75.1032
14.3376 74.3348
14.5175 70.902
14.6974 72.8115
14.8774 112.312
15.0574 162.624
15.2374 73.6636
15.4175 68.451
15.5976 68.0045
15.7778 96.9971
15.958 172.66
16.1382 65.4337
16.3185 60.8379
16.4988 57.2103
16.6792 56.2415
16.8596 57.0721
17.04 57.8753
17.2205 67.9658
17.401 75.0359
17.5815 61.3848
17.7622 63.2644
17.9428 77.1823
18.1237 140.418
18.3044 90.3159
18.4852 82.0696
18.666 62.3973
18.8469 59.9378
19.0278 58.8342
19.2088 61.8843
19.3898 78.3392
19.5709 56.0893
19.752 55.1157
19.9332 58.0743
20.1144 71.6346
20.2957 64.4216
20.477 56.0813
20.6586 51.3793
20.84 50.317
21.0215 50.3292
21.203 52.2181
21.3846 50.6823
21.5662 50.5073
21.7479 54.1665
21.9297 66.5279
22.1115 57.4499
22.2933 51.7356
22.4753 50.5833
22.6572 50.6687
22.8393 53.3808
23.0214 59.6567
23.2037 50.3345
23.3859 51.4997
23.5682 57.6134
23.7505 50.368
23.9329 46.7317
24.1154 45.5033
24.2979 44.8458
24.4805 44.3635
24.6631 44.3266
24.8458 43.6792
25.0286 44.3027
25.2114 45.9273
25.3943 46.1289
25.5773 42.3252
25.7605 41.9356
25.9436 42.0247
26.1268 43.0336
26.31 41.3537
26.4933 41.9776
26.6767 43.4962
26.8601 41.7396
27.0437 40.2305
27.2272 39.8678
27.4109 39.7513
27.5946 39.5647
27.7784 39.119
27.9623 39.4721
28.1462 40.0873
28.3304 38.4388
28.5145 37.0424
28.6987 36.7271
28.8829 36.5921
29.0673 35.8386
29.2517 35.3485
29.4361 35.2622
29.6207 34.2402
29.8053 34.084
29.99 33.6975
30.1748 33.5048
30.3597 33.3089
30.5447 33.0952
30.7297 33.2154
30.915 32.5345
31.1002 32.0473
31.2855 31.8463
31.4708 31.7405
31.6563 31.3604
31.8418 31.0361
32.0275 30.8537
32.2132 30.321
32.399 29.8555
32.5848 29.3968
32.7708 29.0379
32.9569 28.9002
33.143 28.6766
33.3293 28.2727
33.5158 27.9255
33.7022 27.4815
33.8887 27.1792
34.0753 26.8313
34.262 26.486
34.4488 26.1245
34.6357 25.7805
34.8227 25.4429
35.0098 25.2569
35.1969 25.0139
35.3842 24.7829
35.5716 24.4993
35.759 24.1854
35.9468 23.7993
36.1345 23.61
36.3222 23.3588
36.5101 23.0914
36.6981 22.8247
36.8861 22.4977
37.0743 22.1663
37.2626 22.0137
37.451 21.694
37.6395 21.5028
37.8281 21.1673
38.0168 20.9017
38.2056 20.6338
38.3945 20.3377
38.5837 20.0996
38.7728 19.8536
38.9621 19.5791
39.1514 19.3267
39.3409 19.0492
39.5304 18.8911
39.7201 18.7169
39.9099 18.4222
40.0999 18.1659
40.2899 17.9268
40.48 17.655
40.6703 17.5218
40.8607 17.3076
41.0512 17.025
41.242 16.7712
41.4327 16.6349
41.6236 16.357
41.8146 16.1635
42.0057 15.9018
42.1969 15.7029
42.3882 15.5635
42.5797 15.3375
42.7713 15.1108
42.963 14.9584
43.1549 14.6844
43.3468 14.4319
43.5389 14.2732
43.7312 14.0885
43.9237 13.9266
44.1162 13.7198
44.3088 13.4628
44.5016 13.34
44.6945 13.1443
44.8875 12.9839
45.0806 12.7764
45.2739 12.5879
45.4673 12.438
45.6609 12.1761
45.8546 12.0411
46.0484 11.9201
46.2424 11.7112
46.4365 11.5618
46.631 11.3352
46.8254 11.223
47.0199 11.0014
47.2146 10.8832
47.4095 10.715
47.6044 10.5601
47.7996 10.4063
47.9948 10.2702
48.1902 10.1507
48.3858 9.9782
48.5815 9.83103
48.7774 9.70346
48.9734 9.54815
49.1696 9.40514
49.3661 9.22868
49.5626 9.10271
49.7592 8.97447
49.956 8.88967
50.153 8.71414
50.3501 8.58749
50.5474 8.40451
50.7448 8.3303
50.9424 8.20958
51.1402 8.0469
51.3381 7.945
51.5362 7.78341
51.7344 7.65352
51.9328 7.52054
52.1316 7.38674
52.3304 7.28876
52.5293 7.1788
52.7284 7.05982
52.9276 6.93549
53.1271 6.87261
53.3267 6.71072
53.5265 6.56927
53.7264 6.45161
53.9266 6.37478
54.1269 6.23291
54.3274 6.14234
54.528 5.98649
54.7289 5.84676
54.9301 5.59132
55.1314 5.50514
55.3328 5.33971
55.5344 5.12818
55.7361 4.98278

File: Ni3Fe_FD0316.xy
TT I
1.27165 7.57486
1.45013 6.12116
1.62863 5.44251
1.80712 4.96585
1.98562 4.85143
2.16411 5.25087
2.34263 4.66239
2.52115 5.883
2.69965 7.26541
2.87818 7.85029
3.05672 11.6388
3.23527 15.4524
3.4138 18.6912
3.59237 24.6566
3.77094 26.3865
3.9495 30.4064
4.12809 35.9888
4.30669 240.694
4.4853 68.9207
4.6639 57.0847
4.84253 69.3134
5.02118 91.463
5.19981 510.067
5.37848 233.969
5.55716 106.239
5.73586 96.0965
5.91455 100.432
6.09328 3911.04
6.27201 87.6803
6.45075 69.8292
6.62952 65.1705
6.8083 61.1534
6.98711 57.9102
7.16591 57.3098
7.34475 98.3311
7.5236 56.4812
7.70247 57.8045
7.88135 59.426
8.06026 64.2823
8.23919 71.8786
8.41812 89.4235
8.59709 1097.26
8.77609 105.907
8.9551 95.3784
9.13412 84.3673
9.31318 85.6123
9.49226 87.0621
9.67134 102.764
9.85047 103.557
10.0296 391.19
10.2088 508.913
10.388 109.201
10.5672 475.427
10.7465 89.9738
10.9257 81.096
11.105 74.3978
11.2844 72.9794
11.4637 67.0367
11.6431 65.3733
11.8225 64.5023
12.002 66.0704
12.1814 146.052
12.3609 74.0871
12.5405 66.6811
12.72 72.7835
12.8996 73.2816
13.0792 81.8787
13.2589 230.066
13.4386 137.419
13.6183 232.112
13.7981 105.682
13.9779 78.3198
14.1577 74.676
14.3376 74.3418
14.5175 70.977
14.6974 72.899
14.8774 113.211
15.0574 161.121
15.2374 73.5592
15.4175 68.6385
15.5976 67.9879
15.7778 97.805
15.958 171.846
16.1382 65.1017
16.3185 60.8772
16.4988 57.3929
16.6792 56.4994
16.8596 57.2012
17.04 57.9357
17.2205 68.0473
17.401 75.0268
17.5815 60.9266
17.7622 63.3029
17.9428 77.5857
18.1237 140.051
18.3044 90.5245
18.4852 82.0512
18.666 62.3407
18.8469 60.0293
19.0278 58.8942
19.2088 61.6847
19.3898 78.3295
19.5709 56.0942
19.752 54.9728
19.9332 58.1546
20.1144 71.6109
20.2957 64.4153
20.477 55.8829
20.6586 51.2774
20.84 50.5187
21.0215 50.4061
21.203 52.1374
21.3846 50.7739
21.5662 50.4254
21.7479 54.3802
21.9297 66.2221
22.1115 57.5246
22.2933 51.7665
22.4753 50.547
22.6572 50.5155
22.8393 53.3337
23.0214 59.4722
23.2037 50.5425
23.3859 51.46
23.5682 57.6346
23.7505 50.2213
23.9329 46.7238
24.1154 45.5499
24.2979 44.9634
24.4805 44.2788
24.6631 44.3229
24.8458 43.6871
25.0286 44.09
25.2114 46.1386
25.3943 46.2456
25.5773 42.5639
25.7605 41.843
25.9436 42.0952
26.1268 43.0481
26.31 41.5225
26.4933 42.0093
26.6767 43.5606
26.8601 41.7941
27.0437 40.1855
27.2272 39.7918
27.4109 39.5925
27.5946 39.7254
27.7784 39.1974
27.9623 39.5094
28.1462 40.1431
28.3304 38.3901
28.5145 37.0909
28.6987 36.8357
28.8829 36.4453
29.0673 35.8549
29.2517 35.4565
29.4361 35.297
29.6207 34.2405
29.8053 33.9959
29.99 33.78
30.1748 33.4014
30.3597 33.3268
30.5447 33.1774
30.7297 33.2024
30.915 32.6657
31.1002 32.246
31.2855 31.8506
31.4708 31.7423
31.6563 31.3032
31.8418 31.1374
32.0275 30.9172
32.2132 30.3526
32.399 29.8624
32.5848 29.3556
32.7708 29.0433
32.9569 28.8698
33.143 28.7441
33.3293 28.2921
33.5158 27.9004
33.7022 27.4485
33.8887 27.1307
34.0753 26.7852
34.262 26.4727
34.4488 26.1296
34.6357 25.755
34.8227 25.4872
35.0098 25.2562
35.1969 24.965
35.3842 24.7366
35.5716 24.4706
35.759 24.3035
35.9468 23.8347
36.1345 23.6681
36.3222 23.4158
36.5101 23.1249
36.6981 22.8769
36.8861 22.4828
37.0743 22.1889
37.2626 21.9866
37.451 21.648
37.6395 21.5278
37.8281 21.2225
38.0168 20.8198
38.2056 20.5788
38.3945 20.3325
38.5837 20.0312
38.7728 19.7693
38.9621 19.569
39.1514 19.3059
39.3409 19.0916
39.5304 18.7722
39.7201 18.6177
39.9099 18.4287
40.0999 18.1384
40.2899 17.879
40.48 17.6539
40.6703 17.4657
40.8607 17.3316
41.0512 17.0076
41.242 16.7737
41.4327 16.6194
41.6236 16.3852
41.8146 16.1459
42.0057 15.9277
42.1969 15.7095
42.3882 15.5097
42.5797 15.2855
42.7713 15.1325
42.963 14.9129
43.1549 14.6519
43.3468 14.4669
43.5389 14.2527
43.7312 14.0662
43.9237 13.8719
44.1162 13.6984
44.3088 13.4816
44.5016 13.3182
44.6945 13.1434
44.8875 12.9936
45.0806 12.7804
45.2739 12.5413
45.4673 12.4276
45.6609 12.2386
45.8546 12.0587
46.0484 11.876
46.2424 11.7232
46.4365 11.5917
46.631 11.354
46.8254 11.2111
47.0199 11.0413
47.2146 10.8917
47.4095 10.7302
47.6044 10.5494
47.7996 10.4224
47.9948 10.2338
48.1902 10.0811
48.3858 9.96983
48.5815 9.81628
48.7774 9.70628
48.9734 9.54116
49.1696 9.40394
49.3661 9.24795
49.5626 9.0634
49.7592 9.01782
49.956 8.8735
50.153 8.71824
50.3501 8.54956
50.5474 8.42052
50.7448 8.3069
50.9424 8.17748
51.1402 8.09234
51.3381 7.90383
51.5362 7.75639
51.7344 7.68635
51.9328 7.49227
52.1316 7.39429
52.3304 7.26921
52.5293 7.18732
52.7284 7.06817
52.9276 6.91949
53.1271 6.833
53.3267 6.71106
53.5265 6.57514
53.7264 6.4855
53.9266 6.37763
54.1269 6.25915
54.3274 6.11811
54.528 5.99412
54.7289 5.81358
54.9301 5.64902
55.1314 5.53868
55.3328 5.34386
55.5344 5.08165
55.7361 5.01994