Folder: NiFe_MOF_catalyst_paper/XRD (part 177)

File: Ni3Fe_FD0959.xy
TT I
1.27165 7.36472
1.45013 6.11987
1.62863 5.3061
1.80712 5.01073
1.98562 4.76324
2.16411 4.50017
2.34263 5.92874
2.52115 7.12224
2.69965 8.32896
2.87818 9.66564
3.05672 11.1399
3.23527 15.0912
3.4138 18.8263
3.59237 23.3273
3.77094 25.8498
3.9495 29.8109
4.12809 34.318
4.30669 174.957
4.4853 60.3006
4.6639 54.846
4.84253 66.5027
5.02118 85.2603
5.19981 289.515
5.37848 175.773
5.55716 99.8444
5.73586 90.3846
5.91455 91.0155
6.09328 4563.82
6.27201 80.3579
6.45075 66.319
6.62952 61.6601
6.8083 57.4396
6.98711 54.7722
7.16591 54.2866
7.34475 82.1846
7.5236 53.859
7.70247 55.4191
7.88135 56.8631
8.06026 61.6706
8.23919 67.9902
8.41812 83.0806
8.59709 1169.34
8.77609 96.0384
8.9551 88.9347
9.13412 80.8308
9.31318 81.4547
9.49226 83.3465
9.67134 95.4485
9.85047 98.1841
10.0296 309.148
10.2088 361.279
10.388 101.102
10.5672 526.656
10.7465 84.5849
10.9257 76.7773
11.105 70.6551
11.2844 68.5283
11.4637 63.7486
11.6431 62.509
11.8225 61.2962
12.002 62.3079
12.1814 156.169
12.3609 68.1461
12.5405 63.2806
12.72 68.0241
12.8996 69.6782
13.0792 77.5712
13.2589 238.803
13.4386 118.958
13.6183 250.863
13.7981 94.6046
13.9779 74.485
14.1577 70.9905
14.3376 69.7879
14.5175 67.5129
14.6974 68.8985
14.8774 107.41
15.0574 144.388
15.2374 69.2378
15.4175 65.1279
15.5976 64.4073
15.7778 92.3401
15.958 148.756
16.1382 60.9786
16.3185 57.5424
16.4988 54.3374
16.6792 53.3804
16.8596 53.9061
17.04 54.4259
17.2205 65.5857
17.401 68.912
17.5815 57.9856
17.7622 60.0498
17.9428 71.3039
18.1237 137.163
18.3044 90.1373
18.4852 74.9482
18.666 59.2112
18.8469 56.905
19.0278 55.8363
19.2088 58.1128
19.3898 74.3277
19.5709 53.1237
19.752 52.2336
19.9332 55.055
20.1144 68.5743
20.2957 63.6882
20.477 52.4544
20.6586 48.7187
20.84 47.8964
21.0215 47.6749
21.203 50.0273
21.3846 48.0002
21.5662 47.8172
21.7479 51.5221
21.9297 63.418
22.1115 55.2387
22.2933 48.9068
22.4753 47.8096
22.6572 47.8105
22.8393 50.9225
23.0214 55.97
23.2037 47.8928
23.3859 48.7295
23.5682 56.3962
23.7505 47.2843
23.9329 44.2304
24.1154 43.2938
24.2979 42.5815
24.4805 42.1008
24.6631 41.9544
24.8458 41.5414
25.0286 42.2026
25.2114 43.8815
25.3943 43.68
25.5773 40.2132
25.7605 39.722
25.9436 40.0464
26.1268 40.963
26.31 39.3928
26.4933 39.9994
26.6767 41.2789
26.8601 39.7292
27.0437 38.1531
27.2272 37.7977
27.4109 37.6883
27.5946 37.7109
27.7784 37.1243
27.9623 37.7833
28.1462 38.1225
28.3304 36.4916
28.5145 35.3638
28.6987 35.0041
28.8829 34.8289
29.0673 34.0807
29.2517 33.7025
29.4361 33.4977
29.6207 32.4709
29.8053 32.3233
29.99 32.035
30.1748 31.8686
30.3597 31.6731
30.5447 31.6044
30.7297 31.5999
30.915 31.0483
31.1002 30.5052
31.2855 30.2966
31.4708 30.2388
31.6563 29.8703
31.8418 29.6481
32.0275 29.3902
32.2132 28.8469
32.399 28.3893
32.5848 27.9238
32.7708 27.5836
32.9569 27.485
33.143 27.2408
33.3293 26.9486
33.5158 26.6735
33.7022 26.1922
33.8887 25.8699
34.0753 25.5355
34.262 25.2016
34.4488 24.8301
34.6357 24.5857
34.8227 24.3249
35.0098 24.0597
35.1969 23.8153
35.3842 23.617
35.5716 23.3675
35.759 23.0891
35.9468 22.6996
36.1345 22.5101
36.3222 22.3058
36.5101 22.0496
36.6981 21.7358
36.8861 21.4382
37.0743 21.1316
37.2626 20.8743
37.451 20.6259
37.6395 20.4833
37.8281 20.1668
38.0168 19.8229
38.2056 19.6159
38.3945 19.3948
38.5837 19.1419
38.7728 18.9001
38.9621 18.6002
39.1514 18.3935
39.3409 18.104
39.5304 17.9433
39.7201 17.7442
39.9099 17.5443
40.0999 17.3011
40.2899 17.0434
40.48 16.8472
40.6703 16.6183
40.8607 16.3985
41.0512 16.173
41.242 15.9133
41.4327 15.8006
41.6236 15.6043
41.8146 15.3391
42.0057 15.1406
42.1969 14.964
42.3882 14.7575
42.5797 14.5781
42.7713 14.3061
42.963 14.23
43.1549 13.9737
43.3468 13.7993
43.5389 13.6289
43.7312 13.4075
43.9237 13.2257
44.1162 13.0425
44.3088 12.8439
44.5016 12.6935
44.6945 12.5033
44.8875 12.3552
45.0806 12.17
45.2739 12.0038
45.4673 11.8436
45.6609 11.6548
45.8546 11.493
46.0484 11.3421
46.2424 11.1491
46.4365 11.0022
46.631 10.8121
46.8254 10.686
47.0199 10.53
47.2146 10.3579
47.4095 10.1884
47.6044 10.0583
47.7996 9.91371
47.9948 9.76096
48.1902 9.63464
48.3858 9.4798
48.5815 9.35549
48.7774 9.26907
48.9734 9.08985
49.1696 8.94708
49.3661 8.83151
49.5626 8.69558
49.7592 8.53146
49.956 8.43335
50.153 8.2798
50.3501 8.13666
50.5474 8.06081
50.7448 7.94188
50.9424 7.79694
51.1402 7.65359
51.3381 7.54538
51.5362 7.42786
51.7344 7.2967
51.9328 7.16161
52.1316 7.09035
52.3304 6.9712
52.5293 6.83315
52.7284 6.73704
52.9276 6.60545
53.1271 6.52027
53.3267 6.38879
53.5265 6.31185
53.7264 6.19082
53.9266 6.03803
54.1269 5.93132
54.3274 5.84175
54.528 5.71895
54.7289 5.5862
54.9301 5.38246
55.1314 5.24236
55.3328 5.05592
55.5344 4.87362
55.7361 4.74246

File: Ni3Fe_FD0960.xy
TT I
1.27165 7.52716
1.45013 6.44587
1.62863 5.33464
1.80712 4.59073
1.98562 4.74726
2.16411 4.67848
2.34263 5.59683
2.52115 7.30484
2.69965 8.76143
2.87818 9.32724
3.05672 11.2046
3.23527 15.4932
3.4138 18.6337
3.59237 23.7875
3.77094 25.9697
3.9495 29.5922
4.12809 33.923
4.30669 179.698
4.4853 60.6903
4.6639 54.2904
4.84253 66.0141
5.02118 85.0201
5.19981 287.244
5.37848 175.123
5.55716 99.8857
5.73586 90.6249
5.91455 91.2027
6.09328 4564.94
6.27201 80.0552
6.45075 66.5306
6.62952 61.4994
6.8083 57.7619
6.98711 55.003
7.16591 54.7733
7.34475 83.1175
7.5236 54.0577
7.70247 55.5864
7.88135 56.7179
8.06026 61.0891
8.23919 68.2073
8.41812 82.6324
8.59709 1162.87
8.77609 95.9975
8.9551 89.2675
9.13412 80.5875
9.31318 81.5624
9.49226 83.1282
9.67134 95.3813
9.85047 97.8487
10.0296 307.917
10.2088 363.005
10.388 101.695
10.5672 529.739
10.7465 84.7056
10.9257 76.7676
11.105 70.2054
11.2844 68.4621
11.4637 63.5764
11.6431 62.4363
11.8225 61.2689
12.002 62.1718
12.1814 156.233
12.3609 68.3241
12.5405 63.3325
12.72 68.1223
12.8996 69.3616
13.0792 77.3942
13.2589 237.694
13.4386 119.009
13.6183 249.452
13.7981 94.8394
13.9779 74.3773
14.1577 70.9778
14.3376 69.869
14.5175 67.2812
14.6974 69.0142
14.8774 106.952
15.0574 145.146
15.2374 69.2385
15.4175 65.0648
15.5976 64.5336
15.7778 92.0198
15.958 148.785
16.1382 61.1815
16.3185 57.3913
16.4988 54.6322
16.6792 53.4768
16.8596 53.9398
17.04 54.5427
17.2205 65.3978
17.401 69.0136
17.5815 57.8406
17.7622 59.8689
17.9428 71.2751
18.1237 137.393
18.3044 90.0331
18.4852 75.1663
18.666 59.1682
18.8469 56.7503
19.0278 55.7264
19.2088 58.4139
19.3898 74.6207
19.5709 53.2241
19.752 52.3023
19.9332 54.9386
20.1144 68.7028
20.2957 63.7821
20.477 52.5151
20.6586 48.6428
20.84 47.8178
21.0215 47.7492
21.203 49.9942
21.3846 48.0641
21.5662 47.7937
21.7479 51.4562
21.9297 63.2803
22.1115 55.3278
22.2933 48.8717
22.4753 47.9308
22.6572 47.8425
22.8393 51.0054
23.0214 56.1087
23.2037 47.8574
23.3859 48.7035
23.5682 56.5059
23.7505 47.3345
23.9329 44.253
24.1154 43.4448
24.2979 42.6107
24.4805 42.1585
24.6631 42.1572
24.8458 41.4292
25.0286 42.1707
25.2114 43.8398
25.3943 43.7765
25.5773 40.1257
25.7605 39.6308
25.9436 40.1499
26.1268 40.9895
26.31 39.4487
26.4933 40.0606
26.6767 41.4384
26.8601 39.7064
27.0437 38.1238
27.2272 37.8781
27.4109 37.7881
27.5946 37.6181
27.7784 37.272
27.9623 37.879
28.1462 38.0846
28.3304 36.6025
28.5145 35.3739
28.6987 35.022
28.8829 34.7828
29.0673 34.0765
29.2517 33.7795
29.4361 33.5085
29.6207 32.6083
29.8053 32.294
29.99 32.063
30.1748 31.8584
30.3597 31.7049
30.5447 31.6134
30.7297 31.7176
30.915 30.9923
31.1002 30.5251
31.2855 30.3339
31.4708 30.2793
31.6563 29.9306
31.8418 29.6378
32.0275 29.4604
32.2132 28.8705
32.399 28.4854
32.5848 27.8826
32.7708 27.7558
32.9569 27.4733
33.143 27.423
33.3293 26.9743
33.5158 26.5569
33.7022 26.1419
33.8887 25.8631
34.0753 25.5289
34.262 25.1668
34.4488 24.8526
34.6357 24.6164
34.8227 24.2484
35.0098 24.0634
35.1969 23.7952
35.3842 23.5753
35.5716 23.3261
35.759 23.0877
35.9468 22.7276
36.1345 22.5723
36.3222 22.243
36.5101 22.0352
36.6981 21.6952
36.8861 21.4013
37.0743 21.1107
37.2626 20.8606
37.451 20.6275
37.6395 20.434
37.8281 20.1449
38.0168 19.8198
38.2056 19.6055
38.3945 19.3457
38.5837 19.1216
38.7728 18.9024
38.9621 18.6157
39.1514 18.413
39.3409 18.1412
39.5304 17.9175
39.7201 17.767
39.9099 17.5216
40.0999 17.248
40.2899 17.0381
40.48 16.8513
40.6703 16.6923
40.8607 16.4205
41.0512 16.2452
41.242 15.958
41.4327 15.7632
41.6236 15.6134
41.8146 15.3984
42.0057 15.1258
42.1969 14.9556
42.3882 14.8145
42.5797 14.601
42.7713 14.343
42.963 14.1991
43.1549 13.9775
43.3468 13.7668
43.5389 13.633
43.7312 13.4471
43.9237 13.1986
44.1162 13.0707
44.3088 12.8513
44.5016 12.6587
44.6945 12.5012
44.8875 12.3343
45.0806 12.1981
45.2739 12.0202
45.4673 11.8532
45.6609 11.6652
45.8546 11.484
46.0484 11.3264
46.2424 11.196
46.4365 11.0464
46.631 10.8274
46.8254 10.6647
47.0199 10.5266
47.2146 10.3677
47.4095 10.1849
47.6044 10.0529
47.7996 9.91149
47.9948 9.75566
48.1902 9.66035
48.3858 9.52175
48.5815 9.3494
48.7774 9.27362
48.9734 9.08808
49.1696 8.9348
49.3661 8.80637
49.5626 8.66256
49.7592 8.53908
49.956 8.46059
50.153 8.31855
50.3501 8.1787
50.5474 8.07021
50.7448 7.93846
50.9424 7.80635
51.1402 7.65637
51.3381 7.54939
51.5362 7.43694
51.7344 7.31797
51.9328 7.20343
52.1316 7.05884
52.3304 6.97519
52.5293 6.8353
52.7284 6.7281
52.9276 6.62495
53.1271 6.50327
53.3267 6.40162
53.5265 6.27921
53.7264 6.17218
53.9266 6.08902
54.1269 5.9898
54.3274 5.82714
54.528 5.73307
54.7289 5.53285
54.9301 5.38246
55.1314 5.2805
55.3328 5.09163
55.5344 4.894
55.7361 4.70672

File: Ni3Fe_FD0961.xy
TT I
1.27165 7.30284
1.45013 6.54463
1.62863 5.67141
1.80712 4.40954
1.98562 4.75766
2.16411 5.23735
2.34263 6.22066
2.52115 7.29132
2.69965 8.70631
2.87818 9.21277
3.05672 11.3483
3.23527 15.5399
3.4138 19.0134
3.59237 23.8736
3.77094 26.1087
3.9495 29.761
4.12809 34.3936
4.30669 181.457
4.4853 61.6641
4.6639 54.7241
4.84253 66.1387
5.02118 84.6184
5.19981 287.052
5.37848 174.344
5.55716 100.212
5.73586 90.3477
5.91455 91.2389
6.09328 4588.73
6.27201 80.0909
6.45075 66.2527
6.62952 61.9256
6.8083 57.8373
6.98711 55.0672
7.16591 54.1649
7.34475 83.0794
7.5236 53.9764
7.70247 55.3339
7.88135 56.8371
8.06026 61.2804
8.23919 68.3807
8.41812 82.7727
8.59709 1164.37
8.77609 96.4017
8.9551 89.2338
9.13412 81.0789
9.31318 81.1976
9.49226 83.3709
9.67134 95.5225
9.85047 98.2264
10.0296 307.467
10.2088 360.444
10.388 101.823
10.5672 528.754
10.7465 84.7784
10.9257 77.0017
11.105 70.5035
11.2844 68.6537
11.4637 63.7648
11.6431 62.4107
11.8225 61.5161
12.002 62.0847
12.1814 155.878
12.3609 68.4863
12.5405 63.1441
12.72 68.3151
12.8996 69.6494
13.0792 77.2035
13.2589 237.901
13.4386 118.695
13.6183 249.0
13.7981 94.7443
13.9779 74.3459
14.1577 71.0131
14.3376 69.8406
14.5175 67.8084
14.6974 69.1122
14.8774 106.922
15.0574 144.736
15.2374 69.3066
15.4175 65.1764
15.5976 64.5646
15.7778 91.8404
15.958 148.342
16.1382 61.0442
16.3185 57.3138
16.4988 54.4778
16.6792 53.1957
16.8596 54.0014
17.04 54.5441
17.2205 65.5615
17.401 69.0419
17.5815 58.0661
17.7622 59.8931
17.9428 71.2714
18.1237 137.172
18.3044 90.1646
18.4852 75.1546
18.666 59.3054
18.8469 57.1625
19.0278 55.6821
19.2088 58.1756
19.3898 74.6015
19.5709 53.294
19.752 52.3954
19.9332 54.9839
20.1144 68.6267
20.2957 63.8105
20.477 52.3868
20.6586 48.8246
20.84 47.9641
21.0215 47.5234
21.203 50.0623
21.3846 48.0281
21.5662 47.8686
21.7479 51.2659
21.9297 63.3036
22.1115 55.375
22.2933 48.8595
22.4753 47.816
22.6572 48.0071
22.8393 50.8865
23.0214 56.0106
23.2037 47.8795
23.3859 48.6619
23.5682 56.425
23.7505 47.3005
23.9329 44.3149
24.1154 43.43
24.2979 42.6072
24.4805 42.1909
24.6631 42.0634
24.8458 41.5591
25.0286 42.0233
25.2114 43.8399
25.3943 43.7756
25.5773 40.2185
25.7605 39.721
25.9436 40.0926
26.1268 40.8335
26.31 39.4197
26.4933 39.9806
26.6767 41.4346
26.8601 39.8834
27.0437 38.1394
27.2272 37.7132
27.4109 37.704
27.5946 37.7311
27.7784 37.0406
27.9623 37.7355
28.1462 38.041
28.3304 36.4724
28.5145 35.2907
28.6987 34.8971
28.8829 34.8302
29.0673 34.0961
29.2517 33.8391
29.4361 33.6052
29.6207 32.5442
29.8053 32.3645
29.99 31.9964
30.1748 31.9229
30.3597 31.6052
30.5447 31.5672
30.7297 31.6225
30.915 30.9824
31.1002 30.5614
31.2855 30.2669
31.4708 30.2962
31.6563 29.8646
31.8418 29.5659
32.0275 29.3574
32.2132 28.8568
32.399 28.3764
32.5848 27.9829
32.7708 27.6142
32.9569 27.475
33.143 27.3386
33.3293 26.9
33.5158 26.5618
33.7022 26.1599
33.8887 25.9556
34.0753 25.58
34.262 25.2125
34.4488 24.7885
34.6357 24.4363
34.8227 24.2186
35.0098 24.0723
35.1969 23.7702
35.3842 23.6035
35.5716 23.3418
35.759 23.0376
35.9468 22.757
36.1345 22.5591
36.3222 22.2414
36.5101 22.0567
36.6981 21.6916
36.8861 21.4402
37.0743 21.1221
37.2626 20.8923
37.451 20.6722
37.6395 20.4895
37.8281 20.1685
38.0168 19.8653
38.2056 19.5871
38.3945 19.3464
38.5837 19.0775
38.7728 18.8302
38.9621 18.6044
39.1514 18.3501
39.3409 18.0839
39.5304 17.9721
39.7201 17.7674
39.9099 17.5257
40.0999 17.269
40.2899 17.0661
40.48 16.7895
40.6703 16.6926
40.8607 16.4672
41.0512 16.2022
41.242 16.0069
41.4327 15.7942
41.6236 15.5098
41.8146 15.3621
42.0057 15.1576
42.1969 14.9491
42.3882 14.7895
42.5797 14.5807
42.7713 14.4006
42.963 14.154
43.1549 13.9764
43.3468 13.8051
43.5389 13.6206
43.7312 13.4521
43.9237 13.252
44.1162 13.0416
44.3088 12.8574
44.5016 12.6823
44.6945 12.5033
44.8875 12.3285
45.0806 12.2143
45.2739 11.983
45.4673 11.8465
45.6609 11.6542
45.8546 11.5369
46.0484 11.3299
46.2424 11.165
46.4365 11.0245
46.631 10.8193
46.8254 10.6957
47.0199 10.5613
47.2146 10.3903
47.4095 10.247
47.6044 10.0918
47.7996 9.9188
47.9948 9.77179
48.1902 9.63004
48.3858 9.49923
48.5815 9.34405
48.7774 9.26555
48.9734 9.05301
49.1696 8.94785
49.3661 8.82897
49.5626 8.65408
49.7592 8.57496
49.956 8.41774
50.153 8.28778
50.3501 8.17525
50.5474 8.04269
50.7448 7.93639
50.9424 7.80472
51.1402 7.68884
51.3381 7.52646
51.5362 7.42105
51.7344 7.28632
51.9328 7.15148
52.1316 7.05689
52.3304 6.96307
52.5293 6.81619
52.7284 6.73317
52.9276 6.61969
53.1271 6.50817
53.3267 6.39192
53.5265 6.29699
53.7264 6.16317
53.9266 6.07243
54.1269 5.93984
54.3274 5.82588
54.528 5.7078
54.7289 5.57466
54.9301 5.39908
55.1314 5.26445
55.3328 5.03148
55.5344 4.90416
55.7361 4.71891

File: Ni3Fe_FD0962.xy
TT I
1.27165 7.24203
1.45013 6.61006
1.62863 5.56484
1.80712 5.22213
1.98562 4.58026
2.16411 4.91533
2.34263 5.98587
2.52115 7.2474
2.69965 8.80937
2.87818 9.07023
3.05672 11.2071
3.23527 15.6022
3.4138 19.2461
3.59237 23.5428
3.77094 25.8955
3.9495 29.7409
4.12809 34.3152
4.30669 184.635
4.4853 61.4688
4.6639 54.5207
4.84253 66.8647
5.02118 84.8544
5.19981 286.391
5.37848 173.45
5.55716 100.234
5.73586 90.4215
5.91455 91.3064
6.09328 4627.78
6.27201 80.5497
6.45075 66.4907
6.62952 61.7826
6.8083 57.7822
6.98711 55.0224
7.16591 54.4959
7.34475 83.5087
7.5236 53.8685
7.70247 55.076
7.88135 56.8164
8.06026 61.3184
8.23919 68.7216
8.41812 83.1288
8.59709 1166.57
8.77609 96.7473
8.9551 89.1504
9.13412 80.7914
9.31318 81.6401
9.49226 83.4459
9.67134 95.1663
9.85047 97.9429
10.0296 306.613
10.2088 357.625
10.388 101.891
10.5672 525.212
10.7465 84.717
10.9257 76.7594
11.105 70.81
11.2844 68.7401
11.4637 63.5827
11.6431 62.5456
11.8225 61.6183
12.002 62.3177
12.1814 155.946
12.3609 68.5944
12.5405 63.2163
12.72 68.2976
12.8996 69.6669
13.0792 77.12
13.2589 237.562
13.4386 118.511
13.6183 249.184
13.7981 94.6808
13.9779 74.4217
14.1577 71.2284
14.3376 70.0159
14.5175 67.4944
14.6974 68.9411
14.8774 106.821
15.0574 144.432
15.2374 69.4719
15.4175 65.2729
15.5976 64.2857
15.7778 91.6746
15.958 148.235
16.1382 61.1694
16.3185 57.4002
16.4988 54.5001
16.6792 53.3595
16.8596 54.2697
17.04 54.5935
17.2205 65.3706
17.401 69.1009
17.5815 58.0912
17.7622 59.8919
17.9428 71.26
18.1237 137.182
18.3044 90.0182
18.4852 75.0207
18.666 59.2291
18.8469 56.9897
19.0278 55.9661
19.2088 58.0289
19.3898 74.5664
19.5709 53.1576
19.752 52.3119
19.9332 55.1321
20.1144 68.707
20.2957 63.7953
20.477 52.3579
20.6586 48.7682
20.84 47.9502
21.0215 47.7885
21.203 49.9039
21.3846 48.0791
21.5662 48.0135
21.7479 51.4569
21.9297 63.4517
22.1115 55.2693
22.2933 48.9841
22.4753 48.0613
22.6572 47.8649
22.8393 50.989
23.0214 56.0894
23.2037 47.8339
23.3859 48.6762
23.5682 56.3886
23.7505 47.387
23.9329 44.3243
24.1154 43.3566
24.2979 42.6621
24.4805 42.1118
24.6631 41.9745
24.8458 41.4391
25.0286 42.1341
25.2114 43.7778
25.3943 43.7907
25.5773 40.2442
25.7605 39.7627
25.9436 39.9864
26.1268 40.9624
26.31 39.2035
26.4933 39.9046
26.6767 41.4039
26.8601 39.5958
27.0437 38.0924
27.2272 37.7798
27.4109 37.6333
27.5946 37.7953
27.7784 37.1265
27.9623 37.7211
28.1462 38.1248
28.3304 36.4827
28.5145 35.3218
28.6987 34.9572
28.8829 34.8571
29.0673 34.0137
29.2517 33.7506
29.4361 33.4219
29.6207 32.5948
29.8053 32.2687
29.99 31.9379
30.1748 31.8237
30.3597 31.7551
30.5447 31.5679
30.7297 31.6393
30.915 31.0897
31.1002 30.6453
31.2855 30.2946
31.4708 30.2654
31.6563 29.8293
31.8418 29.6408
32.0275 29.3196
32.2132 28.8358
32.399 28.3492
32.5848 28.0267
32.7708 27.636
32.9569 27.4205
33.143 27.3566
33.3293 26.9211
33.5158 26.5136
33.7022 26.148
33.8887 25.8472
34.0753 25.5929
34.262 25.1684
34.4488 24.7921
34.6357 24.5056
34.8227 24.2458
35.0098 24.0659
35.1969 23.7801
35.3842 23.6721
35.5716 23.3653
35.759 23.0046
35.9468 22.7723
36.1345 22.5747
36.3222 22.2779
36.5101 21.9891
36.6981 21.7369
36.8861 21.3926
37.0743 21.1508
37.2626 20.874
37.451 20.643
37.6395 20.4314
37.8281 20.0878
38.0168 19.8749
38.2056 19.6091
38.3945 19.3174
38.5837 19.0756
38.7728 18.8049
38.9621 18.5958
39.1514 18.3724
39.3409 18.1386
39.5304 17.864
39.7201 17.6938
39.9099 17.5199
40.0999 17.2673
40.2899 17.0263
40.48 16.8252
40.6703 16.6376
40.8607 16.4545
41.0512 16.2184
41.242 16.0178
41.4327 15.7522
41.6236 15.5863
41.8146 15.4076
42.0057 15.148
42.1969 14.9777
42.3882 14.8047
42.5797 14.5487
42.7713 14.317
42.963 14.1615
43.1549 13.9751
43.3468 13.7528
43.5389 13.625
43.7312 13.4302
43.9237 13.1989
44.1162 13.0094
44.3088 12.8212
44.5016 12.7015
44.6945 12.4741
44.8875 12.3558
45.0806 12.1373
45.2739 12.0122
45.4673 11.8044
45.6609 11.6478
45.8546 11.4836
46.0484 11.3106
46.2424 11.1955
46.4365 10.9978
46.631 10.8342
46.8254 10.6907
47.0199 10.5096
47.2146 10.3857
47.4095 10.2339
47.6044 10.0403
47.7996 9.92326
47.9948 9.76552
48.1902 9.64157
48.3858 9.47138
48.5815 9.35373
48.7774 9.22686
48.9734 9.08391
49.1696 8.97904
49.3661 8.7874
49.5626 8.63392
49.7592 8.5785
49.956 8.40235
50.153 8.27684
50.3501 8.14154
50.5474 8.03829
50.7448 7.90566
50.9424 7.82289
51.1402 7.67447
51.3381 7.55555
51.5362 7.41165
51.7344 7.27865
51.9328 7.20081
52.1316 7.02675
52.3304 6.94252
52.5293 6.8141
52.7284 6.7385
52.9276 6.60717
53.1271 6.51686
53.3267 6.39028
53.5265 6.30403
53.7264 6.19157
53.9266 6.0832
54.1269 5.96018
54.3274 5.84339
54.528 5.72813
54.7289 5.52605
54.9301 5.40702
55.1314 5.28736
55.3328 5.05138
55.5344 4.89749
55.7361 4.76171

File: Ni3Fe_FD0963.xy
TT I
1.27165 7.60876
1.45013 6.16789
1.62863 4.70958
1.80712 5.08968
1.98562 4.73799
2.16411 5.07759
2.34263 5.20048
2.52115 7.79522
2.69965 9.00302
2.87818 8.61073
3.05672 11.361
3.23527 15.2707
3.4138 18.6103
3.59237 23.9868
3.77094 25.8307
3.9495 29.6633
4.12809 34.6212
4.30669 187.288
4.4853 62.1555
4.6639 54.8523
4.84253 66.3896
5.02118 85.0053
5.19981 286.06
5.37848 173.036
5.55716 99.9622
5.73586 90.7806
5.91455 91.2167
6.09328 4628.51
6.27201 80.6591
6.45075 66.3224
6.62952 61.9971
6.8083 57.7089
6.98711 54.9074
7.16591 54.6128
7.34475 84.3341
7.5236 53.7991
7.70247 55.413
7.88135 56.7669
8.06026 61.1689
8.23919 68.3282
8.41812 83.4267
8.59709 1166.18
8.77609 96.5965
8.9551 89.5531
9.13412 80.7731
9.31318 81.2802
9.49226 82.5714
9.67134 96.3188
9.85047 97.9845
10.0296 306.918
10.2088 355.101
10.388 101.721
10.5672 527.837
10.7465 84.7365
10.9257 77.1182
11.105 70.6081
11.2844 68.9327
11.4637 63.8462
11.6431 62.4741
11.8225 61.6254
12.002 62.2392
12.1814 156.568
12.3609 68.5079
12.5405 63.3952
12.72 68.2805
12.8996 69.5887
13.0792 77.4743
13.2589 238.032
13.4386 118.342
13.6183 249.932
13.7981 94.2586
13.9779 74.3984
14.1577 71.3137
14.3376 70.1669
14.5175 67.8076
14.6974 68.9348
14.8774 106.95
15.0574 144.274
15.2374 69.1338
15.4175 65.1919
15.5976 64.5635
15.7778 91.7311
15.958 147.533
16.1382 61.2886
16.3185 57.4134
16.4988 54.3948
16.6792 53.6022
16.8596 54.22
17.04 54.5966
17.2205 65.5287
17.401 69.1322
17.5815 58.116
17.7622 60.065
17.9428 71.0687
18.1237 137.092
18.3044 90.0036
18.4852 74.7428
18.666 59.265
18.8469 57.0174
19.0278 55.8975
19.2088 58.1287
19.3898 74.593
19.5709 53.0937
19.752 52.2191
19.9332 55.042
20.1144 68.7078
20.2957 63.639
20.477 52.5608
20.6586 48.8015
20.84 47.9865
21.0215 47.5297
21.203 50.1003
21.3846 48.181
21.5662 47.8165
21.7479 51.5112
21.9297 63.3642
22.1115 55.1521
22.2933 48.9014
22.4753 47.897
22.6572 47.7779
22.8393 50.9414
23.0214 56.1987
23.2037 47.8505
23.3859 48.8461
23.5682 56.5142
23.7505 47.2472
23.9329 44.5993
24.1154 43.3499
24.2979 42.7522
24.4805 42.2639
24.6631 41.9728
24.8458 41.3994
25.0286 42.0465
25.2114 43.785
25.3943 43.7077
25.5773 40.1233
25.7605 39.646
25.9436 40.0836
26.1268 41.0905
26.31 39.3899
26.4933 40.1243
26.6767 41.4236
26.8601 39.7083
27.0437 38.166
27.2272 37.9172
27.4109 37.6976
27.5946 37.7352
27.7784 37.261
27.9623 37.7763
28.1462 38.1804
28.3304 36.5051
28.5145 35.213
28.6987 34.9
28.8829 34.8013
29.0673 34.0509
29.2517 33.732
29.4361 33.5366
29.6207 32.5778
29.8053 32.3644
29.99 32.0177
30.1748 31.8955
30.3597 31.7145
30.5447 31.6376
30.7297 31.6843
30.915 31.0621
31.1002 30.5221
31.2855 30.3698
31.4708 30.3184
31.6563 29.8278
31.8418 29.5782
32.0275 29.4066
32.2132 28.9134
32.399 28.5347
32.5848 28.0091
32.7708 27.6945
32.9569 27.5823
33.143 27.3307
33.3293 26.9815
33.5158 26.5575
33.7022 26.1686
33.8887 25.7884
34.0753 25.5168
34.262 25.1934
34.4488 24.8086
34.6357 24.5375
34.8227 24.2278
35.0098 24.0994
35.1969 23.7131
35.3842 23.6067
35.5716 23.407
35.759 23.049
35.9468 22.7584
36.1345 22.4796
36.3222 22.3346
36.5101 22.0092
36.6981 21.7109
36.8861 21.4285
37.0743 21.0535
37.2626 20.9128
37.451 20.6005
37.6395 20.4931
37.8281 20.1783
38.0168 19.7364
38.2056 19.6368
38.3945 19.2954
38.5837 19.1312
38.7728 18.9087
38.9621 18.632
39.1514 18.3661
39.3409 18.1122
39.5304 17.9063
39.7201 17.7383
39.9099 17.5271
40.0999 17.2818
40.2899 17.0776
40.48 16.8347
40.6703 16.6045
40.8607 16.4797
41.0512 16.1922
41.242 15.9236
41.4327 15.8075
41.6236 15.5472
41.8146 15.3842
42.0057 15.2082
42.1969 14.9806
42.3882 14.749
42.5797 14.5552
42.7713 14.3765
42.963 14.141
43.1549 14.0134
43.3468 13.7815
43.5389 13.5967
43.7312 13.4087
43.9237 13.2381
44.1162 13.0329
44.3088 12.8527
44.5016 12.7338
44.6945 12.5111
44.8875 12.321
45.0806 12.1684
45.2739 11.9981
45.4673 11.8416
45.6609 11.6567
45.8546 11.4739
46.0484 11.3023
46.2424 11.1347
46.4365 11.0168
46.631 10.81
46.8254 10.674
47.0199 10.5547
47.2146 10.3724
47.4095 10.2208
47.6044 10.0451
47.7996 9.92379
47.9948 9.788
48.1902 9.6347
48.3858 9.4721
48.5815 9.36631
48.7774 9.21992
48.9734 9.09358
49.1696 8.93955
49.3661 8.81743
49.5626 8.64821
49.7592 8.54422
49.956 8.40227
50.153 8.2817
50.3501 8.18199
50.5474 8.02793
50.7448 7.90031
50.9424 7.79553
51.1402 7.68938
51.3381 7.55566
51.5362 7.41227
51.7344 7.33144
51.9328 7.18764
52.1316 7.049
52.3304 6.9766
52.5293 6.83349
52.7284 6.71808
52.9276 6.59074
53.1271 6.57436
53.3267 6.39466
53.5265 6.23922
53.7264 6.15449
53.9266 6.0548
54.1269 6.00043
54.3274 5.88642
54.528 5.72607
54.7289 5.57155
54.9301 5.3679
55.1314 5.2615
55.3328 5.0588
55.5344 4.8963
55.7361 4.73887