Folder: NiFe_MOF_catalyst_paper/XRD (part 164)

File: Ni3Fe_FD0890.xy
TT I
1.27165 7.16498
1.45013 5.68033
1.62863 5.33051
1.80712 5.1644
1.98562 5.20781
2.16411 5.27289
2.34263 6.23479
2.52115 7.17477
2.69965 8.38955
2.87818 9.29883
3.05672 11.4999
3.23527 15.0037
3.4138 19.2417
3.59237 23.8811
3.77094 26.0825
3.9495 29.652
4.12809 34.6325
4.30669 231.107
4.4853 65.984
4.6639 54.5492
4.84253 65.8542
5.02118 84.9228
5.19981 286.662
5.37848 172.737
5.55716 99.4439
5.73586 90.2892
5.91455 91.7622
6.09328 4463.16
6.27201 80.8492
6.45075 66.2544
6.62952 61.8798
6.8083 57.8961
6.98711 55.2684
7.16591 54.5972
7.34475 92.996
7.5236 54.1848
7.70247 55.0957
7.88135 56.8235
8.06026 61.1905
8.23919 68.2483
8.41812 83.2786
8.59709 1148.43
8.77609 96.5322
8.9551 90.4532
9.13412 80.2622
9.31318 80.9903
9.49226 82.5095
9.67134 97.4187
9.85047 97.7709
10.0296 299.253
10.2088 368.343
10.388 102.234
10.5672 534.654
10.7465 84.3258
10.9257 77.317
11.105 70.7334
11.2844 69.5311
11.4637 63.9284
11.6431 62.8247
11.8225 61.2372
12.002 62.3299
12.1814 155.702
12.3609 69.274
12.5405 63.2274
12.72 69.1647
12.8996 69.488
13.0792 77.179
13.2589 228.582
13.4386 116.912
13.6183 244.877
13.7981 92.4966
13.9779 74.3269
14.1577 71.038
14.3376 70.2577
14.5175 67.4691
14.6974 68.9871
14.8774 105.114
15.0574 141.354
15.2374 69.8204
15.4175 65.2604
15.5976 64.3502
15.7778 90.359
15.958 152.055
16.1382 61.5326
16.3185 57.7856
16.4988 54.4785
16.6792 53.6727
16.8596 54.2319
17.04 54.5785
17.2205 64.9447
17.401 68.5497
17.5815 58.0439
17.7622 60.0925
17.9428 70.6697
18.1237 141.06
18.3044 88.9389
18.4852 74.3258
18.666 59.2149
18.8469 56.9092
19.0278 55.8614
19.2088 58.3524
19.3898 76.6525
19.5709 53.14
19.752 52.3178
19.9332 55.0854
20.1144 69.3291
20.2957 63.6955
20.477 52.3673
20.6586 48.8057
20.84 47.9748
21.0215 47.7608
21.203 50.0888
21.3846 47.9586
21.5662 47.7826
21.7479 51.3817
21.9297 64.3133
22.1115 55.353
22.2933 48.9016
22.4753 47.9305
22.6572 47.9683
22.8393 50.9784
23.0214 56.5782
23.2037 47.772
23.3859 48.7717
23.5682 56.7515
23.7505 47.2092
23.9329 44.5272
24.1154 43.4989
24.2979 42.7918
24.4805 42.1972
24.6631 42.0688
24.8458 41.5044
25.0286 42.0633
25.2114 44.0778
25.3943 43.9845
25.5773 40.3012
25.7605 39.8144
25.9436 40.2325
26.1268 41.1011
26.31 39.3216
26.4933 39.9973
26.6767 41.5859
26.8601 39.8736
27.0437 38.2503
27.2272 37.8932
27.4109 37.7509
27.5946 37.6911
27.7784 37.24
27.9623 37.7831
28.1462 38.1508
28.3304 36.4661
28.5145 35.2927
28.6987 35.0015
28.8829 34.9047
29.0673 34.0354
29.2517 33.656
29.4361 33.5948
29.6207 32.517
29.8053 32.4695
29.99 32.0461
30.1748 31.9808
30.3597 31.8415
30.5447 31.5929
30.7297 31.7327
30.915 30.9755
31.1002 30.5795
31.2855 30.3534
31.4708 30.3356
31.6563 29.8998
31.8418 29.6922
32.0275 29.4925
32.2132 28.9171
32.399 28.5116
32.5848 28.0112
32.7708 27.7276
32.9569 27.5102
33.143 27.3134
33.3293 27.0005
33.5158 26.5577
33.7022 26.1559
33.8887 25.9615
34.0753 25.5896
34.262 25.238
34.4488 24.8358
34.6357 24.5878
34.8227 24.3654
35.0098 24.1073
35.1969 23.8453
35.3842 23.6776
35.5716 23.3166
35.759 23.0954
35.9468 22.7617
36.1345 22.5212
36.3222 22.2719
36.5101 22.1245
36.6981 21.7602
36.8861 21.5447
37.0743 21.1639
37.2626 20.9046
37.451 20.7174
37.6395 20.4511
37.8281 20.2354
38.0168 19.8915
38.2056 19.6507
38.3945 19.3458
38.5837 19.1405
38.7728 18.9555
38.9621 18.6682
39.1514 18.4135
39.3409 18.1887
39.5304 17.9189
39.7201 17.7274
39.9099 17.5477
40.0999 17.2899
40.2899 17.0521
40.48 16.8372
40.6703 16.6744
40.8607 16.4496
41.0512 16.3011
41.242 16.0315
41.4327 15.8582
41.6236 15.5692
41.8146 15.4266
42.0057 15.2154
42.1969 14.9889
42.3882 14.7837
42.5797 14.6121
42.7713 14.3969
42.963 14.2531
43.1549 13.9956
43.3468 13.8352
43.5389 13.6571
43.7312 13.4093
43.9237 13.303
44.1162 13.0834
44.3088 12.8913
44.5016 12.7219
44.6945 12.563
44.8875 12.3775
45.0806 12.1798
45.2739 11.9859
45.4673 11.8434
45.6609 11.6821
45.8546 11.5362
46.0484 11.3718
46.2424 11.2124
46.4365 11.0459
46.631 10.8447
46.8254 10.7072
47.0199 10.5334
47.2146 10.4023
47.4095 10.2317
47.6044 10.0929
47.7996 9.91556
47.9948 9.79478
48.1902 9.63394
48.3858 9.4908
48.5815 9.37516
48.7774 9.25763
48.9734 9.1466
49.1696 8.95192
49.3661 8.83423
49.5626 8.65811
49.7592 8.52637
49.956 8.42306
50.153 8.32582
50.3501 8.17568
50.5474 8.05034
50.7448 7.94605
50.9424 7.81897
51.1402 7.69869
51.3381 7.56095
51.5362 7.47182
51.7344 7.31935
51.9328 7.17444
52.1316 7.07007
52.3304 6.95652
52.5293 6.84435
52.7284 6.76197
52.9276 6.6198
53.1271 6.53463
53.3267 6.44895
53.5265 6.30022
53.7264 6.21629
53.9266 6.05203
54.1269 5.9689
54.3274 5.88603
54.528 5.75452
54.7289 5.58181
54.9301 5.41004
55.1314 5.23127
55.3328 5.09446
55.5344 4.92628
55.7361 4.74332

File: Ni3Fe_FD0891.xy
TT I
1.27165 6.99902
1.45013 6.04896
1.62863 4.90584
1.80712 5.02722
1.98562 4.7327
2.16411 4.78096
2.34263 5.49367
2.52115 7.15325
2.69965 8.99283
2.87818 8.99886
3.05672 11.005
3.23527 15.3549
3.4138 19.2457
3.59237 24.1929
3.77094 25.894
3.9495 29.5523
4.12809 34.1113
4.30669 216.735
4.4853 64.6873
4.6639 54.3122
4.84253 65.847
5.02118 84.6527
5.19981 289.121
5.37848 170.062
5.55716 99.0892
5.73586 90.1459
5.91455 90.7406
6.09328 4512.01
6.27201 80.0827
6.45075 65.7404
6.62952 61.462
6.8083 57.3707
6.98711 54.4747
7.16591 54.5802
7.34475 90.8241
7.5236 54.0425
7.70247 55.3718
7.88135 56.7198
8.06026 60.8426
8.23919 68.1599
8.41812 83.1113
8.59709 1158.0
8.77609 96.0913
8.9551 89.639
9.13412 80.3832
9.31318 80.9394
9.49226 82.9956
9.67134 96.5877
9.85047 97.1555
10.0296 303.37
10.2088 357.857
10.388 101.952
10.5672 534.517
10.7465 84.31
10.9257 76.9312
11.105 70.217
11.2844 69.1146
11.4637 63.9039
11.6431 62.2903
11.8225 61.0165
12.002 62.2474
12.1814 155.937
12.3609 68.8062
12.5405 63.1742
12.72 68.6453
12.8996 69.4877
13.0792 76.7999
13.2589 230.549
13.4386 115.16
13.6183 247.139
13.7981 92.0648
13.9779 74.0979
14.1577 71.0466
14.3376 70.0487
14.5175 67.4348
14.6974 68.9198
14.8774 105.872
15.0574 138.908
15.2374 69.5287
15.4175 64.8918
15.5976 64.5861
15.7778 90.4527
15.958 151.186
16.1382 61.5186
16.3185 57.4494
16.4988 54.2935
16.6792 53.5907
16.8596 54.3938
17.04 54.4902
17.2205 65.0694
17.401 68.5716
17.5815 57.9138
17.7622 60.1391
17.9428 70.7957
18.1237 140.788
18.3044 89.2966
18.4852 73.9411
18.666 59.245
18.8469 56.9422
19.0278 55.8175
19.2088 58.0909
19.3898 76.2894
19.5709 52.9663
19.752 52.3506
19.9332 55.0064
20.1144 69.3802
20.2957 63.895
20.477 52.2671
20.6586 48.8961
20.84 48.1274
21.0215 47.7169
21.203 50.079
21.3846 47.821
21.5662 47.7092
21.7479 51.3245
21.9297 64.3332
22.1115 55.3123
22.2933 48.9142
22.4753 47.87
22.6572 47.7455
22.8393 50.834
23.0214 56.6407
23.2037 47.7896
23.3859 48.5879
23.5682 56.9749
23.7505 47.258
23.9329 44.4488
24.1154 43.2631
24.2979 42.5295
24.4805 42.2393
24.6631 41.9818
24.8458 41.588
25.0286 41.9951
25.2114 43.8785
25.3943 43.9647
25.5773 40.1786
25.7605 39.6081
25.9436 40.0962
26.1268 40.8611
26.31 39.2509
26.4933 40.1218
26.6767 41.4398
26.8601 39.6642
27.0437 38.2224
27.2272 37.8474
27.4109 37.7151
27.5946 37.7175
27.7784 37.1761
27.9623 37.812
28.1462 38.1211
28.3304 36.4913
28.5145 35.2302
28.6987 35.0222
28.8829 34.9083
29.0673 34.035
29.2517 33.7613
29.4361 33.6802
29.6207 32.5187
29.8053 32.2867
29.99 31.904
30.1748 31.8782
30.3597 31.7202
30.5447 31.6394
30.7297 31.7255
30.915 31.0749
31.1002 30.5666
31.2855 30.3181
31.4708 30.3113
31.6563 29.825
31.8418 29.5296
32.0275 29.3715
32.2132 28.8318
32.399 28.4514
32.5848 27.997
32.7708 27.6747
32.9569 27.519
33.143 27.3726
33.3293 26.9382
33.5158 26.5595
33.7022 26.1637
33.8887 25.7721
34.0753 25.6524
34.262 25.1902
34.4488 24.8413
34.6357 24.5598
34.8227 24.2927
35.0098 24.099
35.1969 23.809
35.3842 23.6212
35.5716 23.4154
35.759 22.9631
35.9468 22.7253
36.1345 22.5247
36.3222 22.172
36.5101 22.0491
36.6981 21.6802
36.8861 21.4667
37.0743 21.1632
37.2626 20.8974
37.451 20.6716
37.6395 20.4441
37.8281 20.138
38.0168 19.8982
38.2056 19.6286
38.3945 19.3443
38.5837 19.1376
38.7728 18.9523
38.9621 18.624
39.1514 18.3853
39.3409 18.1223
39.5304 17.972
39.7201 17.7682
39.9099 17.6137
40.0999 17.3287
40.2899 17.1656
40.48 16.8138
40.6703 16.6658
40.8607 16.4852
41.0512 16.2704
41.242 16.0233
41.4327 15.7751
41.6236 15.5693
41.8146 15.3749
42.0057 15.2158
42.1969 14.9854
42.3882 14.8193
42.5797 14.5809
42.7713 14.4133
42.963 14.2321
43.1549 14.0306
43.3468 13.8149
43.5389 13.6457
43.7312 13.4095
43.9237 13.2691
44.1162 13.0874
44.3088 12.8599
44.5016 12.6726
44.6945 12.5393
44.8875 12.3413
45.0806 12.1965
45.2739 11.9938
45.4673 11.8478
45.6609 11.6346
45.8546 11.5268
46.0484 11.3396
46.2424 11.1717
46.4365 11.025
46.631 10.8818
46.8254 10.6935
47.0199 10.5424
47.2146 10.37
47.4095 10.2377
47.6044 10.0663
47.7996 9.93948
47.9948 9.79314
48.1902 9.6435
48.3858 9.53204
48.5815 9.35899
48.7774 9.23506
48.9734 9.14623
49.1696 8.97385
49.3661 8.79667
49.5626 8.6792
49.7592 8.54009
49.956 8.44126
50.153 8.32125
50.3501 8.16919
50.5474 8.01685
50.7448 7.90244
50.9424 7.8378
51.1402 7.68461
51.3381 7.55906
51.5362 7.42792
51.7344 7.29706
51.9328 7.17574
52.1316 7.08382
52.3304 7.00961
52.5293 6.85711
52.7284 6.75634
52.9276 6.60041
53.1271 6.53742
53.3267 6.38732
53.5265 6.29981
53.7264 6.15026
53.9266 6.06808
54.1269 5.98102
54.3274 5.84364
54.528 5.71729
54.7289 5.54458
54.9301 5.38774
55.1314 5.25859
55.3328 5.06486
55.5344 4.88863
55.7361 4.72197

File: Ni3Fe_FD0892.xy
TT I
1.27165 7.48047
1.45013 5.88386
1.62863 5.64773
1.80712 4.75477
1.98562 5.0543
2.16411 5.05778
2.34263 5.57597
2.52115 7.28027
2.69965 8.9897
2.87818 8.70223
3.05672 11.5173
3.23527 15.2437
3.4138 19.098
3.59237 23.7533
3.77094 26.0059
3.9495 29.6633
4.12809 34.5749
4.30669 208.068
4.4853 63.2877
4.6639 54.5952
4.84253 65.6459
5.02118 84.964
5.19981 293.729
5.37848 170.646
5.55716 99.3175
5.73586 89.8246
5.91455 91.3939
6.09328 4527.54
6.27201 80.3819
6.45075 65.8817
6.62952 61.8571
6.8083 57.6063
6.98711 54.8211
7.16591 54.0799
7.34475 88.4555
7.5236 53.9303
7.70247 55.0554
7.88135 56.5587
8.06026 61.0677
8.23919 68.0595
8.41812 83.2716
8.59709 1169.99
8.77609 96.0808
8.9551 89.5016
9.13412 80.352
9.31318 81.0762
9.49226 83.0639
9.67134 96.1556
9.85047 97.9293
10.0296 308.401
10.2088 351.046
10.388 101.731
10.5672 535.498
10.7465 84.6898
10.9257 76.5645
11.105 70.2935
11.2844 68.7876
11.4637 63.7278
11.6431 62.4622
11.8225 61.3214
12.002 62.1373
12.1814 156.34
12.3609 68.5353
12.5405 63.327
12.72 68.6955
12.8996 69.5762
13.0792 77.2216
13.2589 232.897
13.4386 115.199
13.6183 247.883
13.7981 91.9245
13.9779 74.2999
14.1577 71.0142
14.3376 70.1103
14.5175 67.4784
14.6974 68.8199
14.8774 106.426
15.0574 138.038
15.2374 69.2484
15.4175 65.0093
15.5976 64.3367
15.7778 91.174
15.958 150.718
16.1382 61.3378
16.3185 57.5667
16.4988 54.5899
16.6792 53.4122
16.8596 54.0328
17.04 54.5582
17.2205 64.8825
17.401 68.4356
17.5815 57.9651
17.7622 59.9594
17.9428 71.1205
18.1237 140.983
18.3044 89.5289
18.4852 73.9239
18.666 59.0747
18.8469 56.9997
19.0278 55.7092
19.2088 58.1437
19.3898 76.312
19.5709 53.1214
19.752 52.2543
19.9332 54.9504
20.1144 69.2761
20.2957 63.9464
20.477 52.2498
20.6586 48.8417
20.84 47.9466
21.0215 47.6956
21.203 50.2453
21.3846 47.9148
21.5662 47.7634
21.7479 51.6252
21.9297 64.5068
22.1115 55.4313
22.2933 48.8188
22.4753 47.9178
22.6572 47.9391
22.8393 50.9593
23.0214 56.5018
23.2037 47.8409
23.3859 48.7504
23.5682 57.0498
23.7505 47.1684
23.9329 44.41
24.1154 43.4052
24.2979 42.6252
24.4805 42.1097
24.6631 42.0546
24.8458 41.5081
25.0286 42.0816
25.2114 43.9578
25.3943 43.8393
25.5773 40.1873
25.7605 39.7017
25.9436 40.0777
26.1268 41.0344
26.31 39.2959
26.4933 39.9323
26.6767 41.521
26.8601 39.8584
27.0437 38.2418
27.2272 37.7093
27.4109 37.8051
27.5946 37.7567
27.7784 37.3065
27.9623 37.8212
28.1462 38.1099
28.3304 36.506
28.5145 35.3227
28.6987 34.9635
28.8829 34.8883
29.0673 34.1016
29.2517 33.7533
29.4361 33.5361
29.6207 32.5588
29.8053 32.3213
29.99 32.0793
30.1748 31.9588
30.3597 31.7558
30.5447 31.5953
30.7297 31.6943
30.915 31.0817
31.1002 30.6547
31.2855 30.3623
31.4708 30.3468
31.6563 29.8583
31.8418 29.6542
32.0275 29.4685
32.2132 28.8401
32.399 28.3958
32.5848 27.9841
32.7708 27.6873
32.9569 27.4464
33.143 27.2953
33.3293 26.9649
33.5158 26.529
33.7022 26.209
33.8887 25.9947
34.0753 25.6481
34.262 25.2502
34.4488 24.87
34.6357 24.585
34.8227 24.288
35.0098 24.0931
35.1969 23.7337
35.3842 23.5882
35.5716 23.432
35.759 23.0837
35.9468 22.728
36.1345 22.4627
36.3222 22.3131
36.5101 22.0083
36.6981 21.7143
36.8861 21.4501
37.0743 21.1603
37.2626 20.9492
37.451 20.6479
37.6395 20.5731
37.8281 20.1306
38.0168 19.9003
38.2056 19.6692
38.3945 19.3472
38.5837 19.1506
38.7728 18.8813
38.9621 18.7059
39.1514 18.4104
39.3409 18.1376
39.5304 17.9854
39.7201 17.7145
39.9099 17.5871
40.0999 17.316
40.2899 17.0513
40.48 16.8595
40.6703 16.6451
40.8607 16.4611
41.0512 16.2093
41.242 15.9575
41.4327 15.7912
41.6236 15.5815
41.8146 15.4506
42.0057 15.1582
42.1969 15.0297
42.3882 14.8099
42.5797 14.5664
42.7713 14.4021
42.963 14.1504
43.1549 13.9933
43.3468 13.7848
43.5389 13.6721
43.7312 13.4132
43.9237 13.2616
44.1162 13.0678
44.3088 12.8791
44.5016 12.6316
44.6945 12.5561
44.8875 12.3638
45.0806 12.1605
45.2739 12.0159
45.4673 11.8705
45.6609 11.6552
45.8546 11.5222
46.0484 11.3605
46.2424 11.2265
46.4365 11.0554
46.631 10.8647
46.8254 10.635
47.0199 10.5249
47.2146 10.4093
47.4095 10.2288
47.6044 10.108
47.7996 9.9191
47.9948 9.76097
48.1902 9.64018
48.3858 9.48926
48.5815 9.3877
48.7774 9.25947
48.9734 9.12616
49.1696 8.95734
49.3661 8.82474
49.5626 8.67966
49.7592 8.58886
49.956 8.42217
50.153 8.31819
50.3501 8.18396
50.5474 8.0375
50.7448 7.91723
50.9424 7.83052
51.1402 7.67941
51.3381 7.5367
51.5362 7.42103
51.7344 7.3171
51.9328 7.17875
52.1316 7.06778
52.3304 6.96941
52.5293 6.8327
52.7284 6.70799
52.9276 6.60222
53.1271 6.50666
53.3267 6.40989
53.5265 6.32218
53.7264 6.17048
53.9266 6.06282
54.1269 5.97098
54.3274 5.87482
54.528 5.73661
54.7289 5.54881
54.9301 5.3968
55.1314 5.28111
55.3328 5.04015
55.5344 4.91207
55.7361 4.73434

File: Ni3Fe_FD0893.xy
TT I
1.27165 7.58765
1.45013 6.13916
1.62863 5.4696
1.80712 5.18267
1.98562 4.22267
2.16411 4.86356
2.34263 6.01462
2.52115 8.05882
2.69965 9.18798
2.87818 9.59615
3.05672 11.1394
3.23527 14.9536
3.4138 18.9139
3.59237 23.782
3.77094 26.1625
3.9495 29.5676
4.12809 34.6226
4.30669 197.654
4.4853 62.9609
4.6639 54.6985
4.84253 66.2599
5.02118 85.0936
5.19981 299.527
5.37848 168.795
5.55716 99.6094
5.73586 90.6411
5.91455 91.5079
6.09328 4514.45
6.27201 79.9711
6.45075 66.3444
6.62952 61.8403
6.8083 57.6119
6.98711 55.0737
7.16591 54.2362
7.34475 86.3532
7.5236 53.8152
7.70247 55.302
7.88135 56.9286
8.06026 61.0963
8.23919 67.9572
8.41812 83.3052
8.59709 1180.57
8.77609 96.0107
8.9551 89.2602
9.13412 80.5598
9.31318 81.119
9.49226 82.617
9.67134 95.8746
9.85047 97.51
10.0296 312.414
10.2088 341.497
10.388 101.65
10.5672 534.401
10.7465 84.2625
10.9257 76.682
11.105 70.3529
11.2844 68.802
11.4637 63.7534
11.6431 62.4685
11.8225 61.2499
12.002 62.1067
12.1814 157.32
12.3609 68.4622
12.5405 63.1238
12.72 68.4165
12.8996 69.4948
13.0792 77.429
13.2589 235.005
13.4386 114.025
13.6183 249.978
13.7981 91.3268
13.9779 74.3876
14.1577 71.0111
14.3376 70.0303
14.5175 67.5204
14.6974 69.074
14.8774 106.952
15.0574 136.434
15.2374 69.1653
15.4175 65.1204
15.5976 64.6682
15.7778 91.4538
15.958 149.759
16.1382 61.2762
16.3185 57.3653
16.4988 54.3294
16.6792 53.6134
16.8596 54.0683
17.04 54.5779
17.2205 65.0854
17.401 68.0408
17.5815 57.7961
17.7622 60.0376
17.9428 71.2536
18.1237 140.78
18.3044 89.6799
18.4852 73.6471
18.666 59.4038
18.8469 56.8512
19.0278 55.8764
19.2088 58.1597
19.3898 76.0912
19.5709 53.1019
19.752 52.1219
19.9332 55.0685
20.1144 69.2891
20.2957 63.8815
20.477 52.264
20.6586 48.6986
20.84 47.7869
21.0215 47.7592
21.203 50.2272
21.3846 47.9004
21.5662 47.8423
21.7479 51.4922
21.9297 64.0616
22.1115 55.624
22.2933 48.6498
22.4753 47.9084
22.6572 47.9099
22.8393 50.8974
23.0214 56.2895
23.2037 47.8651
23.3859 48.6735
23.5682 56.8806
23.7505 46.9186
23.9329 44.4991
24.1154 43.3784
24.2979 42.6425
24.4805 42.0629
24.6631 42.0083
24.8458 41.5294
25.0286 41.9964
25.2114 43.9632
25.3943 43.7333
25.5773 40.3139
25.7605 39.7478
25.9436 40.037
26.1268 41.0429
26.31 39.3244
26.4933 39.9803
26.6767 41.5574
26.8601 39.8383
27.0437 38.2411
27.2272 37.8363
27.4109 37.6598
27.5946 37.7052
27.7784 37.2124
27.9623 37.8658
28.1462 38.1
28.3304 36.4478
28.5145 35.4
28.6987 35.0533
28.8829 34.8523
29.0673 34.0937
29.2517 33.7524
29.4361 33.424
29.6207 32.6078
29.8053 32.3658
29.99 31.9981
30.1748 31.9533
30.3597 31.653
30.5447 31.5754
30.7297 31.726
30.915 30.9671
31.1002 30.5608
31.2855 30.2896
31.4708 30.3874
31.6563 29.7802
31.8418 29.6674
32.0275 29.3954
32.2132 28.9051
32.399 28.3597
32.5848 28.0262
32.7708 27.7165
32.9569 27.5302
33.143 27.3513
33.3293 26.9481
33.5158 26.5439
33.7022 26.0473
33.8887 25.8601
34.0753 25.6211
34.262 25.1752
34.4488 24.9181
34.6357 24.5224
34.8227 24.265
35.0098 24.1419
35.1969 23.6731
35.3842 23.627
35.5716 23.3509
35.759 22.9926
35.9468 22.7001
36.1345 22.5681
36.3222 22.3329
36.5101 21.9641
36.6981 21.7352
36.8861 21.4208
37.0743 21.0581
37.2626 20.8531
37.451 20.651
37.6395 20.4708
37.8281 20.1458
38.0168 19.8376
38.2056 19.611
38.3945 19.3568
38.5837 19.1517
38.7728 18.8236
38.9621 18.62
39.1514 18.3876
39.3409 18.1642
39.5304 17.9771
39.7201 17.7852
39.9099 17.5734
40.0999 17.2875
40.2899 17.0323
40.48 16.7682
40.6703 16.6458
40.8607 16.4703
41.0512 16.2166
41.242 15.9858
41.4327 15.7996
41.6236 15.6066
41.8146 15.3983
42.0057 15.1696
42.1969 14.9208
42.3882 14.7704
42.5797 14.5883
42.7713 14.398
42.963 14.1705
43.1549 13.971
43.3468 13.7753
43.5389 13.6133
43.7312 13.4196
43.9237 13.2451
44.1162 13.0003
44.3088 12.8389
44.5016 12.6786
44.6945 12.5353
44.8875 12.3746
45.0806 12.1438
45.2739 12.0033
45.4673 11.8617
45.6609 11.6331
45.8546 11.5171
46.0484 11.3455
46.2424 11.1798
46.4365 11.0531
46.631 10.8413
46.8254 10.6754
47.0199 10.5391
47.2146 10.381
47.4095 10.2003
47.6044 10.0586
47.7996 9.9186
47.9948 9.76779
48.1902 9.61668
48.3858 9.50389
48.5815 9.36247
48.7774 9.20523
48.9734 9.09407
49.1696 8.93306
49.3661 8.8048
49.5626 8.65284
49.7592 8.5626
49.956 8.39278
50.153 8.28641
50.3501 8.17527
50.5474 8.01281
50.7448 7.91054
50.9424 7.77222
51.1402 7.69557
51.3381 7.50651
51.5362 7.40608
51.7344 7.32771
51.9328 7.14973
52.1316 7.07024
52.3304 6.96647
52.5293 6.84881
52.7284 6.74899
52.9276 6.63232
53.1271 6.53789
53.3267 6.41659
53.5265 6.27409
53.7264 6.16247
53.9266 6.10359
54.1269 5.96778
54.3274 5.84801
54.528 5.69733
54.7289 5.54656
54.9301 5.36104
55.1314 5.28912
55.3328 5.0413
55.5344 4.85203
55.7361 4.79709

File: Ni3Fe_FD0894.xy
TT I
1.27165 7.18298
1.45013 6.34032
1.62863 5.17526
1.80712 5.11229
1.98562 4.9784
2.16411 5.33747
2.34263 5.30318
2.52115 7.31501
2.69965 8.40018
2.87818 9.05001
3.05672 11.3668
3.23527 15.1267
3.4138 18.717
3.59237 23.7818
3.77094 26.1963
3.9495 29.3315
4.12809 33.9224
4.30669 191.732
4.4853 62.3412
4.6639 54.6067
4.84253 65.7723
5.02118 84.7532
5.19981 304.078
5.37848 168.687
5.55716 99.5598
5.73586 90.4651
5.91455 91.6707
6.09328 4490.51
6.27201 79.947
6.45075 66.1238
6.62952 61.3788
6.8083 57.4027
6.98711 54.4247
7.16591 54.1642
7.34475 84.4652
7.5236 53.6208
7.70247 55.1371
7.88135 56.9398
8.06026 61.2679
8.23919 68.4183
8.41812 82.782
8.59709 1186.76
8.77609 95.5842
8.9551 88.8435
9.13412 80.7777
9.31318 81.1757
9.49226 83.1845
9.67134 95.5443
9.85047 97.7661
10.0296 315.249
10.2088 338.716
10.388 101.934
10.5672 533.873
10.7465 84.4711
10.9257 76.6677
11.105 70.3257
11.2844 68.5392
11.4637 63.817
11.6431 62.1954
11.8225 61.3034
12.002 62.5088
12.1814 158.144
12.3609 67.9367
12.5405 63.0395
12.72 68.0875
12.8996 69.544
13.0792 77.3323
13.2589 236.282
13.4386 114.233
13.6183 250.29
13.7981 91.1824
13.9779 74.4979
14.1577 70.8561
14.3376 69.8695
14.5175 67.4927
14.6974 69.072
14.8774 107.254
15.0574 136.649
15.2374 69.3105
15.4175 65.0226
15.5976 64.5878
15.7778 91.5926
15.958 149.855
16.1382 61.0351
16.3185 57.2178
16.4988 54.3264
16.6792 53.4895
16.8596 53.9899
17.04 54.6156
17.2205 65.2881
17.401 68.0821
17.5815 58.0115
17.7622 60.0935
17.9428 71.2023
18.1237 140.167
18.3044 90.0533
18.4852 73.8173
18.666 59.1529
18.8469 57.0415
19.0278 55.6583
19.2088 58.0885
19.3898 75.9293
19.5709 53.0865
19.752 52.324
19.9332 54.9997
20.1144 69.2781
20.2957 63.9281
20.477 51.9891
20.6586 48.691
20.84 47.9933
21.0215 47.6042
21.203 50.1789
21.3846 48.0407
21.5662 47.7918
21.7479 51.4607
21.9297 64.0477
22.1115 55.5635
22.2933 48.7254
22.4753 47.9231
22.6572 47.7851
22.8393 51.0819
23.0214 56.2379
23.2037 47.8408
23.3859 48.7117
23.5682 56.9885
23.7505 47.0057
23.9329 44.3199
24.1154 43.2834
24.2979 42.6714
24.4805 42.2009
24.6631 41.9417
24.8458 41.5352
25.0286 42.1996
25.2114 43.8517
25.3943 43.7421
25.5773 40.1967
25.7605 39.748
25.9436 40.1098
26.1268 40.9444
26.31 39.3867
26.4933 39.9369
26.6767 41.5971
26.8601 39.5976
27.0437 38.237
27.2272 37.8164
27.4109 37.649
27.5946 37.8087
27.7784 37.1465
27.9623 37.8954
28.1462 38.2156
28.3304 36.5762
28.5145 35.3724
28.6987 34.9848
28.8829 34.7744
29.0673 34.0281
29.2517 33.6977
29.4361 33.5812
29.6207 32.5372
29.8053 32.2581
29.99 31.9859
30.1748 31.9344
30.3597 31.6648
30.5447 31.5776
30.7297 31.6091
30.915 30.9679
31.1002 30.6182
31.2855 30.2379
31.4708 30.2964
31.6563 29.7349
31.8418 29.6436
32.0275 29.4208
32.2132 28.8431
32.399 28.4697
32.5848 28.0307
32.7708 27.7128
32.9569 27.4225
33.143 27.3153
33.3293 26.8664
33.5158 26.6345
33.7022 26.1821
33.8887 25.9793
34.0753 25.5155
34.262 25.1741
34.4488 24.8345
34.6357 24.5203
34.8227 24.2845
35.0098 24.097
35.1969 23.7741
35.3842 23.5908
35.5716 23.401
35.759 23.062
35.9468 22.7956
36.1345 22.5213
36.3222 22.2978
36.5101 21.9906
36.6981 21.7501
36.8861 21.4034
37.0743 21.1536
37.2626 20.9016
37.451 20.6489
37.6395 20.4838
37.8281 20.1103
38.0168 19.8581
38.2056 19.5892
38.3945 19.349
38.5837 19.1178
38.7728 18.8767
38.9621 18.6258
39.1514 18.384
39.3409 18.1085
39.5304 17.9668
39.7201 17.7876
39.9099 17.5187
40.0999 17.3512
40.2899 17.0856
40.48 16.8421
40.6703 16.6481
40.8607 16.4935
41.0512 16.2416
41.242 15.9851
41.4327 15.7717
41.6236 15.55
41.8146 15.3735
42.0057 15.1365
42.1969 14.9641
42.3882 14.8031
42.5797 14.5679
42.7713 14.4028
42.963 14.19
43.1549 13.9942
43.3468 13.8019
43.5389 13.595
43.7312 13.3908
43.9237 13.267
44.1162 13.0559
44.3088 12.8855
44.5016 12.6642
44.6945 12.4993
44.8875 12.3582
45.0806 12.1739
45.2739 11.9743
45.4673 11.8598
45.6609 11.6567
45.8546 11.4941
46.0484 11.3246
46.2424 11.1584
46.4365 11.0289
46.631 10.832
46.8254 10.6952
47.0199 10.5542
47.2146 10.4171
47.4095 10.2293
47.6044 10.0517
47.7996 9.92425
47.9948 9.78381
48.1902 9.64433
48.3858 9.50603
48.5815 9.35939
48.7774 9.22369
48.9734 9.08938
49.1696 8.94052
49.3661 8.80485
49.5626 8.67423
49.7592 8.55477
49.956 8.41149
50.153 8.31963
50.3501 8.1788
50.5474 8.04634
50.7448 7.89644
50.9424 7.80016
51.1402 7.66689
51.3381 7.51909
51.5362 7.41512
51.7344 7.26861
51.9328 7.14066
52.1316 7.06582
52.3304 6.95667
52.5293 6.83841
52.7284 6.73061
52.9276 6.62372
53.1271 6.50478
53.3267 6.41994
53.5265 6.27336
53.7264 6.17931
53.9266 6.08675
54.1269 5.9803
54.3274 5.83428
54.528 5.70099
54.7289 5.52881
54.9301 5.37606
55.1314 5.23777
55.3328 5.06792
55.5344 4.86112
55.7361 4.71963