Folder: NiFe_MOF_catalyst_paper/XRD (part 149)

File: Ni3Fe_FD0808.xy
TT I
1.27165 7.2057
1.45013 6.26121
1.62863 5.33079
1.80712 4.70209
1.98562 5.12177
2.16411 4.79679
2.34263 5.77534
2.52115 6.62966
2.69965 7.76453
2.87818 9.13677
3.05672 11.1059
3.23527 14.873
3.4138 18.5301
3.59237 23.2588
3.77094 25.7172
3.9495 29.6131
4.12809 33.9285
4.30669 115.238
4.4853 54.7635
4.6639 55.0377
4.84253 67.9066
5.02118 86.3925
5.19981 393.025
5.37848 188.107
5.55716 101.43
5.73586 91.7266
5.91455 94.2933
6.09328 4529.65
6.27201 79.5226
6.45075 68.7845
6.62952 62.3532
6.8083 58.5032
6.98711 54.9584
7.16591 55.4843
7.34475 70.1073
7.5236 53.9106
7.70247 56.1758
7.88135 56.8876
8.06026 62.0038
8.23919 68.5542
8.41812 82.9044
8.59709 1212.06
8.77609 97.2179
8.9551 88.7119
9.13412 82.2346
9.31318 84.0107
9.49226 84.0788
9.67134 94.8295
9.85047 100.189
10.0296 343.514
10.2088 350.688
10.388 103.977
10.5672 532.769
10.7465 85.3928
10.9257 77.1122
11.105 70.7483
11.2844 68.1296
11.4637 63.8093
11.6431 62.7284
11.8225 62.1477
12.002 63.5041
12.1814 158.071
12.3609 66.4093
12.5405 64.2313
12.72 67.5569
12.8996 70.7254
13.0792 79.4966
13.2589 248.089
13.4386 118.43
13.6183 257.227
13.7981 92.6336
13.9779 74.7223
14.1577 71.2565
14.3376 69.5242
14.5175 68.2381
14.6974 70.0365
14.8774 111.818
15.0574 140.264
15.2374 69.0216
15.4175 65.6924
15.5976 65.0312
15.7778 95.2403
15.958 146.758
16.1382 60.7796
16.3185 57.2448
16.4988 54.8989
16.6792 53.7225
16.8596 54.4211
17.04 55.5056
17.2205 66.7339
17.401 68.4851
17.5815 58.5955
17.7622 60.8315
17.9428 73.0187
18.1237 141.835
18.3044 90.9247
18.4852 74.3909
18.666 59.7559
18.8469 57.4209
19.0278 56.1946
19.2088 58.6619
19.3898 75.4696
19.5709 53.5682
19.752 52.8056
19.9332 55.7478
20.1144 69.9452
20.2957 64.0432
20.477 52.3316
20.6586 49.0175
20.84 48.189
21.0215 48.169
21.203 50.4454
21.3846 48.1425
21.5662 48.5003
21.7479 52.3759
21.9297 64.346
22.1115 55.8416
22.2933 49.0344
22.4753 48.2467
22.6572 48.4937
22.8393 51.5916
23.0214 56.374
23.2037 48.3803
23.3859 49.2374
23.5682 57.2179
23.7505 47.4152
23.9329 44.6587
24.1154 43.5965
24.2979 42.8139
24.4805 42.5868
24.6631 42.4313
24.8458 41.8028
25.0286 42.4873
25.2114 44.2298
25.3943 44.081
25.5773 40.4872
25.7605 39.9247
25.9436 40.3903
26.1268 41.3042
26.31 39.6791
26.4933 40.2089
26.6767 41.7816
26.8601 40.025
27.0437 38.4964
27.2272 38.1215
27.4109 38.0295
27.5946 38.1278
27.7784 37.4398
27.9623 38.1962
28.1462 38.427
28.3304 36.7909
28.5145 35.5803
28.6987 35.1853
28.8829 35.0568
29.0673 34.1556
29.2517 33.9693
29.4361 33.8304
29.6207 32.8271
29.8053 32.4725
29.99 32.2594
30.1748 32.1802
30.3597 31.9995
30.5447 31.8606
30.7297 31.9246
30.915 31.3111
31.1002 30.7538
31.2855 30.5759
31.4708 30.5083
31.6563 30.0905
31.8418 29.7858
32.0275 29.6392
32.2132 29.0405
32.399 28.7146
32.5848 28.232
32.7708 27.8695
32.9569 27.7089
33.143 27.5141
33.3293 27.17
33.5158 26.7237
33.7022 26.3435
33.8887 26.0251
34.0753 25.676
34.262 25.3917
34.4488 25.0241
34.6357 24.7122
34.8227 24.4661
35.0098 24.25
35.1969 23.8679
35.3842 23.7678
35.5716 23.5932
35.759 23.1841
35.9468 22.848
36.1345 22.6827
36.3222 22.472
36.5101 22.1609
36.6981 21.9145
36.8861 21.601
37.0743 21.337
37.2626 21.0717
37.451 20.7386
37.6395 20.6699
37.8281 20.2103
38.0168 19.9564
38.2056 19.7339
38.3945 19.5415
38.5837 19.2792
38.7728 19.0241
38.9621 18.7222
39.1514 18.5798
39.3409 18.2683
39.5304 18.0985
39.7201 17.8807
39.9099 17.7082
40.0999 17.3874
40.2899 17.1355
40.48 16.9186
40.6703 16.7363
40.8607 16.5553
41.0512 16.3158
41.242 16.0807
41.4327 15.903
41.6236 15.6545
41.8146 15.5406
42.0057 15.2643
42.1969 15.0439
42.3882 14.9084
42.5797 14.6667
42.7713 14.4795
42.963 14.2697
43.1549 14.0565
43.3468 13.8508
43.5389 13.6736
43.7312 13.4713
43.9237 13.3142
44.1162 13.0773
44.3088 12.9456
44.5016 12.7712
44.6945 12.5782
44.8875 12.4301
45.0806 12.2593
45.2739 12.1062
45.4673 11.9039
45.6609 11.707
45.8546 11.5591
46.0484 11.4383
46.2424 11.2505
46.4365 11.096
46.631 10.89
46.8254 10.7518
47.0199 10.616
47.2146 10.3971
47.4095 10.291
47.6044 10.1513
47.7996 9.95516
47.9948 9.80595
48.1902 9.71249
48.3858 9.59128
48.5815 9.39795
48.7774 9.2774
48.9734 9.14349
49.1696 8.98861
49.3661 8.83216
49.5626 8.73534
49.7592 8.61222
49.956 8.48635
50.153 8.33843
50.3501 8.20764
50.5474 8.11223
50.7448 7.96723
50.9424 7.80312
51.1402 7.70082
51.3381 7.58524
51.5362 7.43832
51.7344 7.33551
51.9328 7.21343
52.1316 7.10805
52.3304 7.00736
52.5293 6.84092
52.7284 6.76154
52.9276 6.68002
53.1271 6.56348
53.3267 6.42127
53.5265 6.31868
53.7264 6.18582
53.9266 6.12525
54.1269 5.97294
54.3274 5.89996
54.528 5.73136
54.7289 5.5722
54.9301 5.39115
55.1314 5.30837
55.3328 5.06543
55.5344 4.88852
55.7361 4.80338

File: Ni3Fe_FD0810.xy
TT I
1.27165 7.41081
1.45013 5.98803
1.62863 5.39669
1.80712 4.65993
1.98562 4.40208
2.16411 5.21826
2.34263 5.21462
2.52115 6.83574
2.69965 8.72955
2.87818 8.24653
3.05672 11.1273
3.23527 15.2701
3.4138 18.9829
3.59237 23.1024
3.77094 25.5348
3.9495 29.377
4.12809 33.9968
4.30669 113.208
4.4853 54.5651
4.6639 55.3612
4.84253 68.0713
5.02118 86.7524
5.19981 397.431
5.37848 188.54
5.55716 101.824
5.73586 92.4235
5.91455 94.1655
6.09328 4596.62
6.27201 80.147
6.45075 69.1047
6.62952 62.4353
6.8083 58.6803
6.98711 55.4312
7.16591 55.3791
7.34475 69.7693
7.5236 53.7593
7.70247 56.1168
7.88135 57.1133
8.06026 62.186
8.23919 68.9919
8.41812 83.6075
8.59709 1222.99
8.77609 96.9224
8.9551 89.0713
9.13412 81.8628
9.31318 84.4865
9.49226 84.5688
9.67134 95.2369
9.85047 100.492
10.0296 344.59
10.2088 347.029
10.388 103.888
10.5672 538.651
10.7465 85.1884
10.9257 77.3798
11.105 70.7516
11.2844 67.7707
11.4637 64.2
11.6431 62.7279
11.8225 62.0515
12.002 63.869
12.1814 160.451
12.3609 66.3595
12.5405 63.9921
12.72 67.6169
12.8996 70.64
13.0792 79.5879
13.2589 248.433
13.4386 118.14
13.6183 258.044
13.7981 92.9468
13.9779 74.7697
14.1577 71.1665
14.3376 69.7108
14.5175 68.0807
14.6974 69.8993
14.8774 111.745
15.0574 140.53
15.2374 69.137
15.4175 65.8378
15.5976 65.19
15.7778 95.2711
15.958 146.783
16.1382 60.9347
16.3185 57.233
16.4988 54.5675
16.6792 53.8869
16.8596 54.3107
17.04 55.5921
17.2205 66.8882
17.401 68.7497
17.5815 58.5095
17.7622 60.725
17.9428 73.2184
18.1237 141.485
18.3044 91.1981
18.4852 74.3866
18.666 59.6815
18.8469 57.3406
19.0278 56.2925
19.2088 58.7238
19.3898 75.5451
19.5709 53.4612
19.752 52.6433
19.9332 55.7987
20.1144 69.4435
20.2957 64.1486
20.477 52.2154
20.6586 49.1553
20.84 48.2227
21.0215 48.2213
21.203 50.4234
21.3846 48.2594
21.5662 48.4754
21.7479 52.4944
21.9297 64.2782
22.1115 55.7634
22.2933 49.2009
22.4753 48.1269
22.6572 48.3828
22.8393 51.5745
23.0214 56.3791
23.2037 48.1034
23.3859 49.2642
23.5682 56.9913
23.7505 47.292
23.9329 44.7026
24.1154 43.7618
24.2979 43.0745
24.4805 42.4062
24.6631 42.3321
24.8458 41.7392
25.0286 42.3708
25.2114 44.0681
25.3943 44.0906
25.5773 40.4665
25.7605 40.1008
25.9436 40.4176
26.1268 41.3535
26.31 39.6925
26.4933 40.3684
26.6767 41.4881
26.8601 39.9587
27.0437 38.4749
27.2272 37.977
27.4109 37.9453
27.5946 37.9599
27.7784 37.5057
27.9623 38.0781
28.1462 38.3792
28.3304 36.5906
28.5145 35.5548
28.6987 35.2906
28.8829 34.9715
29.0673 34.1989
29.2517 33.8496
29.4361 33.6903
29.6207 32.6959
29.8053 32.4722
29.99 32.1414
30.1748 32.0599
30.3597 31.9697
30.5447 31.8766
30.7297 31.8953
30.915 31.221
31.1002 30.8438
31.2855 30.6115
31.4708 30.5205
31.6563 29.9082
31.8418 29.8322
32.0275 29.605
32.2132 29.0808
32.399 28.6252
32.5848 28.181
32.7708 27.846
32.9569 27.7686
33.143 27.4804
33.3293 27.0424
33.5158 26.7551
33.7022 26.3006
33.8887 25.9475
34.0753 25.6758
34.262 25.436
34.4488 25.0642
34.6357 24.6539
34.8227 24.4099
35.0098 24.1743
35.1969 23.902
35.3842 23.69
35.5716 23.5573
35.759 23.1531
35.9468 22.8807
36.1345 22.66
36.3222 22.3618
36.5101 22.1933
36.6981 21.8917
36.8861 21.583
37.0743 21.2683
37.2626 21.0758
37.451 20.7624
37.6395 20.6327
37.8281 20.1615
38.0168 19.9655
38.2056 19.7789
38.3945 19.4186
38.5837 19.1839
38.7728 19.0091
38.9621 18.7219
39.1514 18.4457
39.3409 18.2109
39.5304 18.0716
39.7201 17.8583
39.9099 17.715
40.0999 17.3926
40.2899 17.1573
40.48 16.9543
40.6703 16.7416
40.8607 16.5079
41.0512 16.3497
41.242 16.0902
41.4327 15.8484
41.6236 15.655
41.8146 15.5092
42.0057 15.2263
42.1969 15.013
42.3882 14.8736
42.5797 14.6572
42.7713 14.422
42.963 14.198
43.1549 14.023
43.3468 13.8801
43.5389 13.7015
43.7312 13.5066
43.9237 13.3565
44.1162 13.1475
44.3088 12.9584
44.5016 12.7395
44.6945 12.594
44.8875 12.3967
45.0806 12.2045
45.2739 12.0773
45.4673 11.9045
45.6609 11.7125
45.8546 11.6118
46.0484 11.4188
46.2424 11.1836
46.4365 11.0505
46.631 10.8816
46.8254 10.7568
47.0199 10.5682
47.2146 10.4487
47.4095 10.2599
47.6044 10.1161
47.7996 9.97578
47.9948 9.83189
48.1902 9.68221
48.3858 9.55041
48.5815 9.41553
48.7774 9.25202
48.9734 9.14212
49.1696 8.99004
49.3661 8.82063
49.5626 8.65119
49.7592 8.6029
49.956 8.48106
50.153 8.32029
50.3501 8.19042
50.5474 8.0752
50.7448 7.99563
50.9424 7.85502
51.1402 7.72368
51.3381 7.57907
51.5362 7.45203
51.7344 7.33616
51.9328 7.22848
52.1316 7.07643
52.3304 7.00827
52.5293 6.88962
52.7284 6.74029
52.9276 6.61702
53.1271 6.59336
53.3267 6.41681
53.5265 6.312
53.7264 6.20158
53.9266 6.1281
54.1269 5.94167
54.3274 5.86032
54.528 5.7727
54.7289 5.58062
54.9301 5.43076
55.1314 5.26875
55.3328 5.06532
55.5344 4.84817
55.7361 4.81691

File: Ni3Fe_FD0811.xy
TT I
1.27165 7.14786
1.45013 5.63707
1.62863 5.13474
1.80712 4.74893
1.98562 4.71751
2.16411 5.02554
2.34263 4.83205
2.52115 7.09639
2.69965 8.22717
2.87818 8.57564
3.05672 11.3019
3.23527 14.8433
3.4138 18.7751
3.59237 22.9176
3.77094 25.2777
3.9495 29.2581
4.12809 34.0842
4.30669 111.328
4.4853 54.566
4.6639 55.1446
4.84253 67.8266
5.02118 86.6056
5.19981 399.339
5.37848 189.546
5.55716 101.277
5.73586 91.9952
5.91455 95.0373
6.09328 4577.35
6.27201 79.6946
6.45075 68.7972
6.62952 62.8341
6.8083 58.9087
6.98711 55.2896
7.16591 55.1986
7.34475 69.0127
7.5236 53.9762
7.70247 56.2355
7.88135 57.4177
8.06026 62.1399
8.23919 69.1249
8.41812 83.4905
8.59709 1219.38
8.77609 96.8312
8.9551 88.9648
9.13412 81.5096
9.31318 84.2738
9.49226 84.4139
9.67134 95.0498
9.85047 100.612
10.0296 344.925
10.2088 347.175
10.388 104.247
10.5672 537.333
10.7465 85.5641
10.9257 77.2081
11.105 70.698
11.2844 68.3495
11.4637 64.1203
11.6431 63.0676
11.8225 62.2852
12.002 63.8488
12.1814 160.259
12.3609 66.3898
12.5405 63.9323
12.72 67.4296
12.8996 70.8293
13.0792 79.8236
13.2589 249.12
13.4386 117.806
13.6183 258.66
13.7981 92.4888
13.9779 75.1757
14.1577 71.0705
14.3376 69.6765
14.5175 68.2196
14.6974 70.0619
14.8774 111.524
15.0574 139.268
15.2374 69.0732
15.4175 65.5511
15.5976 65.1701
15.7778 95.249
15.958 146.215
16.1382 60.9974
16.3185 57.218
16.4988 54.8172
16.6792 53.9376
16.8596 54.5689
17.04 55.4822
17.2205 66.8969
17.401 68.1817
17.5815 58.7885
17.7622 60.8825
17.9428 73.0703
18.1237 141.663
18.3044 91.1294
18.4852 74.0036
18.666 59.4722
18.8469 57.4303
19.0278 56.1887
19.2088 58.8153
19.3898 75.4421
19.5709 53.4961
19.752 52.8157
19.9332 55.6314
20.1144 69.7015
20.2957 64.1499
20.477 52.3681
20.6586 48.9446
20.84 48.448
21.0215 48.0738
21.203 50.3946
21.3846 48.4444
21.5662 48.3702
21.7479 52.2932
21.9297 64.1067
22.1115 55.7669
22.2933 49.1322
22.4753 48.3037
22.6572 48.6839
22.8393 51.7664
23.0214 56.5744
23.2037 48.2761
23.3859 49.2777
23.5682 57.1397
23.7505 47.2741
23.9329 44.656
24.1154 43.6577
24.2979 42.8958
24.4805 42.4493
24.6631 42.4077
24.8458 41.7904
25.0286 42.5074
25.2114 44.2182
25.3943 44.026
25.5773 40.3168
25.7605 39.8886
25.9436 40.4836
26.1268 41.3178
26.31 39.7461
26.4933 40.3679
26.6767 41.6524
26.8601 39.9493
27.0437 38.5305
27.2272 38.1556
27.4109 37.9744
27.5946 38.06
27.7784 37.5186
27.9623 38.0835
28.1462 38.4452
28.3304 36.7139
28.5145 35.5887
28.6987 35.2705
28.8829 34.9771
29.0673 34.2109
29.2517 33.9107
29.4361 33.6886
29.6207 32.5754
29.8053 32.4787
29.99 32.2304
30.1748 32.0829
30.3597 31.8214
30.5447 31.8027
30.7297 31.9109
30.915 31.2404
31.1002 30.7575
31.2855 30.569
31.4708 30.574
31.6563 30.0308
31.8418 29.8722
32.0275 29.5482
32.2132 29.1022
32.399 28.6245
32.5848 28.2827
32.7708 27.8282
32.9569 27.7296
33.143 27.5256
33.3293 27.1247
33.5158 26.7687
33.7022 26.3194
33.8887 26.0471
34.0753 25.7202
34.262 25.2818
34.4488 24.9868
34.6357 24.7055
34.8227 24.3804
35.0098 24.2609
35.1969 23.9839
35.3842 23.7672
35.5716 23.5729
35.759 23.2565
35.9468 22.8795
36.1345 22.6327
36.3222 22.473
36.5101 22.1718
36.6981 21.8828
36.8861 21.5576
37.0743 21.2054
37.2626 21.0656
37.451 20.7739
37.6395 20.6106
37.8281 20.2623
38.0168 19.9937
38.2056 19.6906
38.3945 19.4818
38.5837 19.2269
38.7728 18.9862
38.9621 18.7556
39.1514 18.5482
39.3409 18.2551
39.5304 18.0306
39.7201 17.8049
39.9099 17.6615
40.0999 17.414
40.2899 17.1014
40.48 16.9112
40.6703 16.769
40.8607 16.5472
41.0512 16.383
41.242 16.1083
41.4327 15.8582
41.6236 15.6444
41.8146 15.5045
42.0057 15.2539
42.1969 15.0752
42.3882 14.9159
42.5797 14.6716
42.7713 14.4714
42.963 14.2854
43.1549 14.047
43.3468 13.8326
43.5389 13.6812
43.7312 13.5024
43.9237 13.2868
44.1162 13.1121
44.3088 12.949
44.5016 12.7848
44.6945 12.5872
44.8875 12.4157
45.0806 12.2414
45.2739 12.1027
45.4673 11.9084
45.6609 11.7052
45.8546 11.5646
46.0484 11.4396
46.2424 11.2108
46.4365 11.0566
46.631 10.8897
46.8254 10.7711
47.0199 10.6151
47.2146 10.4527
47.4095 10.261
47.6044 10.1234
47.7996 9.987
47.9948 9.82524
48.1902 9.6793
48.3858 9.5688
48.5815 9.44404
48.7774 9.28546
48.9734 9.12653
49.1696 8.99169
49.3661 8.86348
49.5626 8.68425
49.7592 8.61462
49.956 8.4471
50.153 8.30917
50.3501 8.19078
50.5474 8.08282
50.7448 7.96297
50.9424 7.84132
51.1402 7.76984
51.3381 7.5846
51.5362 7.47949
51.7344 7.32873
51.9328 7.18581
52.1316 7.07486
52.3304 7.00927
52.5293 6.87017
52.7284 6.79209
52.9276 6.62054
53.1271 6.57491
53.3267 6.45234
53.5265 6.28899
53.7264 6.21185
53.9266 6.12178
54.1269 5.98589
54.3274 5.85273
54.528 5.77821
54.7289 5.55342
54.9301 5.35323
55.1314 5.29113
55.3328 5.12858
55.5344 4.89642
55.7361 4.72617

File: Ni3Fe_FD0812.xy
TT I
1.27165 7.64838
1.45013 6.23154
1.62863 5.6502
1.80712 4.71657
1.98562 4.86676
2.16411 5.05033
2.34263 5.39891
2.52115 6.96318
2.69965 8.22898
2.87818 8.75833
3.05672 11.2808
3.23527 14.8633
3.4138 18.9227
3.59237 23.0093
3.77094 25.9823
3.9495 29.3133
4.12809 34.1401
4.30669 109.285
4.4853 54.3764
4.6639 55.2603
4.84253 67.9952
5.02118 87.0119
5.19981 399.033
5.37848 189.585
5.55716 101.644
5.73586 92.5343
5.91455 94.7874
6.09328 4567.84
6.27201 79.7107
6.45075 69.2876
6.62952 62.5351
6.8083 58.8525
6.98711 55.0873
7.16591 55.7609
7.34475 68.1682
7.5236 53.9657
7.70247 56.7324
7.88135 57.5066
8.06026 62.2137
8.23919 68.9556
8.41812 83.5934
8.59709 1220.6
8.77609 96.8958
8.9551 89.0342
9.13412 82.5642
9.31318 84.1316
9.49226 84.3717
9.67134 95.3883
9.85047 100.937
10.0296 345.673
10.2088 347.143
10.388 104.89
10.5672 538.277
10.7465 85.5567
10.9257 77.4704
11.105 70.9574
11.2844 68.1424
11.4637 64.4211
11.6431 62.7762
11.8225 62.353
12.002 64.2471
12.1814 159.324
12.3609 66.2061
12.5405 64.6878
12.72 67.5816
12.8996 70.8954
13.0792 80.0371
13.2589 250.718
13.4386 117.496
13.6183 259.05
13.7981 92.7398
13.9779 75.2414
14.1577 71.4636
14.3376 69.8075
14.5175 68.0376
14.6974 70.1591
14.8774 112.195
15.0574 138.656
15.2374 68.9501
15.4175 65.7245
15.5976 65.2349
15.7778 95.326
15.958 145.402
16.1382 61.0213
16.3185 57.288
16.4988 54.8748
16.6792 54.0435
16.8596 54.4751
17.04 55.6583
17.2205 66.9024
17.401 68.3006
17.5815 58.8086
17.7622 60.8493
17.9428 73.1904
18.1237 141.544
18.3044 91.2378
18.4852 73.9021
18.666 59.77
18.8469 57.4599
19.0278 56.4171
19.2088 58.6838
19.3898 75.5203
19.5709 53.5904
19.752 52.7362
19.9332 55.9547
20.1144 69.735
20.2957 64.2204
20.477 52.367
20.6586 48.9487
20.84 48.3894
21.0215 47.9723
21.203 50.4567
21.3846 48.2077
21.5662 48.4764
21.7479 52.4603
21.9297 64.0393
22.1115 55.6898
22.2933 49.1726
22.4753 48.0616
22.6572 48.411
22.8393 51.6506
23.0214 56.318
23.2037 48.3568
23.3859 49.4072
23.5682 57.0147
23.7505 47.304
23.9329 44.7605
24.1154 43.6653
24.2979 42.9178
24.4805 42.4891
24.6631 42.3427
24.8458 41.9338
25.0286 42.6302
25.2114 44.361
25.3943 44.2358
25.5773 40.5122
25.7605 40.0591
25.9436 40.5151
26.1268 41.3073
26.31 39.6613
26.4933 40.3551
26.6767 41.7198
26.8601 39.9624
27.0437 38.4375
27.2272 38.1541
27.4109 38.0944
27.5946 38.0017
27.7784 37.6242
27.9623 38.1148
28.1462 38.5234
28.3304 36.679
28.5145 35.6137
28.6987 35.2747
28.8829 35.0129
29.0673 34.216
29.2517 33.8634
29.4361 33.7046
29.6207 32.8642
29.8053 32.5963
29.99 32.27
30.1748 32.1747
30.3597 31.9364
30.5447 31.8571
30.7297 31.9423
30.915 31.2111
31.1002 30.8735
31.2855 30.582
31.4708 30.4857
31.6563 30.0577
31.8418 29.9336
32.0275 29.6209
32.2132 29.0357
32.399 28.6115
32.5848 28.2706
32.7708 27.825
32.9569 27.8082
33.143 27.55
33.3293 27.1159
33.5158 26.7382
33.7022 26.2745
33.8887 26.0279
34.0753 25.6745
34.262 25.3518
34.4488 25.0223
34.6357 24.8012
34.8227 24.44
35.0098 24.3083
35.1969 23.9347
35.3842 23.7524
35.5716 23.4323
35.759 23.2217
35.9468 22.894
36.1345 22.6731
36.3222 22.3563
36.5101 22.2207
36.6981 21.9032
36.8861 21.5966
37.0743 21.3194
37.2626 21.0202
37.451 20.7477
37.6395 20.6124
37.8281 20.2982
38.0168 20.0555
38.2056 19.7489
38.3945 19.4483
38.5837 19.2012
38.7728 19.0082
38.9621 18.7508
39.1514 18.5022
39.3409 18.2818
39.5304 18.0939
39.7201 17.8369
39.9099 17.7013
40.0999 17.4029
40.2899 17.1958
40.48 16.9546
40.6703 16.7199
40.8607 16.5591
41.0512 16.3857
41.242 16.0377
41.4327 15.9283
41.6236 15.6214
41.8146 15.4868
42.0057 15.2709
42.1969 15.0914
42.3882 14.9031
42.5797 14.6714
42.7713 14.4755
42.963 14.2895
43.1549 14.091
43.3468 13.8711
43.5389 13.6794
43.7312 13.5008
43.9237 13.3298
44.1162 13.0979
44.3088 12.9052
44.5016 12.7205
44.6945 12.549
44.8875 12.4304
45.0806 12.2492
45.2739 12.0556
45.4673 11.9178
45.6609 11.7156
45.8546 11.5987
46.0484 11.4146
46.2424 11.2537
46.4365 11.1143
46.631 10.8986
46.8254 10.7756
47.0199 10.5823
47.2146 10.4566
47.4095 10.2668
47.6044 10.1262
47.7996 9.97488
47.9948 9.85376
48.1902 9.69576
48.3858 9.55451
48.5815 9.40241
48.7774 9.29963
48.9734 9.16452
49.1696 9.01163
49.3661 8.90222
49.5626 8.68159
49.7592 8.60336
49.956 8.47623
50.153 8.32669
50.3501 8.19544
50.5474 8.09637
50.7448 7.95585
50.9424 7.87887
51.1402 7.73245
51.3381 7.58119
51.5362 7.449
51.7344 7.35308
51.9328 7.19969
52.1316 7.08604
52.3304 6.99691
52.5293 6.86604
52.7284 6.77146
52.9276 6.66983
53.1271 6.56503
53.3267 6.44575
53.5265 6.30195
53.7264 6.2425
53.9266 6.11895
54.1269 5.99246
54.3274 5.87455
54.528 5.74405
54.7289 5.55266
54.9301 5.45165
55.1314 5.27452
55.3328 5.125
55.5344 4.92787
55.7361 4.70661

File: Ni3Fe_FD0813.xy
TT I
1.27165 7.18481
1.45013 6.17813
1.62863 4.96863
1.80712 4.91071
1.98562 4.33256
2.16411 4.82691
2.34263 5.36395
2.52115 7.46501
2.69965 7.74925
2.87818 8.87287
3.05672 10.9796
3.23527 15.4109
3.4138 19.1553
3.59237 23.5321
3.77094 25.6113
3.9495 29.1751
4.12809 34.0574
4.30669 108.812
4.4853 54.2976
4.6639 55.1145
4.84253 67.9389
5.02118 86.4392
5.19981 398.098
5.37848 190.054
5.55716 101.574
5.73586 92.2556
5.91455 94.3987
6.09328 4596.98
6.27201 79.2649
6.45075 69.0125
6.62952 62.3432
6.8083 58.8985
6.98711 55.2092
7.16591 55.4671
7.34475 68.8952
7.5236 53.8945
7.70247 56.5449
7.88135 57.1708
8.06026 62.1332
8.23919 69.1568
8.41812 83.3857
8.59709 1220.88
8.77609 96.9426
8.9551 88.9363
9.13412 82.2525
9.31318 84.0135
9.49226 84.3738
9.67134 94.8432
9.85047 100.653
10.0296 343.217
10.2088 348.584
10.388 104.262
10.5672 537.7
10.7465 85.3511
10.9257 77.0104
11.105 70.8676
11.2844 68.1276
11.4637 64.115
11.6431 62.9646
11.8225 62.1908
12.002 63.7689
12.1814 160.222
12.3609 66.3746
12.5405 64.1495
12.72 67.3593
12.8996 70.6898
13.0792 79.3634
13.2589 248.462
13.4386 118.031
13.6183 258.194
13.7981 92.731
13.9779 75.0711
14.1577 71.2162
14.3376 69.5763
14.5175 68.2741
14.6974 70.0483
14.8774 111.624
15.0574 140.586
15.2374 68.8015
15.4175 65.7146
15.5976 65.0404
15.7778 95.0153
15.958 146.398
16.1382 60.89
16.3185 57.194
16.4988 54.7959
16.6792 53.7947
16.8596 54.222
17.04 55.3707
17.2205 66.6501
17.401 68.5658
17.5815 58.4756
17.7622 60.7728
17.9428 73.223
18.1237 141.484
18.3044 91.0772
18.4852 74.0914
18.666 59.6448
18.8469 57.489
19.0278 56.3695
19.2088 58.5698
19.3898 75.4183
19.5709 53.4246
19.752 52.6462
19.9332 55.5359
20.1144 69.6292
20.2957 64.0375
20.477 52.4926
20.6586 49.2631
20.84 48.1987
21.0215 47.8939
21.203 50.4346
21.3846 48.2011
21.5662 48.3623
21.7479 52.3008
21.9297 64.0203
22.1115 55.6697
22.2933 49.1111
22.4753 48.3311
22.6572 48.4887
22.8393 51.686
23.0214 56.6303
23.2037 48.391
23.3859 49.4166
23.5682 56.8811
23.7505 47.3742
23.9329 44.6841
24.1154 43.668
24.2979 42.8905
24.4805 42.4845
24.6631 42.3943
24.8458 41.8764
25.0286 42.6199
25.2114 44.1826
25.3943 44.0058
25.5773 40.4915
25.7605 39.9411
25.9436 40.5173
26.1268 41.1468
26.31 39.5467
26.4933 40.3484
26.6767 41.76
26.8601 40.0632
27.0437 38.4283
27.2272 38.017
27.4109 38.1106
27.5946 38.0195
27.7784 37.6049
27.9623 38.2088
28.1462 38.3868
28.3304 36.5887
28.5145 35.5436
28.6987 35.2777
28.8829 35.0924
29.0673 34.2005
29.2517 34.0287
29.4361 33.7493
29.6207 32.6969
29.8053 32.4655
29.99 32.2404
30.1748 32.1941
30.3597 31.9147
30.5447 31.8347
30.7297 31.871
30.915 31.1563
31.1002 30.8003
31.2855 30.615
31.4708 30.5166
31.6563 30.0087
31.8418 29.8004
32.0275 29.626
32.2132 29.0563
32.399 28.6184
32.5848 28.1922
32.7708 27.9069
32.9569 27.6889
33.143 27.5438
33.3293 27.0071
33.5158 26.7001
33.7022 26.3185
33.8887 26.1103
34.0753 25.6614
34.262 25.4101
34.4488 24.9759
34.6357 24.6772
34.8227 24.4486
35.0098 24.198
35.1969 23.9108
35.3842 23.7087
35.5716 23.5447
35.759 23.2525
35.9468 22.8977
36.1345 22.5934
36.3222 22.4336
36.5101 22.1471
36.6981 21.8896
36.8861 21.6459
37.0743 21.207
37.2626 21.0555
37.451 20.7911
37.6395 20.6446
37.8281 20.2297
38.0168 20.0478
38.2056 19.7435
38.3945 19.4253
38.5837 19.2036
38.7728 18.955
38.9621 18.7793
39.1514 18.4975
39.3409 18.2544
39.5304 18.0046
39.7201 17.8543
39.9099 17.5947
40.0999 17.4037
40.2899 17.1955
40.48 16.9338
40.6703 16.713
40.8607 16.6278
41.0512 16.3277
41.242 16.0494
41.4327 15.9152
41.6236 15.6507
41.8146 15.478
42.0057 15.2299
42.1969 15.0284
42.3882 14.8625
42.5797 14.6497
42.7713 14.4696
42.963 14.2627
43.1549 14.0634
43.3468 13.8623
43.5389 13.7068
43.7312 13.5109
43.9237 13.3384
44.1162 13.0989
44.3088 12.9561
44.5016 12.7734
44.6945 12.5824
44.8875 12.4036
45.0806 12.2237
45.2739 12.0838
45.4673 11.904
45.6609 11.7164
45.8546 11.5396
46.0484 11.3749
46.2424 11.2133
46.4365 11.0814
46.631 10.9303
46.8254 10.7719
47.0199 10.5663
47.2146 10.4173
47.4095 10.2857
47.6044 10.1372
47.7996 9.97703
47.9948 9.8454
48.1902 9.6894
48.3858 9.57417
48.5815 9.45216
48.7774 9.29046
48.9734 9.15451
49.1696 9.03835
49.3661 8.84398
49.5626 8.73375
49.7592 8.60697
49.956 8.45218
50.153 8.33442
50.3501 8.22015
50.5474 8.05016
50.7448 7.9504
50.9424 7.85865
51.1402 7.74724
51.3381 7.59581
51.5362 7.48731
51.7344 7.34861
51.9328 7.21016
52.1316 7.08778
52.3304 6.97747
52.5293 6.86645
52.7284 6.80958
52.9276 6.6268
53.1271 6.56929
53.3267 6.39791
53.5265 6.26389
53.7264 6.23899
53.9266 6.09985
54.1269 6.00919
54.3274 5.87621
54.528 5.73975
54.7289 5.56411
54.9301 5.4272
55.1314 5.31592
55.3328 5.0935
55.5344 4.91301
55.7361 4.7691