Folder: NiFe_MOF_catalyst_paper/XRD (part 70)

File: Ni3Fe_FD0367.xy
TT I
1.27165 7.84792
1.45013 6.48854
1.62863 4.97097
1.80712 5.37303
1.98562 4.22228
2.16411 4.91963
2.34263 4.57249
2.52115 6.30031
2.69965 7.25607
2.87818 8.8282
3.05672 10.7361
3.23527 15.3773
3.4138 19.0524
3.59237 23.7278
3.77094 26.4141
3.9495 29.705
4.12809 34.9684
4.30669 105.62
4.4853 55.0833
4.6639 57.3524
4.84253 70.0139
5.02118 92.124
5.19981 630.719
5.37848 221.381
5.55716 106.942
5.73586 96.6826
5.91455 102.594
6.09328 4037.43
6.27201 85.368
6.45075 69.9339
6.62952 63.8718
6.8083 60.0622
6.98711 57.02
7.16591 56.3794
7.34475 69.1746
7.5236 55.7452
7.70247 57.6473
7.88135 59.2063
8.06026 64.4001
8.23919 71.5773
8.41812 88.0509
8.59709 1211.82
8.77609 104.757
8.9551 90.7267
9.13412 84.8163
9.31318 86.6353
9.49226 87.7227
9.67134 96.6834
9.85047 104.426
10.0296 451.338
10.2088 438.234
10.388 110.519
10.5672 487.092
10.7465 89.5411
10.9257 79.9185
11.105 73.7394
11.2844 70.4914
11.4637 66.8232
11.6431 65.4806
11.8225 64.167
12.002 66.8994
12.1814 152.233
12.3609 69.6014
12.5405 66.4368
12.72 70.0159
12.8996 73.663
13.0792 83.689
13.2589 249.762
13.4386 130.544
13.6183 246.556
13.7981 101.168
13.9779 78.1131
14.1577 74.0626
14.3376 72.4111
14.5175 71.0998
14.6974 73.1447
14.8774 121.57
15.0574 151.064
15.2374 71.8423
15.4175 68.2825
15.5976 68.4182
15.7778 104.117
15.958 160.477
16.1382 63.2395
16.3185 59.5874
16.4988 57.0125
16.6792 55.8964
16.8596 56.6815
17.04 58.0054
17.2205 69.6665
17.401 72.8184
17.5815 60.9577
17.7622 63.5857
17.9428 79.6259
18.1237 139.09
18.3044 92.0641
18.4852 78.4133
18.666 62.1798
18.8469 59.7551
19.0278 58.585
19.2088 62.0153
19.3898 76.6719
19.5709 55.9306
19.752 55.0438
19.9332 58.6902
20.1144 71.5411
20.2957 64.5833
20.477 55.0285
20.6586 51.1411
20.84 50.2685
21.0215 50.1001
21.203 51.9664
21.3846 50.4489
21.5662 50.6101
21.7479 54.8436
21.9297 65.8677
22.1115 57.2373
22.2933 51.3034
22.4753 50.1305
22.6572 50.6414
22.8393 53.804
23.0214 58.8231
23.2037 50.2647
23.3859 51.7581
23.5682 57.4745
23.7505 49.5346
23.9329 46.5038
24.1154 45.3791
24.2979 44.6635
24.4805 44.0835
24.6631 44.1077
24.8458 43.5911
25.0286 44.2478
25.2114 45.9739
25.3943 45.7819
25.5773 42.0329
25.7605 41.6784
25.9436 42.1428
26.1268 42.8504
26.31 41.2247
26.4933 42.0025
26.6767 43.3037
26.8601 41.5314
27.0437 40.0006
27.2272 39.787
27.4109 39.471
27.5946 39.4596
27.7784 39.1758
27.9623 39.3119
28.1462 39.954
28.3304 38.1369
28.5145 37.0997
28.6987 36.6512
28.8829 36.3575
29.0673 35.6448
29.2517 35.3257
29.4361 35.1293
29.6207 34.0999
29.8053 33.791
29.99 33.408
30.1748 33.3034
30.3597 33.1401
30.5447 33.047
30.7297 33.0424
30.915 32.4879
31.1002 32.0341
31.2855 31.7528
31.4708 31.6915
31.6563 31.2413
31.8418 31.0299
32.0275 30.7187
32.2132 30.1985
32.399 29.7058
32.5848 29.2871
32.7708 28.9061
32.9569 28.8223
33.143 28.5081
33.3293 28.1534
33.5158 27.7719
33.7022 27.3283
33.8887 27.0162
34.0753 26.7283
34.262 26.3336
34.4488 25.9599
34.6357 25.678
34.8227 25.3819
35.0098 25.1669
35.1969 24.8449
35.3842 24.5708
35.5716 24.4532
35.759 24.06
35.9468 23.7238
36.1345 23.421
36.3222 23.2407
36.5101 23.0555
36.6981 22.7297
36.8861 22.3421
37.0743 22.0489
37.2626 21.7911
37.451 21.5306
37.6395 21.3527
37.8281 20.9817
38.0168 20.7927
38.2056 20.418
38.3945 20.1474
38.5837 19.9316
38.7728 19.6788
38.9621 19.461
39.1514 19.1701
39.3409 18.937
39.5304 18.6657
39.7201 18.5382
39.9099 18.3105
40.0999 18.024
40.2899 17.7926
40.48 17.5312
40.6703 17.3343
40.8607 17.1329
41.0512 16.9936
41.242 16.6504
41.4327 16.4721
41.6236 16.1981
41.8146 16.0403
42.0057 15.8477
42.1969 15.5618
42.3882 15.4607
42.5797 15.2282
42.7713 15.0075
42.963 14.7718
43.1549 14.6211
43.3468 14.3186
43.5389 14.2119
43.7312 13.9898
43.9237 13.8072
44.1162 13.6238
44.3088 13.3821
44.5016 13.2494
44.6945 13.0643
44.8875 12.8685
45.0806 12.673
45.2739 12.4904
45.4673 12.356
45.6609 12.1607
45.8546 11.9992
46.0484 11.8159
46.2424 11.6685
46.4365 11.4859
46.631 11.2918
46.8254 11.136
47.0199 10.9793
47.2146 10.8391
47.4095 10.6568
47.6044 10.4856
47.7996 10.3378
47.9948 10.2056
48.1902 10.0203
48.3858 9.9172
48.5815 9.78423
48.7774 9.64348
48.9734 9.44809
49.1696 9.35065
49.3661 9.20541
49.5626 9.0317
49.7592 8.9016
49.956 8.81118
50.153 8.64448
50.3501 8.51598
50.5474 8.37182
50.7448 8.24015
50.9424 8.11566
51.1402 8.00394
51.3381 7.83948
51.5362 7.73188
51.7344 7.62743
51.9328 7.48311
52.1316 7.33151
52.3304 7.26
52.5293 7.14001
52.7284 6.99155
52.9276 6.88788
53.1271 6.81068
53.3267 6.66626
53.5265 6.53801
53.7264 6.42144
53.9266 6.30151
54.1269 6.19781
54.3274 6.13466
54.528 5.95278
54.7289 5.71858
54.9301 5.61479
55.1314 5.50137
55.3328 5.23462
55.5344 5.06542
55.7361 4.94726

File: Ni3Fe_FD0368.xy
TT I
1.27165 7.71774
1.45013 5.90327
1.62863 5.58068
1.80712 4.55836
1.98562 4.63978
2.16411 4.56889
2.34263 4.8476
2.52115 6.49564
2.69965 7.45332
2.87818 8.79663
3.05672 11.1227
3.23527 14.6572
3.4138 18.8085
3.59237 23.4655
3.77094 25.6923
3.9495 30.1348
4.12809 35.0898
4.30669 105.371
4.4853 55.3285
4.6639 57.0768
4.84253 69.7763
5.02118 91.628
5.19981 626.2
5.37848 222.567
5.55716 106.811
5.73586 96.5902
5.91455 102.246
6.09328 4057.74
6.27201 84.9637
6.45075 69.5745
6.62952 63.5558
6.8083 59.7196
6.98711 56.4791
7.16591 56.5697
7.34475 69.1145
7.5236 55.2785
7.70247 57.3139
7.88135 59.2975
8.06026 64.0233
8.23919 71.4664
8.41812 87.8789
8.59709 1201.26
8.77609 104.261
8.9551 90.8362
9.13412 84.7403
9.31318 85.9254
9.49226 87.1818
9.67134 96.6326
9.85047 103.915
10.0296 448.846
10.2088 451.1
10.388 110.601
10.5672 481.857
10.7465 89.2388
10.9257 79.4388
11.105 73.2129
11.2844 70.4628
11.4637 66.3572
11.6431 65.2329
11.8225 64.2651
12.002 66.647
12.1814 151.74
12.3609 69.3118
12.5405 66.164
12.72 69.7624
12.8996 73.1453
13.0792 83.2769
13.2589 249.067
13.4386 131.686
13.6183 245.836
13.7981 102.188
13.9779 78.0876
14.1577 73.7905
14.3376 72.353
14.5175 70.9949
14.6974 72.8927
14.8774 121.027
15.0574 152.854
15.2374 71.521
15.4175 68.1199
15.5976 68.1558
15.7778 103.949
15.958 160.96
16.1382 63.1181
16.3185 59.3905
16.4988 57.0885
16.6792 56.0114
16.8596 56.4113
17.04 57.9416
17.2205 69.2568
17.401 73.2433
17.5815 60.8536
17.7622 63.3228
17.9428 78.9885
18.1237 138.953
18.3044 92.0555
18.4852 78.7847
18.666 62.0908
18.8469 59.6581
19.0278 58.6096
19.2088 61.9676
19.3898 76.7157
19.5709 55.6282
19.752 54.8856
19.9332 58.4404
20.1144 71.5596
20.2957 64.5951
20.477 54.9711
20.6586 51.1268
20.84 50.2007
21.0215 50.114
21.203 51.8117
21.3846 50.3447
21.5662 50.6445
21.7479 54.7495
21.9297 65.9665
22.1115 57.0205
22.2933 51.1926
22.4753 50.112
22.6572 50.7466
22.8393 53.785
23.0214 58.7291
23.2037 50.3428
23.3859 51.6444
23.5682 57.5823
23.7505 49.775
23.9329 46.4756
24.1154 45.2438
24.2979 44.6236
24.4805 44.2274
24.6631 43.9707
24.8458 43.4164
25.0286 44.2458
25.2114 45.8077
25.3943 45.9197
25.5773 42.0844
25.7605 41.5511
25.9436 42.0382
26.1268 42.8136
26.31 41.2398
26.4933 41.9051
26.6767 43.4211
26.8601 41.4726
27.0437 39.9981
27.2272 39.6984
27.4109 39.557
27.5946 39.5032
27.7784 39.0352
27.9623 39.4307
28.1462 39.9413
28.3304 38.2251
28.5145 36.9032
28.6987 36.6354
28.8829 36.3617
29.0673 35.588
29.2517 35.3302
29.4361 35.0383
29.6207 34.0375
29.8053 33.7033
29.99 33.4518
30.1748 33.255
30.3597 33.2057
30.5447 33.2033
30.7297 33.0093
30.915 32.4647
31.1002 32.0099
31.2855 31.7404
31.4708 31.7134
31.6563 31.1028
31.8418 31.0778
32.0275 30.6952
32.2132 30.1494
32.399 29.7202
32.5848 29.2351
32.7708 28.9122
32.9569 28.8199
33.143 28.497
33.3293 28.1604
33.5158 27.8463
33.7022 27.2726
33.8887 27.0365
34.0753 26.7027
34.262 26.35
34.4488 25.9631
34.6357 25.7407
34.8227 25.3284
35.0098 25.1637
35.1969 24.8776
35.3842 24.6268
35.5716 24.4315
35.759 24.0849
35.9468 23.747
36.1345 23.4131
36.3222 23.2661
36.5101 22.9814
36.6981 22.7175
36.8861 22.3943
37.0743 22.0355
37.2626 21.8186
37.451 21.4899
37.6395 21.3566
37.8281 20.9706
38.0168 20.7366
38.2056 20.4869
38.3945 20.2609
38.5837 20.0121
38.7728 19.7342
38.9621 19.4331
39.1514 19.1424
39.3409 18.9607
39.5304 18.7087
39.7201 18.4947
39.9099 18.3179
40.0999 18.0328
40.2899 17.7713
40.48 17.5728
40.6703 17.2585
40.8607 17.1912
41.0512 16.9755
41.242 16.6683
41.4327 16.5084
41.6236 16.2102
41.8146 16.0508
42.0057 15.869
42.1969 15.5894
42.3882 15.385
42.5797 15.208
42.7713 14.953
42.963 14.8096
43.1549 14.5549
43.3468 14.3861
43.5389 14.1742
43.7312 13.9996
43.9237 13.7866
44.1162 13.6059
44.3088 13.3934
44.5016 13.1842
44.6945 13.0126
44.8875 12.8622
45.0806 12.6934
45.2739 12.5185
45.4673 12.3211
45.6609 12.1469
45.8546 12.0105
46.0484 11.8289
46.2424 11.6843
46.4365 11.4939
46.631 11.3249
46.8254 11.108
47.0199 10.9775
47.2146 10.822
47.4095 10.6366
47.6044 10.5037
47.7996 10.3123
47.9948 10.1699
48.1902 10.039
48.3858 9.89987
48.5815 9.76032
48.7774 9.63406
48.9734 9.46602
49.1696 9.35289
49.3661 9.14837
49.5626 9.05001
49.7592 8.92662
49.956 8.78059
50.153 8.62926
50.3501 8.53241
50.5474 8.37811
50.7448 8.28243
50.9424 8.13417
51.1402 8.00698
51.3381 7.87043
51.5362 7.73859
51.7344 7.6083
51.9328 7.48317
52.1316 7.33238
52.3304 7.20206
52.5293 7.11068
52.7284 6.96792
52.9276 6.88569
53.1271 6.7949
53.3267 6.66334
53.5265 6.49903
53.7264 6.40789
53.9266 6.30083
54.1269 6.21766
54.3274 6.08295
54.528 5.94462
54.7289 5.77725
54.9301 5.63674
55.1314 5.46031
55.3328 5.26571
55.5344 5.07618
55.7361 4.92437

File: Ni3Fe_FD0370.xy
TT I
1.27165 7.08306
1.45013 6.07247
1.62863 5.73782
1.80712 5.03458
1.98562 4.98783
2.16411 4.68306
2.34263 5.58068
2.52115 5.69053
2.69965 7.31603
2.87818 8.57007
3.05672 10.9674
3.23527 14.9052
3.4138 19.3654
3.59237 23.721
3.77094 26.5707
3.9495 30.4037
4.12809 34.7905
4.30669 117.629
4.4853 56.3451
4.6639 57.38
4.84253 70.1165
5.02118 91.7755
5.19981 561.981
5.37848 230.794
5.55716 107.227
5.73586 96.4609
5.91455 101.543
6.09328 3990.05
6.27201 86.2157
6.45075 69.7661
6.62952 63.8985
6.8083 59.8066
6.98711 56.7903
7.16591 56.5105
7.34475 72.1921
7.5236 55.6584
7.70247 57.3723
7.88135 59.5395
8.06026 64.3508
8.23919 71.7924
8.41812 88.6305
8.59709 1200.36
8.77609 105.194
8.9551 91.8262
9.13412 85.1936
9.31318 86.2066
9.49226 87.6951
9.67134 97.1369
9.85047 104.456
10.0296 441.071
10.2088 505.678
10.388 109.57
10.5672 470.829
10.7465 89.8121
10.9257 80.1125
11.105 73.6011
11.2844 70.7504
11.4637 66.8769
11.6431 65.605
11.8225 64.2337
12.002 66.1643
12.1814 149.899
12.3609 70.4961
12.5405 66.4864
12.72 70.5454
12.8996 73.41
13.0792 83.1364
13.2589 249.201
13.4386 138.407
13.6183 244.795
13.7981 106.441
13.9779 78.2257
14.1577 74.3366
14.3376 72.6027
14.5175 71.0964
14.6974 72.9569
14.8774 120.956
15.0574 160.36
15.2374 72.0427
15.4175 68.3077
15.5976 68.1977
15.7778 103.901
15.958 164.63
16.1382 63.5327
16.3185 59.7094
16.4988 57.2155
16.6792 56.1221
16.8596 56.5883
17.04 57.7917
17.2205 69.342
17.401 74.502
17.5815 61.2427
17.7622 63.1536
17.9428 79.0675
18.1237 134.629
18.3044 92.1935
18.4852 80.8889
18.666 62.1941
18.8469 59.6743
19.0278 58.447
19.2088 61.8683
19.3898 75.81
19.5709 55.8504
19.752 54.8733
19.9332 58.5186
20.1144 70.7015
20.2957 64.328
20.477 55.5566
20.6586 51.1168
20.84 50.2314
21.0215 50.125
21.203 51.9374
21.3846 50.5868
21.5662 50.5404
21.7479 54.7667
21.9297 65.2693
22.1115 57.1109
22.2933 51.4323
22.4753 50.2705
22.6572 50.5633
22.8393 53.6849
23.0214 58.571
23.2037 50.3003
23.3859 51.575
23.5682 57.2281
23.7505 50.3065
23.9329 46.5667
24.1154 45.5495
24.2979 44.7328
24.4805 44.1277
24.6631 44.0313
24.8458 43.4439
25.0286 44.0532
25.2114 45.9189
25.3943 45.7635
25.5773 42.1104
25.7605 41.6056
25.9436 42.0142
26.1268 42.7903
26.31 41.2246
26.4933 41.9418
26.6767 43.1666
26.8601 41.6802
27.0437 40.054
27.2272 39.815
27.4109 39.4285
27.5946 39.6258
27.7784 38.9764
27.9623 39.3511
28.1462 40.0029
28.3304 38.2702
28.5145 37.0791
28.6987 36.6601
28.8829 36.331
29.0673 35.6411
29.2517 35.2862
29.4361 34.9704
29.6207 34.0616
29.8053 33.722
29.99 33.5372
30.1748 33.3345
30.3597 33.1426
30.5447 33.0611
30.7297 33.1336
30.915 32.4598
31.1002 32.0271
31.2855 31.7211
31.4708 31.6083
31.6563 31.4113
31.8418 31.0389
32.0275 30.7899
32.2132 30.1958
32.399 29.7313
32.5848 29.3227
32.7708 28.9521
32.9569 28.6981
33.143 28.5343
33.3293 28.1945
33.5158 27.8334
33.7022 27.3151
33.8887 27.0302
34.0753 26.694
34.262 26.3969
34.4488 25.9583
34.6357 25.6173
34.8227 25.3789
35.0098 25.1339
35.1969 24.8451
35.3842 24.6119
35.5716 24.3639
35.759 24.1024
35.9468 23.756
36.1345 23.5157
36.3222 23.335
36.5101 23.0502
36.6981 22.6531
36.8861 22.3926
37.0743 22.1044
37.2626 21.7631
37.451 21.5578
37.6395 21.4496
37.8281 21.0376
38.0168 20.7539
38.2056 20.4865
38.3945 20.1556
38.5837 19.9213
38.7728 19.7397
38.9621 19.443
39.1514 19.2058
39.3409 18.9811
39.5304 18.7564
39.7201 18.5098
39.9099 18.3251
40.0999 18.071
40.2899 17.8417
40.48 17.6351
40.6703 17.3619
40.8607 17.2081
41.0512 16.969
41.242 16.7106
41.4327 16.547
41.6236 16.2691
41.8146 16.1074
42.0057 15.8442
42.1969 15.6505
42.3882 15.4635
42.5797 15.2221
42.7713 15.0246
42.963 14.7837
43.1549 14.5436
43.3468 14.3797
43.5389 14.2009
43.7312 13.9364
43.9237 13.8329
44.1162 13.5796
44.3088 13.4186
44.5016 13.2303
44.6945 13.0999
44.8875 12.8785
45.0806 12.66
45.2739 12.513
45.4673 12.3732
45.6609 12.1858
45.8546 12.0187
46.0484 11.7947
46.2424 11.6303
46.4365 11.5757
46.631 11.2801
46.8254 11.1333
47.0199 10.9685
47.2146 10.8257
47.4095 10.6619
47.6044 10.4664
47.7996 10.3522
47.9948 10.1966
48.1902 10.0291
48.3858 9.92141
48.5815 9.75025
48.7774 9.64354
48.9734 9.48349
49.1696 9.32551
49.3661 9.2117
49.5626 9.03959
49.7592 8.9283
49.956 8.77516
50.153 8.65835
50.3501 8.49989
50.5474 8.38315
50.7448 8.22648
50.9424 8.12631
51.1402 8.00808
51.3381 7.85386
51.5362 7.7604
51.7344 7.59927
51.9328 7.52023
52.1316 7.33487
52.3304 7.25059
52.5293 7.13191
52.7284 7.0323
52.9276 6.86357
53.1271 6.80228
53.3267 6.67377
53.5265 6.53917
53.7264 6.46583
53.9266 6.34392
54.1269 6.17754
54.3274 6.06873
54.528 5.91417
54.7289 5.80459
54.9301 5.64321
55.1314 5.52154
55.3328 5.25169
55.5344 5.01866
55.7361 4.93129

File: Ni3Fe_FD0371.xy
TT I
1.27165 7.79297
1.45013 5.80395
1.62863 5.14231
1.80712 4.8071
1.98562 4.68746
2.16411 4.92512
2.34263 4.52015
2.52115 6.28285
2.69965 7.28589
2.87818 8.15173
3.05672 10.9587
3.23527 14.9825
3.4138 18.8959
3.59237 23.8087
3.77094 25.8859
3.9495 30.1261
4.12809 35.105
4.30669 135.282
4.4853 58.0434
4.6639 57.0142
4.84253 69.4042
5.02118 91.302
5.19981 543.698
5.37848 231.533
5.55716 106.75
5.73586 96.4829
5.91455 101.049
6.09328 3988.02
6.27201 85.6513
6.45075 69.3744
6.62952 63.9358
6.8083 60.0912
6.98711 56.9005
7.16591 56.6009
7.34475 75.9936
7.5236 55.8061
7.70247 57.5559
7.88135 59.1675
8.06026 64.2522
8.23919 71.4975
8.41812 88.0331
8.59709 1193.96
8.77609 105.046
8.9551 92.0688
9.13412 84.688
9.31318 85.7884
9.49226 87.0773
9.67134 98.0023
9.85047 103.372
10.0296 429.766
10.2088 512.885
10.388 109.536
10.5672 472.375
10.7465 90.0036
10.9257 80.0859
11.105 73.3798
11.2844 71.1301
11.4637 66.389
11.6431 65.4668
11.8225 64.3045
12.002 65.9782
12.1814 150.214
12.3609 71.0998
12.5405 66.3443
12.72 70.5412
12.8996 73.2862
13.0792 82.6182
13.2589 248.235
13.4386 139.224
13.6183 245.212
13.7981 107.633
13.9779 78.4475
14.1577 74.2166
14.3376 73.0104
14.5175 71.1369
14.6974 72.8294
14.8774 120.422
15.0574 160.521
15.2374 72.1155
15.4175 68.4318
15.5976 67.8738
15.7778 103.378
15.958 166.705
16.1382 63.6966
16.3185 59.9102
16.4988 57.0895
16.6792 56.1732
16.8596 56.675
17.04 57.6801
17.2205 69.2447
17.401 74.5118
17.5815 61.0302
17.7622 63.0103
17.9428 78.6456
18.1237 134.729
18.3044 92.3697
18.4852 81.4527
18.666 62.3233
18.8469 59.7983
19.0278 58.617
19.2088 61.7728
19.3898 75.684
19.5709 56.077
19.752 55.0279
19.9332 58.5565
20.1144 70.5754
20.2957 64.184
20.477 55.8727
20.6586 51.0837
20.84 50.467
21.0215 50.1719
21.203 51.9957
21.3846 50.6963
21.5662 50.5319
21.7479 54.7806
21.9297 65.4023
22.1115 57.0249
22.2933 51.602
22.4753 50.2838
22.6572 50.5933
22.8393 53.7915
23.0214 58.7348
23.2037 50.41
23.3859 51.7928
23.5682 57.2914
23.7505 50.1365
23.9329 46.5244
24.1154 45.3289
24.2979 44.724
24.4805 44.3708
24.6631 44.0306
24.8458 43.4887
25.0286 44.1013
25.2114 45.944
25.3943 45.6798
25.5773 42.0283
25.7605 41.6276
25.9436 42.0752
26.1268 42.8279
26.31 41.3383
26.4933 42.0159
26.6767 43.2932
26.8601 41.6989
27.0437 40.0632
27.2272 39.6281
27.4109 39.5731
27.5946 39.4342
27.7784 39.0755
27.9623 39.5082
28.1462 39.9313
28.3304 38.2911
28.5145 36.9696
28.6987 36.6073
28.8829 36.272
29.0673 35.7535
29.2517 35.3096
29.4361 35.0804
29.6207 34.0347
29.8053 33.7465
29.99 33.5236
30.1748 33.3118
30.3597 33.1095
30.5447 33.0685
30.7297 33.0922
30.915 32.5621
31.1002 32.0751
31.2855 31.6804
31.4708 31.7514
31.6563 31.2561
31.8418 31.0227
32.0275 30.7832
32.2132 30.2611
32.399 29.7549
32.5848 29.2341
32.7708 28.9677
32.9569 28.8853
33.143 28.5687
33.3293 28.1073
33.5158 27.7105
33.7022 27.433
33.8887 26.9963
34.0753 26.7676
34.262 26.3066
34.4488 26.0331
34.6357 25.7357
34.8227 25.4075
35.0098 25.2502
35.1969 24.9617
35.3842 24.6818
35.5716 24.4356
35.759 24.1069
35.9468 23.7284
36.1345 23.5744
36.3222 23.2898
36.5101 23.0093
36.6981 22.7341
36.8861 22.4102
37.0743 22.117
37.2626 21.8152
37.451 21.5247
37.6395 21.3927
37.8281 21.1195
38.0168 20.764
38.2056 20.486
38.3945 20.1936
38.5837 19.9903
38.7728 19.7532
38.9621 19.5216
39.1514 19.2521
39.3409 18.918
39.5304 18.7763
39.7201 18.5454
39.9099 18.3619
40.0999 18.1023
40.2899 17.8994
40.48 17.5892
40.6703 17.3938
40.8607 17.149
41.0512 16.9796
41.242 16.6807
41.4327 16.4848
41.6236 16.2288
41.8146 16.1114
42.0057 15.8869
42.1969 15.5929
42.3882 15.4957
42.5797 15.2108
42.7713 15.0346
42.963 14.8385
43.1549 14.6442
43.3468 14.3922
43.5389 14.1892
43.7312 13.9619
43.9237 13.8621
44.1162 13.6681
44.3088 13.4227
44.5016 13.2232
44.6945 13.0634
44.8875 12.8974
45.0806 12.7063
45.2739 12.5561
45.4673 12.3507
45.6609 12.1497
45.8546 11.9871
46.0484 11.8674
46.2424 11.6467
46.4365 11.5286
46.631 11.3327
46.8254 11.1586
47.0199 11.0149
47.2146 10.8623
47.4095 10.6413
47.6044 10.5286
47.7996 10.3938
47.9948 10.1675
48.1902 10.0497
48.3858 9.9021
48.5815 9.78191
48.7774 9.65037
48.9734 9.50096
49.1696 9.32701
49.3661 9.17202
49.5626 9.05282
49.7592 8.94096
49.956 8.86156
50.153 8.66888
50.3501 8.54212
50.5474 8.40726
50.7448 8.22325
50.9424 8.16866
51.1402 8.007
51.3381 7.87899
51.5362 7.74124
51.7344 7.60955
51.9328 7.48012
52.1316 7.3622
52.3304 7.25084
52.5293 7.10217
52.7284 6.98085
52.9276 6.91197
53.1271 6.7833
53.3267 6.63426
53.5265 6.53998
53.7264 6.42773
53.9266 6.27856
54.1269 6.20162
54.3274 6.1153
54.528 5.9534
54.7289 5.7701
54.9301 5.60831
55.1314 5.46323
55.3328 5.29973
55.5344 5.11428
55.7361 4.94036

File: Ni3Fe_FD0372.xy
TT I
1.27165 7.90152
1.45013 6.64751
1.62863 5.08518
1.80712 5.07184
1.98562 4.77101
2.16411 4.45993
2.34263 5.85565
2.52115 6.6081
2.69965 7.36227
2.87818 8.36379
3.05672 11.094
3.23527 14.8661
3.4138 19.0155
3.59237 23.6632
3.77094 26.5723
3.9495 30.254
4.12809 35.2125
4.30669 147.475
4.4853 59.8139
4.6639 57.0927
4.84253 69.2934
5.02118 91.2868
5.19981 527.787
5.37848 228.71
5.55716 106.785
5.73586 96.6184
5.91455 100.865
6.09328 4054.61
6.27201 86.3682
6.45075 69.6574
6.62952 64.0662
6.8083 60.0523
6.98711 57.295
7.16591 56.3891
7.34475 78.2604
7.5236 56.0884
7.70247 57.481
7.88135 59.2805
8.06026 63.9741
8.23919 71.5077
8.41812 87.8484
8.59709 1192.37
8.77609 105.437
8.9551 92.3024
9.13412 84.8421
9.31318 86.019
9.49226 87.2998
9.67134 97.9601
9.85047 103.359
10.0296 422.195
10.2088 523.872
10.388 109.238
10.5672 474.672
10.7465 89.6854
10.9257 80.2297
11.105 73.9568
11.2844 71.1023
11.4637 66.7283
11.6431 65.4768
11.8225 63.8791
12.002 65.7883
12.1814 149.996
12.3609 71.3044
12.5405 66.145
12.72 70.939
12.8996 73.2141
13.0792 82.0421
13.2589 247.181
13.4386 139.86
13.6183 245.554
13.7981 107.674
13.9779 78.2316
14.1577 74.0935
14.3376 72.8015
14.5175 70.9762
14.6974 72.7837
14.8774 119.408
15.0574 160.965
15.2374 72.5654
15.4175 68.3576
15.5976 68.0227
15.7778 102.424
15.958 166.463
16.1382 63.9576
16.3185 59.86
16.4988 56.8719
16.6792 56.0705
16.8596 56.6744
17.04 57.745
17.2205 69.3327
17.401 74.4918
17.5815 61.0337
17.7622 63.2703
17.9428 78.223
18.1237 134.94
18.3044 92.6332
18.4852 81.9323
18.666 62.086
18.8469 59.8558
19.0278 58.4357
19.2088 61.6922
19.3898 75.4589
19.5709 55.9566
19.752 55.0584
19.9332 58.436
20.1144 70.3346
20.2957 64.3059
20.477 55.8976
20.6586 51.0259
20.84 50.3612
21.0215 50.0461
21.203 51.8476
21.3846 50.501
21.5662 50.5347
21.7479 54.5413
21.9297 65.1249
22.1115 56.9441
22.2933 51.3089
22.4753 50.177
22.6572 50.5532
22.8393 53.8508
23.0214 58.6087
23.2037 50.2168
23.3859 51.5403
23.5682 57.3218
23.7505 50.4081
23.9329 46.7144
24.1154 45.391
24.2979 44.6198
24.4805 44.1634
24.6631 44.0114
24.8458 43.3986
25.0286 44.1134
25.2114 45.9765
25.3943 45.8549
25.5773 42.1098
25.7605 41.6449
25.9436 42.0478
26.1268 42.8138
26.31 41.3238
26.4933 41.9725
26.6767 43.1778
26.8601 41.6303
27.0437 40.0463
27.2272 39.6452
27.4109 39.5001
27.5946 39.5303
27.7784 38.995
27.9623 39.3939
28.1462 39.9806
28.3304 38.3027
28.5145 36.9788
28.6987 36.7032
28.8829 36.3778
29.0673 35.613
29.2517 35.3469
29.4361 35.1532
29.6207 34.2352
29.8053 33.8241
29.99 33.5219
30.1748 33.2672
30.3597 33.2073
30.5447 33.1069
30.7297 33.0868
30.915 32.5535
31.1002 31.9852
31.2855 31.8427
31.4708 31.5853
31.6563 31.2205
31.8418 31.1206
32.0275 30.7365
32.2132 30.3209
32.399 29.7522
32.5848 29.3028
32.7708 28.9523
32.9569 28.6888
33.143 28.5301
33.3293 28.1394
33.5158 27.7964
33.7022 27.344
33.8887 27.0168
34.0753 26.6703
34.262 26.3386
34.4488 25.9315
34.6357 25.7112
34.8227 25.4279
35.0098 25.1442
35.1969 24.7881
35.3842 24.6761
35.5716 24.3096
35.759 24.1435
35.9468 23.854
36.1345 23.4451
36.3222 23.3003
36.5101 22.9931
36.6981 22.6984
36.8861 22.3572
37.0743 22.0628
37.2626 21.83
37.451 21.5346
37.6395 21.4017
37.8281 21.0117
38.0168 20.7865
38.2056 20.5377
38.3945 20.2209
38.5837 20.0353
38.7728 19.8114
38.9621 19.5068
39.1514 19.2669
39.3409 19.0441
39.5304 18.7477
39.7201 18.5652
39.9099 18.3722
40.0999 18.0742
40.2899 17.8534
40.48 17.618
40.6703 17.3538
40.8607 17.1839
41.0512 16.9607
41.242 16.7594
41.4327 16.4881
41.6236 16.2653
41.8146 16.0923
42.0057 15.8657
42.1969 15.6299
42.3882 15.4539
42.5797 15.2017
42.7713 15.0127
42.963 14.8083
43.1549 14.6018
43.3468 14.388
43.5389 14.2107
43.7312 13.9769
43.9237 13.8458
44.1162 13.6362
44.3088 13.4236
44.5016 13.196
44.6945 13.1473
44.8875 12.9205
45.0806 12.7034
45.2739 12.496
45.4673 12.3935
45.6609 12.1904
45.8546 12.0577
46.0484 11.8203
46.2424 11.6464
46.4365 11.5225
46.631 11.3215
46.8254 11.1424
47.0199 10.9644
47.2146 10.8184
47.4095 10.6234
47.6044 10.5421
47.7996 10.3443
47.9948 10.1997
48.1902 10.0476
48.3858 9.96986
48.5815 9.78447
48.7774 9.61388
48.9734 9.48618
49.1696 9.3222
49.3661 9.22504
49.5626 9.01554
49.7592 8.91342
49.956 8.79738
50.153 8.65302
50.3501 8.50172
50.5474 8.36898
50.7448 8.27073
50.9424 8.13824
51.1402 8.02397
51.3381 7.86822
51.5362 7.73625
51.7344 7.64398
51.9328 7.49591
52.1316 7.33364
52.3304 7.27214
52.5293 7.15612
52.7284 7.03143
52.9276 6.88378
53.1271 6.78723
53.3267 6.68021
53.5265 6.51689
53.7264 6.43758
53.9266 6.35257
54.1269 6.21875
54.3274 6.10922
54.528 5.97264
54.7289 5.78796
54.9301 5.56751
55.1314 5.51847
55.3328 5.23774
55.5344 5.07459
55.7361 4.96525