Folder: NiFe_MOF_catalyst_paper/XRD (part 34)

File: Ni3Fe_FD0172.xy
TT I
1.27165 8.16037
1.45013 6.46711
1.62863 5.90165
1.80712 5.082
1.98562 5.10902
2.16411 4.89696
2.34263 4.08986
2.52115 3.69965
2.69965 6.31944
2.87818 7.9602
3.05672 11.2955
3.23527 14.6627
3.4138 18.7973
3.59237 21.8019
3.77094 25.1711
3.9495 28.8467
4.12809 32.6903
4.30669 38.2141
4.4853 45.1471
4.6639 54.2966
4.84253 66.603
5.02118 90.8812
5.19981 527.813
5.37848 416.111
5.55716 107.545
5.73586 95.5908
5.91455 104.789
6.09328 2867.62
6.27201 88.7798
6.45075 66.6675
6.62952 59.9812
6.8083 55.6472
6.98711 53.8655
7.16591 52.3583
7.34475 52.7225
7.5236 55.8011
7.70247 54.363
7.88135 56.4109
8.06026 60.9676
8.23919 68.3734
8.41812 84.0125
8.59709 910.729
8.77609 115.482
8.9551 85.3476
9.13412 81.6875
9.31318 86.4514
9.49226 84.0779
9.67134 89.0917
9.85047 99.4008
10.0296 537.279
10.2088 942.923
10.388 104.481
10.5672 343.308
10.7465 90.5356
10.9257 76.1533
11.105 70.3927
11.2844 66.5195
11.4637 63.6848
11.6431 62.4605
11.8225 61.4629
12.002 65.4458
12.1814 120.593
12.3609 75.0867
12.5405 63.6426
12.72 65.7533
12.8996 70.1266
13.0792 79.7066
13.2589 209.4
13.4386 203.061
13.6183 198.465
13.7981 149.167
13.9779 76.3347
14.1577 74.4398
14.3376 69.6883
14.5175 68.7769
14.6974 70.2567
14.8774 121.427
15.0574 204.483
15.2374 69.2649
15.4175 66.3676
15.5976 66.0121
15.7778 107.483
15.958 186.65
16.1382 62.0848
16.3185 57.6169
16.4988 55.4203
16.6792 54.4439
16.8596 54.6388
17.04 55.5893
17.2205 65.7772
17.401 81.3681
17.5815 59.3464
17.7622 61.7413
17.9428 83.5949
18.1237 117.848
18.3044 88.8408
18.4852 95.0192
18.666 61.2215
18.8469 58.5765
19.0278 57.013
19.2088 61.8771
19.3898 70.0271
19.5709 56.3096
19.752 53.778
19.9332 58.3193
20.1144 67.6836
20.2957 61.7647
20.477 59.0592
20.6586 50.0549
20.84 49.3778
21.0215 49.2883
21.203 50.0543
21.3846 50.7252
21.5662 49.2772
21.7479 54.3981
21.9297 62.8456
22.1115 56.5886
22.2933 52.534
22.4753 49.1324
22.6572 49.4441
22.8393 52.455
23.0214 57.8264
23.2037 50.1372
23.3859 52.1129
23.5682 54.3609
23.7505 53.3613
23.9329 45.8201
24.1154 44.8466
24.2979 43.8653
24.4805 43.2977
24.6631 43.4985
24.8458 42.8453
25.0286 43.3805
25.2114 44.998
25.3943 45.0755
25.5773 41.8919
25.7605 41.1338
25.9436 41.2527
26.1268 41.9155
26.31 41.2841
26.4933 41.4238
26.6767 42.5577
26.8601 41.5438
27.0437 39.8822
27.2272 39.2138
27.4109 38.9387
27.5946 39.0796
27.7784 38.7446
27.9623 38.7463
28.1462 39.7062
28.3304 38.2843
28.5145 36.5652
28.6987 36.16
28.8829 35.786
29.0673 35.3857
29.2517 34.8043
29.4361 34.6538
29.6207 33.7116
29.8053 33.3286
29.99 33.1094
30.1748 32.8166
30.3597 32.9124
30.5447 32.672
30.7297 32.6712
30.915 32.2863
31.1002 31.7778
31.2855 31.3588
31.4708 31.182
31.6563 31.1326
31.8418 30.6367
32.0275 30.4432
32.2132 30.0021
32.399 29.4252
32.5848 28.9121
32.7708 28.617
32.9569 28.545
33.143 28.235
33.3293 27.9409
33.5158 27.5392
33.7022 26.9364
33.8887 26.6401
34.0753 26.3627
34.262 26.0729
34.4488 25.7148
34.6357 25.3939
34.8227 24.9517
35.0098 24.8642
35.1969 24.6574
35.3842 24.3183
35.5716 24.1763
35.759 23.8687
35.9468 23.531
36.1345 23.2812
36.3222 23.0334
36.5101 22.7114
36.6981 22.4939
36.8861 22.2284
37.0743 21.8342
37.2626 21.5863
37.451 21.2831
37.6395 21.1356
37.8281 20.8551
38.0168 20.5361
38.2056 20.2748
38.3945 19.9484
38.5837 19.7274
38.7728 19.5205
38.9621 19.2565
39.1514 19.0563
39.3409 18.7468
39.5304 18.506
39.7201 18.3327
39.9099 18.082
40.0999 17.8421
40.2899 17.6221
40.48 17.382
40.6703 17.1879
40.8607 16.9961
41.0512 16.7342
41.242 16.5013
41.4327 16.2782
41.6236 16.0903
41.8146 15.9098
42.0057 15.6722
42.1969 15.4532
42.3882 15.2767
42.5797 15.0305
42.7713 14.8747
42.963 14.5957
43.1549 14.4183
43.3468 14.2009
43.5389 14.077
43.7312 13.8519
43.9237 13.656
44.1162 13.4419
44.3088 13.2533
44.5016 13.0747
44.6945 12.8751
44.8875 12.7106
45.0806 12.5482
45.2739 12.3495
45.4673 12.219
45.6609 12.0217
45.8546 11.8837
46.0484 11.6923
46.2424 11.4959
46.4365 11.3772
46.631 11.2141
46.8254 11.0043
47.0199 10.8394
47.2146 10.6685
47.4095 10.5173
47.6044 10.4064
47.7996 10.202
47.9948 10.105
48.1902 9.93489
48.3858 9.76525
48.5815 9.65378
48.7774 9.51218
48.9734 9.38865
49.1696 9.2363
49.3661 9.06158
49.5626 8.96302
49.7592 8.82506
49.956 8.74745
50.153 8.55912
50.3501 8.40677
50.5474 8.34039
50.7448 8.19282
50.9424 8.04741
51.1402 7.93435
51.3381 7.78082
51.5362 7.65592
51.7344 7.56351
51.9328 7.42736
52.1316 7.27805
52.3304 7.18017
52.5293 7.03985
52.7284 6.97951
52.9276 6.86391
53.1271 6.71568
53.3267 6.57902
53.5265 6.42995
53.7264 6.36678
53.9266 6.28793
54.1269 6.13492
54.3274 6.0352
54.528 5.8667
54.7289 5.68286
54.9301 5.48132
55.1314 5.37419
55.3328 5.13356
55.5344 4.94017
55.7361 4.81791

File: Ni3Fe_FD0173.xy
TT I
1.27165 7.8414
1.45013 6.4914
1.62863 6.31209
1.80712 4.70547
1.98562 4.90467
2.16411 4.77023
2.34263 4.8675
2.52115 4.97018
2.69965 6.22281
2.87818 8.21489
3.05672 11.2389
3.23527 15.755
3.4138 18.6751
3.59237 22.3007
3.77094 25.0357
3.9495 28.5849
4.12809 33.0436
4.30669 38.1228
4.4853 45.4401
4.6639 53.7832
4.84253 66.6818
5.02118 90.5058
5.19981 527.166
5.37848 414.545
5.55716 107.978
5.73586 95.848
5.91455 105.244
6.09328 2867.51
6.27201 88.4263
6.45075 66.4856
6.62952 60.128
6.8083 56.2471
6.98711 53.8516
7.16591 53.0658
7.34475 52.506
7.5236 56.112
7.70247 54.3269
7.88135 56.5813
8.06026 60.9793
8.23919 68.6504
8.41812 84.2781
8.59709 913.403
8.77609 115.94
8.9551 85.5598
9.13412 81.7982
9.31318 86.0667
9.49226 83.7
9.67134 88.9954
9.85047 99.4909
10.0296 537.468
10.2088 943.86
10.388 105.314
10.5672 342.682
10.7465 90.8266
10.9257 76.2251
11.105 70.5108
11.2844 66.4019
11.4637 63.7755
11.6431 62.5415
11.8225 61.5598
12.002 65.3748
12.1814 120.589
12.3609 74.5321
12.5405 63.5616
12.72 65.582
12.8996 70.0812
13.0792 79.5099
13.2589 209.054
13.4386 203.413
13.6183 198.303
13.7981 148.584
13.9779 76.4271
14.1577 74.0597
14.3376 69.4205
14.5175 68.6122
14.6974 70.1014
14.8774 121.91
15.0574 205.232
15.2374 69.2279
15.4175 66.577
15.5976 65.825
15.7778 107.62
15.958 187.026
16.1382 61.8876
16.3185 57.6712
16.4988 55.3063
16.6792 54.2894
16.8596 54.4692
17.04 55.5091
17.2205 65.9991
17.401 81.5115
17.5815 59.2947
17.7622 61.8154
17.9428 83.6871
18.1237 118.052
18.3044 89.0407
18.4852 94.6234
18.666 61.2768
18.8469 58.597
19.0278 57.1227
19.2088 62.0153
19.3898 70.161
19.5709 56.3631
19.752 53.784
19.9332 58.3936
20.1144 67.8058
20.2957 61.751
20.477 59.1341
20.6586 50.0594
20.84 49.382
21.0215 49.4203
21.203 50.1798
21.3846 50.6677
21.5662 49.3213
21.7479 54.435
21.9297 63.0485
22.1115 56.6361
22.2933 52.5628
22.4753 49.1845
22.6572 49.4668
22.8393 52.5867
23.0214 57.8979
23.2037 50.2202
23.3859 52.212
23.5682 54.4108
23.7505 53.4645
23.9329 45.8628
24.1154 44.7249
24.2979 44.0229
24.4805 43.48
24.6631 43.4003
24.8458 42.7485
25.0286 43.4036
25.2114 45.206
25.3943 45.4063
25.5773 42.0672
25.7605 40.9142
25.9436 41.3264
26.1268 42.0966
26.31 41.1583
26.4933 41.2431
26.6767 42.4364
26.8601 41.7111
27.0437 39.8344
27.2272 39.2352
27.4109 39.025
27.5946 39.0591
27.7784 38.8213
27.9623 38.8899
28.1462 39.7667
28.3304 38.2357
28.5145 36.6716
28.6987 36.3278
28.8829 35.9521
29.0673 35.388
29.2517 34.8819
29.4361 34.6233
29.6207 33.8158
29.8053 33.3848
29.99 33.0319
30.1748 32.9032
30.3597 32.8797
30.5447 32.6338
30.7297 32.5864
30.915 32.368
31.1002 31.7183
31.2855 31.3666
31.4708 31.1724
31.6563 31.0892
31.8418 30.6327
32.0275 30.5145
32.2132 30.0406
32.399 29.3836
32.5848 28.9435
32.7708 28.5404
32.9569 28.484
33.143 28.1681
33.3293 27.8618
33.5158 27.5306
33.7022 27.0405
33.8887 26.6306
34.0753 26.5091
34.262 25.9409
34.4488 25.6883
34.6357 25.3533
34.8227 25.0411
35.0098 24.9105
35.1969 24.5307
35.3842 24.3207
35.5716 24.2056
35.759 23.8238
35.9468 23.4344
36.1345 23.2105
36.3222 23.0796
36.5101 22.8036
36.6981 22.4963
36.8861 22.1583
37.0743 21.8674
37.2626 21.5801
37.451 21.313
37.6395 21.1731
37.8281 20.7952
38.0168 20.5522
38.2056 20.2499
38.3945 20.0393
38.5837 19.7779
38.7728 19.519
38.9621 19.196
39.1514 18.9462
39.3409 18.7795
39.5304 18.5542
39.7201 18.4053
39.9099 18.0641
40.0999 17.8117
40.2899 17.6653
40.48 17.447
40.6703 17.2278
40.8607 16.9779
41.0512 16.8088
41.242 16.5017
41.4327 16.3373
41.6236 16.0994
41.8146 15.8558
42.0057 15.6626
42.1969 15.4333
42.3882 15.2577
42.5797 15.0289
42.7713 14.8316
42.963 14.6721
43.1549 14.4119
43.3468 14.2204
43.5389 14.0926
43.7312 13.8891
43.9237 13.6622
44.1162 13.491
44.3088 13.2539
44.5016 13.0822
44.6945 12.9314
44.8875 12.7413
45.0806 12.5249
45.2739 12.3394
45.4673 12.224
45.6609 12.0323
45.8546 11.8775
46.0484 11.7168
46.2424 11.5455
46.4365 11.3304
46.631 11.1568
46.8254 11.0299
47.0199 10.8829
47.2146 10.7378
47.4095 10.5467
47.6044 10.3941
47.7996 10.2172
47.9948 10.0722
48.1902 9.94218
48.3858 9.80642
48.5815 9.67544
48.7774 9.55133
48.9734 9.38448
49.1696 9.21013
49.3661 9.1005
49.5626 8.96072
49.7592 8.82896
49.956 8.70898
50.153 8.55573
50.3501 8.43331
50.5474 8.3137
50.7448 8.22591
50.9424 8.0736
51.1402 7.89406
51.3381 7.78166
51.5362 7.65985
51.7344 7.54028
51.9328 7.44503
52.1316 7.27213
52.3304 7.17017
52.5293 7.0522
52.7284 6.92472
52.9276 6.815
53.1271 6.73635
53.3267 6.57573
53.5265 6.46532
53.7264 6.38901
53.9266 6.28141
54.1269 6.13221
54.3274 6.01256
54.528 5.84569
54.7289 5.6813
54.9301 5.50117
55.1314 5.36105
55.3328 5.13589
55.5344 4.94817
55.7361 4.86295

File: Ni3Fe_FD0174.xy
TT I
1.27165 7.93145
1.45013 5.96513
1.62863 5.85549
1.80712 5.4142
1.98562 4.69429
2.16411 5.10171
2.34263 4.39456
2.52115 4.38457
2.69965 5.69336
2.87818 8.20907
3.05672 11.0034
3.23527 15.1113
3.4138 19.0316
3.59237 21.7857
3.77094 25.1726
3.9495 28.5155
4.12809 33.0284
4.30669 37.9654
4.4853 45.0075
4.6639 54.1254
4.84253 66.9512
5.02118 91.0256
5.19981 531.511
5.37848 411.49
5.55716 107.715
5.73586 95.6216
5.91455 104.782
6.09328 2874.57
6.27201 88.4456
6.45075 66.7142
6.62952 60.4974
6.8083 56.093
6.98711 53.7205
7.16591 53.0535
7.34475 52.3354
7.5236 55.7215
7.70247 54.4167
7.88135 56.7317
8.06026 61.0343
8.23919 68.3579
8.41812 84.2867
8.59709 916.214
8.77609 116.014
8.9551 85.9519
9.13412 82.0133
9.31318 86.1703
9.49226 84.6143
9.67134 89.2843
9.85047 99.4454
10.0296 538.884
10.2088 930.959
10.388 104.808
10.5672 343.071
10.7465 90.5676
10.9257 76.186
11.105 70.8181
11.2844 66.8593
11.4637 63.9717
11.6431 62.5238
11.8225 61.4615
12.002 65.3302
12.1814 121.295
12.3609 74.2679
12.5405 63.5086
12.72 65.6589
12.8996 70.3144
13.0792 79.8296
13.2589 209.881
13.4386 201.572
13.6183 199.086
13.7981 147.479
13.9779 76.5509
14.1577 74.1565
14.3376 69.5053
14.5175 68.9283
14.6974 70.1604
14.8774 121.494
15.0574 203.525
15.2374 69.361
15.4175 66.4552
15.5976 66.0754
15.7778 107.356
15.958 186.32
16.1382 61.8919
16.3185 57.8166
16.4988 55.5562
16.6792 54.5625
16.8596 54.6428
17.04 55.749
17.2205 65.6471
17.401 81.2683
17.5815 59.3385
17.7622 61.6419
17.9428 83.8598
18.1237 118.161
18.3044 89.019
18.4852 94.1365
18.666 61.4245
18.8469 58.5845
19.0278 57.0825
19.2088 62.0624
19.3898 70.036
19.5709 56.5303
19.752 53.6604
19.9332 58.3485
20.1144 67.9967
20.2957 61.6357
20.477 58.9398
20.6586 50.2126
20.84 49.2748
21.0215 49.2161
21.203 50.1671
21.3846 50.8015
21.5662 49.5466
21.7479 54.2843
21.9297 63.0419
22.1115 56.7345
22.2933 52.6262
22.4753 49.3336
22.6572 49.5647
22.8393 52.4537
23.0214 57.9208
23.2037 50.026
23.3859 52.1748
23.5682 54.404
23.7505 53.2202
23.9329 45.9877
24.1154 44.7474
24.2979 43.9445
24.4805 43.3717
24.6631 43.3131
24.8458 42.8126
25.0286 43.4021
25.2114 45.1971
25.3943 45.2262
25.5773 41.933
25.7605 41.0627
25.9436 41.3783
26.1268 42.0711
26.31 41.1272
26.4933 41.3005
26.6767 42.4314
26.8601 41.4509
27.0437 39.8225
27.2272 39.1859
27.4109 38.9576
27.5946 39.0695
27.7784 38.9113
27.9623 38.7127
28.1462 39.8546
28.3304 38.1692
28.5145 36.605
28.6987 36.2809
28.8829 35.9029
29.0673 35.4349
29.2517 34.7457
29.4361 34.5495
29.6207 33.7684
29.8053 33.365
29.99 33.1382
30.1748 32.7593
30.3597 32.9939
30.5447 32.5285
30.7297 32.5869
30.915 32.4186
31.1002 31.7497
31.2855 31.4284
31.4708 31.1804
31.6563 31.136
31.8418 30.659
32.0275 30.4804
32.2132 29.9816
32.399 29.4203
32.5848 28.9727
32.7708 28.6305
32.9569 28.4156
33.143 28.2022
33.3293 27.9061
33.5158 27.5504
33.7022 26.9829
33.8887 26.6762
34.0753 26.4395
34.262 26.1156
34.4488 25.6753
34.6357 25.324
34.8227 25.0807
35.0098 24.9077
35.1969 24.5896
35.3842 24.3082
35.5716 24.223
35.759 23.8123
35.9468 23.4672
36.1345 23.2948
36.3222 23.0716
36.5101 22.7894
36.6981 22.4732
36.8861 22.2283
37.0743 21.7966
37.2626 21.5596
37.451 21.2887
37.6395 21.213
37.8281 20.8971
38.0168 20.5356
38.2056 20.2507
38.3945 19.9963
38.5837 19.6855
38.7728 19.5087
38.9621 19.3162
39.1514 19.0187
39.3409 18.769
39.5304 18.4475
39.7201 18.3279
39.9099 18.1
40.0999 17.8875
40.2899 17.6238
40.48 17.3539
40.6703 17.1714
40.8607 17.0504
41.0512 16.7484
41.242 16.5251
41.4327 16.2717
41.6236 16.0567
41.8146 15.8586
42.0057 15.7115
42.1969 15.4684
42.3882 15.265
42.5797 15.0305
42.7713 14.8181
42.963 14.6531
43.1549 14.439
43.3468 14.2236
43.5389 14.0425
43.7312 13.806
43.9237 13.6149
44.1162 13.4743
44.3088 13.2964
44.5016 13.0718
44.6945 12.9045
44.8875 12.7164
45.0806 12.5303
45.2739 12.3719
45.4673 12.2142
45.6609 12.0229
45.8546 11.8531
46.0484 11.707
46.2424 11.5051
46.4365 11.382
46.631 11.1841
46.8254 11.0232
47.0199 10.8771
47.2146 10.7007
47.4095 10.5155
47.6044 10.4089
47.7996 10.2085
47.9948 10.0614
48.1902 9.9539
48.3858 9.79115
48.5815 9.66654
48.7774 9.51657
48.9734 9.38041
49.1696 9.22208
49.3661 9.10129
49.5626 8.94631
49.7592 8.85032
49.956 8.69597
50.153 8.54543
50.3501 8.43385
50.5474 8.31549
50.7448 8.21495
50.9424 8.05962
51.1402 7.94968
51.3381 7.78514
51.5362 7.66755
51.7344 7.52215
51.9328 7.41793
52.1316 7.27353
52.3304 7.21454
52.5293 7.06255
52.7284 6.9503
52.9276 6.7723
53.1271 6.73373
53.3267 6.6161
53.5265 6.48525
53.7264 6.38092
53.9266 6.23249
54.1269 6.12067
54.3274 6.01746
54.528 5.84297
54.7289 5.61573
54.9301 5.4862
55.1314 5.39724
55.3328 5.11694
55.5344 4.9775
55.7361 4.78356

File: Ni3Fe_FD0175.xy
TT I
1.27165 8.05958
1.45013 6.65302
1.62863 5.61023
1.80712 5.48648
1.98562 4.17586
2.16411 4.51348
2.34263 4.79012
2.52115 4.45484
2.69965 5.87588
2.87818 7.95937
3.05672 11.4059
3.23527 14.912
3.4138 18.8317
3.59237 22.1002
3.77094 25.0946
3.9495 28.839
4.12809 33.0931
4.30669 37.7622
4.4853 45.2123
4.6639 53.9914
4.84253 66.7059
5.02118 90.9485
5.19981 521.611
5.37848 414.176
5.55716 107.58
5.73586 95.7852
5.91455 104.707
6.09328 2858.45
6.27201 88.8392
6.45075 66.734
6.62952 60.2041
6.8083 56.2238
6.98711 54.1362
7.16591 52.9331
7.34475 52.4323
7.5236 55.4553
7.70247 54.2684
7.88135 56.5199
8.06026 60.9697
8.23919 68.121
8.41812 83.6466
8.59709 915.641
8.77609 115.234
8.9551 85.6271
9.13412 81.7847
9.31318 86.2209
9.49226 84.3004
9.67134 89.3003
9.85047 98.9644
10.0296 535.333
10.2088 947.022
10.388 104.877
10.5672 343.62
10.7465 90.407
10.9257 76.2739
11.105 70.3899
11.2844 66.7158
11.4637 64.075
11.6431 62.4752
11.8225 61.4824
12.002 65.1765
12.1814 120.913
12.3609 74.3522
12.5405 63.384
12.72 65.537
12.8996 69.9504
13.0792 79.3164
13.2589 209.526
13.4386 203.673
13.6183 198.609
13.7981 150.003
13.9779 76.5282
14.1577 74.2084
14.3376 69.2754
14.5175 68.7185
14.6974 70.131
14.8774 121.299
15.0574 204.923
15.2374 69.3731
15.4175 66.641
15.5976 66.0757
15.7778 107.351
15.958 187.065
16.1382 62.0969
16.3185 57.584
16.4988 55.4879
16.6792 54.3784
16.8596 54.3847
17.04 55.6596
17.2205 65.8418
17.401 81.2586
17.5815 59.3848
17.7622 61.5626
17.9428 83.8196
18.1237 118.04
18.3044 89.0416
18.4852 94.9034
18.666 61.1809
18.8469 58.5279
19.0278 57.058
19.2088 61.9188
19.3898 70.3161
19.5709 56.6198
19.752 53.8121
19.9332 58.4925
20.1144 67.9272
20.2957 61.917
20.477 59.0688
20.6586 50.0654
20.84 49.2407
21.0215 49.1149
21.203 50.1651
21.3846 50.811
21.5662 49.2647
21.7479 54.5013
21.9297 63.1533
22.1115 56.8806
22.2933 52.6142
22.4753 49.2892
22.6572 49.342
22.8393 52.6373
23.0214 57.8108
23.2037 50.1017
23.3859 51.9121
23.5682 54.3328
23.7505 53.4676
23.9329 46.0345
24.1154 44.5777
24.2979 43.996
24.4805 43.1795
24.6631 43.4476
24.8458 42.7631
25.0286 43.3171
25.2114 45.1544
25.3943 45.3095
25.5773 42.0038
25.7605 41.0174
25.9436 41.3117
26.1268 42.0177
26.31 41.2686
26.4933 41.3532
26.6767 42.5494
26.8601 41.57
27.0437 39.8984
27.2272 39.3215
27.4109 38.8792
27.5946 39.0427
27.7784 38.7957
27.9623 38.8586
28.1462 39.7892
28.3304 38.3704
28.5145 36.5305
28.6987 36.2004
28.8829 35.8469
29.0673 35.4624
29.2517 34.7795
29.4361 34.6041
29.6207 33.8468
29.8053 33.3537
29.99 33.0246
30.1748 32.8429
30.3597 32.8361
30.5447 32.7063
30.7297 32.6597
30.915 32.4013
31.1002 31.7788
31.2855 31.344
31.4708 31.2067
31.6563 31.0385
31.8418 30.6141
32.0275 30.4999
32.2132 30.0361
32.399 29.3091
32.5848 28.8982
32.7708 28.5833
32.9569 28.4029
33.143 28.2567
33.3293 27.8447
33.5158 27.5834
33.7022 27.042
33.8887 26.6483
34.0753 26.4299
34.262 26.0972
34.4488 25.7235
34.6357 25.3263
34.8227 24.9464
35.0098 24.9248
35.1969 24.5498
35.3842 24.3587
35.5716 24.1927
35.759 23.9029
35.9468 23.4902
36.1345 23.2616
36.3222 23.0669
36.5101 22.7361
36.6981 22.5784
36.8861 22.2624
37.0743 21.8715
37.2626 21.5723
37.451 21.3333
37.6395 21.2447
37.8281 20.802
38.0168 20.5324
38.2056 20.3042
38.3945 19.9539
38.5837 19.7791
38.7728 19.546
38.9621 19.2086
39.1514 18.9988
39.3409 18.7184
39.5304 18.5652
39.7201 18.339
39.9099 18.085
40.0999 17.8749
40.2899 17.6383
40.48 17.449
40.6703 17.1786
40.8607 16.9688
41.0512 16.7365
41.242 16.4947
41.4327 16.3579
41.6236 16.1339
41.8146 15.8659
42.0057 15.635
42.1969 15.4615
42.3882 15.2979
42.5797 15.0992
42.7713 14.8413
42.963 14.6691
43.1549 14.4505
43.3468 14.2405
43.5389 14.034
43.7312 13.8529
43.9237 13.7009
44.1162 13.4376
44.3088 13.2201
44.5016 13.0694
44.6945 12.9054
44.8875 12.7624
45.0806 12.5446
45.2739 12.3792
45.4673 12.2223
45.6609 12.0468
45.8546 11.8759
46.0484 11.7198
46.2424 11.532
46.4365 11.3641
46.631 11.1881
46.8254 11.0068
47.0199 10.8521
47.2146 10.7415
47.4095 10.5568
47.6044 10.425
47.7996 10.2523
47.9948 10.0664
48.1902 9.96055
48.3858 9.79634
48.5815 9.67656
48.7774 9.50988
48.9734 9.38127
49.1696 9.25522
49.3661 9.09182
49.5626 8.95402
49.7592 8.86127
49.956 8.69461
50.153 8.58808
50.3501 8.40609
50.5474 8.32987
50.7448 8.17974
50.9424 8.07491
51.1402 7.92609
51.3381 7.77227
51.5362 7.67875
51.7344 7.5331
51.9328 7.45789
52.1316 7.23736
52.3304 7.22144
52.5293 7.0549
52.7284 6.93571
52.9276 6.83169
53.1271 6.7465
53.3267 6.61352
53.5265 6.48245
53.7264 6.40589
53.9266 6.29139
54.1269 6.15969
54.3274 6.02669
54.528 5.85082
54.7289 5.65517
54.9301 5.49993
55.1314 5.34706
55.3328 5.15198
55.5344 4.94049
55.7361 4.81905

File: Ni3Fe_FD0177.xy
TT I
1.27165 8.43935
1.45013 5.96786
1.62863 5.83032
1.80712 5.02774
1.98562 5.15329
2.16411 4.70153
2.34263 4.23404
2.52115 4.65969
2.69965 5.74223
2.87818 8.41698
3.05672 11.6435
3.23527 14.8642
3.4138 18.9308
3.59237 22.1178
3.77094 25.2354
3.9495 28.7042
4.12809 32.9224
4.30669 38.1939
4.4853 45.2404
4.6639 53.8787
4.84253 66.4551
5.02118 90.8198
5.19981 519.035
5.37848 410.564
5.55716 107.579
5.73586 95.4473
5.91455 104.991
6.09328 2865.7
6.27201 88.7486
6.45075 66.886
6.62952 60.0861
6.8083 56.0262
6.98711 53.5613
7.16591 53.1357
7.34475 52.3902
7.5236 55.7117
7.70247 54.2244
7.88135 56.5699
8.06026 60.731
8.23919 68.3418
8.41812 84.0904
8.59709 919.124
8.77609 115.445
8.9551 85.8316
9.13412 81.6158
9.31318 85.6889
9.49226 84.3163
9.67134 89.2812
9.85047 99.2806
10.0296 535.147
10.2088 949.38
10.388 105.143
10.5672 345.203
10.7465 90.6149
10.9257 76.0942
11.105 70.5613
11.2844 66.8221
11.4637 63.7728
11.6431 62.2583
11.8225 61.5682
12.002 65.0911
12.1814 121.33
12.3609 73.9348
12.5405 63.3246
12.72 65.6504
12.8996 70.3268
13.0792 79.546
13.2589 209.85
13.4386 202.979
13.6183 199.054
13.7981 150.032
13.9779 76.4044
14.1577 74.2628
14.3376 69.3389
14.5175 68.6097
14.6974 70.2063
14.8774 121.759
15.0574 205.075
15.2374 69.5651
15.4175 66.629
15.5976 66.0646
15.7778 107.629
15.958 187.366
16.1382 61.9621
16.3185 57.4947
16.4988 55.3284
16.6792 54.3025
16.8596 54.6499
17.04 55.63
17.2205 65.9283
17.401 81.5677
17.5815 59.5391
17.7622 61.6069
17.9428 83.6896
18.1237 118.264
18.3044 89.3087
18.4852 95.1352
18.666 61.2819
18.8469 58.8174
19.0278 57.1856
19.2088 62.0827
19.3898 70.2437
19.5709 56.6007
19.752 53.9354
19.9332 58.6137
20.1144 68.0614
20.2957 61.9662
20.477 59.261
20.6586 50.1034
20.84 49.3411
21.0215 49.4296
21.203 50.1449
21.3846 50.7487
21.5662 49.3281
21.7479 54.4605
21.9297 63.3257
22.1115 56.9082
22.2933 52.7987
22.4753 49.1826
22.6572 49.5315
22.8393 52.5804
23.0214 57.9864
23.2037 50.2531
23.3859 52.1523
23.5682 54.4329
23.7505 53.3517
23.9329 46.041
24.1154 44.7893
24.2979 43.9964
24.4805 43.3736
24.6631 43.4615
24.8458 42.797
25.0286 43.3397
25.2114 45.1518
25.3943 45.4271
25.5773 41.9828
25.7605 41.0654
25.9436 41.3267
26.1268 42.0379
26.31 41.1705
26.4933 41.334
26.6767 42.5574
26.8601 41.6898
27.0437 39.8058
27.2272 39.3057
27.4109 39.0053
27.5946 39.1388
27.7784 38.7971
27.9623 38.8393
28.1462 39.839
28.3304 38.3789
28.5145 36.5871
28.6987 36.22
28.8829 35.905
29.0673 35.4601
29.2517 34.763
29.4361 34.7004
29.6207 33.8226
29.8053 33.3931
29.99 33.0513
30.1748 32.9419
30.3597 32.9912
30.5447 32.6566
30.7297 32.6966
30.915 32.375
31.1002 31.734
31.2855 31.4666
31.4708 31.2555
31.6563 31.0754
31.8418 30.6398
32.0275 30.5276
32.2132 30.0645
32.399 29.4787
32.5848 28.9508
32.7708 28.5696
32.9569 28.505
33.143 28.2021
33.3293 27.9441
33.5158 27.5865
33.7022 27.0347
33.8887 26.7602
34.0753 26.5327
34.262 25.9991
34.4488 25.7725
34.6357 25.3969
34.8227 25.1251
35.0098 24.8574
35.1969 24.6132
35.3842 24.2787
35.5716 24.2061
35.759 23.9058
35.9468 23.4831
36.1345 23.2182
36.3222 23.1091
36.5101 22.7892
36.6981 22.5103
36.8861 22.2513
37.0743 21.8989
37.2626 21.6026
37.451 21.3245
37.6395 21.1818
37.8281 20.7391
38.0168 20.5685
38.2056 20.3209
38.3945 19.9904
38.5837 19.742
38.7728 19.5216
38.9621 19.2985
39.1514 18.9978
39.3409 18.8063
39.5304 18.6066
39.7201 18.3393
39.9099 18.1477
40.0999 17.9085
40.2899 17.6682
40.48 17.3915
40.6703 17.1661
40.8607 17.0032
41.0512 16.7895
41.242 16.5436
41.4327 16.355
41.6236 16.078
41.8146 15.8568
42.0057 15.6558
42.1969 15.4844
42.3882 15.3403
42.5797 15.0358
42.7713 14.8714
42.963 14.6896
43.1549 14.439
43.3468 14.2238
43.5389 14.0607
43.7312 13.8026
43.9237 13.6866
44.1162 13.4908
44.3088 13.3058
44.5016 13.1265
44.6945 12.9192
44.8875 12.7894
45.0806 12.5575
45.2739 12.3771
45.4673 12.2556
45.6609 12.0784
45.8546 11.9179
46.0484 11.7313
46.2424 11.4951
46.4365 11.4154
46.631 11.1944
46.8254 11.0134
47.0199 10.8895
47.2146 10.7044
47.4095 10.5997
47.6044 10.404
47.7996 10.2434
47.9948 10.0701
48.1902 9.97281
48.3858 9.80742
48.5815 9.67664
48.7774 9.53658
48.9734 9.37792
49.1696 9.25658
49.3661 9.08464
49.5626 8.93424
49.7592 8.85584
49.956 8.67312
50.153 8.5575
50.3501 8.43193
50.5474 8.28979
50.7448 8.20693
50.9424 8.08159
51.1402 7.92227
51.3381 7.7865
51.5362 7.7059
51.7344 7.55968
51.9328 7.40848
52.1316 7.3102
52.3304 7.20051
52.5293 7.06958
52.7284 6.92608
52.9276 6.83636
53.1271 6.74574
53.3267 6.58384
53.5265 6.51815
53.7264 6.43011
53.9266 6.26863
54.1269 6.13759
54.3274 6.00474
54.528 5.84812
54.7289 5.6567
54.9301 5.55878
55.1314 5.38337
55.3328 5.11125
55.5344 4.97748
55.7361 4.80117