Folder: NiFe_MOF_catalyst_paper/XRD (part 87)

File: Ni3Fe_FD0468.xy
TT I
1.27165 7.23233
1.45013 5.80163
1.62863 5.40583
1.80712 5.04696
1.98562 4.61194
2.16411 5.06911
2.34263 4.79685
2.52115 6.62632
2.69965 8.05402
2.87818 8.0091
3.05672 11.4236
3.23527 14.8737
3.4138 18.9848
3.59237 23.1436
3.77094 26.0213
3.9495 29.9746
4.12809 34.6974
4.30669 122.76
4.4853 56.5511
4.6639 56.698
4.84253 69.3274
5.02118 91.0381
5.19981 534.215
5.37848 205.329
5.55716 105.376
5.73586 95.0045
5.91455 99.7904
6.09328 4263.82
6.27201 83.6314
6.45075 68.9439
6.62952 63.3597
6.8083 59.3948
6.98711 56.4035
7.16591 56.3761
7.34475 72.5016
7.5236 55.3644
7.70247 57.0581
7.88135 58.8657
8.06026 63.7998
8.23919 71.2751
8.41812 87.237
8.59709 1235.5
8.77609 101.771
8.9551 90.7373
9.13412 84.3393
9.31318 85.371
9.49226 86.2708
9.67134 96.5546
9.85047 102.903
10.0296 412.494
10.2088 395.2
10.388 108.393
10.5672 504.231
10.7465 88.3476
10.9257 79.1382
11.105 72.9402
11.2844 70.3351
11.4637 66.0355
11.6431 64.4167
11.8225 63.8415
12.002 66.0161
12.1814 157.417
12.3609 68.7077
12.5405 65.618
12.72 69.6646
12.8996 72.5153
13.0792 82.4243
13.2589 252.779
13.4386 123.655
13.6183 255.078
13.7981 97.3801
13.9779 77.4406
14.1577 73.3581
14.3376 71.8285
14.5175 70.5263
14.6974 72.0347
14.8774 118.951
15.0574 145.692
15.2374 70.9498
15.4175 67.7466
15.5976 67.6905
15.7778 101.545
15.958 153.519
16.1382 62.9024
16.3185 59.0812
16.4988 56.592
16.6792 55.3679
16.8596 55.9587
17.04 57.5256
17.2205 68.8804
17.401 71.557
17.5815 60.4933
17.7622 62.8318
17.9428 77.4144
18.1237 139.831
18.3044 92.1256
18.4852 77.7457
18.666 61.5914
18.8469 59.1134
19.0278 57.8875
19.2088 60.9601
19.3898 76.5442
19.5709 54.9836
19.752 54.2274
19.9332 57.6685
20.1144 70.6114
20.2957 64.6408
20.477 54.1299
20.6586 50.5032
20.84 49.7564
21.0215 49.3965
21.203 51.6146
21.3846 49.8831
21.5662 50.1195
21.7479 54.2112
21.9297 65.4278
22.1115 56.5806
22.2933 50.7177
22.4753 49.5605
22.6572 50.1234
22.8393 53.1318
23.0214 57.7725
23.2037 49.7804
23.3859 51.0205
23.5682 57.4119
23.7505 48.9162
23.9329 45.9708
24.1154 44.8321
24.2979 44.1676
24.4805 43.5167
24.6631 43.5713
24.8458 42.8448
25.0286 43.7158
25.2114 45.3739
25.3943 45.1745
25.5773 41.6656
25.7605 41.227
25.9436 41.6049
26.1268 42.3804
26.31 40.7619
26.4933 41.4589
26.6767 42.8773
26.8601 41.0013
27.0437 39.6358
27.2272 39.1191
27.4109 38.9359
27.5946 39.0051
27.7784 38.5968
27.9623 39.1281
28.1462 39.3508
28.3304 37.6141
28.5145 36.6013
28.6987 36.2774
28.8829 35.9504
29.0673 35.2656
29.2517 34.9142
29.4361 34.6726
29.6207 33.6689
29.8053 33.3751
29.99 33.1987
30.1748 32.8458
30.3597 32.7694
30.5447 32.6461
30.7297 32.8039
30.915 32.1173
31.1002 31.5914
31.2855 31.3961
31.4708 31.317
31.6563 30.8571
31.8418 30.6463
32.0275 30.4053
32.2132 29.8702
32.399 29.3531
32.5848 29.0619
32.7708 28.6024
32.9569 28.4861
33.143 28.1391
33.3293 27.833
33.5158 27.5095
33.7022 26.9903
33.8887 26.7274
34.0753 26.4485
34.262 26.0993
34.4488 25.7187
34.6357 25.3788
34.8227 25.1045
35.0098 24.8769
35.1969 24.6194
35.3842 24.379
35.5716 24.0969
35.759 23.8601
35.9468 23.4608
36.1345 23.2544
36.3222 22.9659
36.5101 22.7591
36.6981 22.4548
36.8861 22.1846
37.0743 21.8382
37.2626 21.5632
37.451 21.3419
37.6395 21.1361
37.8281 20.8232
38.0168 20.4926
38.2056 20.2215
38.3945 19.9711
38.5837 19.7589
38.7728 19.4389
38.9621 19.2574
39.1514 19.0227
39.3409 18.7289
39.5304 18.5117
39.7201 18.3458
39.9099 18.1322
40.0999 17.813
40.2899 17.5942
40.48 17.4352
40.6703 17.1399
40.8607 17.0168
41.0512 16.7989
41.242 16.5036
41.4327 16.3407
41.6236 16.0315
41.8146 15.8771
42.0057 15.6419
42.1969 15.4686
42.3882 15.2924
42.5797 15.0645
42.7713 14.8355
42.963 14.5871
43.1549 14.464
43.3468 14.2297
43.5389 14.0547
43.7312 13.7941
43.9237 13.7191
44.1162 13.4692
44.3088 13.3053
44.5016 13.104
44.6945 12.9516
44.8875 12.7948
45.0806 12.5608
45.2739 12.35
45.4673 12.1918
45.6609 12.0208
45.8546 11.8728
46.0484 11.6783
46.2424 11.528
46.4365 11.3694
46.631 11.216
46.8254 11.0164
47.0199 10.8777
47.2146 10.7033
47.4095 10.5361
47.6044 10.3554
47.7996 10.2195
47.9948 10.0437
48.1902 9.97579
48.3858 9.81066
48.5815 9.65893
48.7774 9.49667
48.9734 9.38609
49.1696 9.24644
49.3661 9.09464
49.5626 8.92981
49.7592 8.84633
49.956 8.74294
50.153 8.5294
50.3501 8.43937
50.5474 8.30965
50.7448 8.19751
50.9424 8.05009
51.1402 7.90565
51.3381 7.76626
51.5362 7.64881
51.7344 7.55599
51.9328 7.43432
52.1316 7.25014
52.3304 7.17455
52.5293 7.04033
52.7284 6.91938
52.9276 6.81774
53.1271 6.72489
53.3267 6.59776
53.5265 6.4612
53.7264 6.37352
53.9266 6.24477
54.1269 6.1479
54.3274 6.02468
54.528 5.9023
54.7289 5.6987
54.9301 5.51381
55.1314 5.4438
55.3328 5.17938
55.5344 5.09505
55.7361 4.87911

File: Ni3Fe_FD0469.xy
TT I
1.27165 7.24682
1.45013 6.50446
1.62863 5.14997
1.80712 4.95075
1.98562 4.76222
2.16411 4.84756
2.34263 5.00102
2.52115 6.09083
2.69965 7.26744
2.87818 8.53108
3.05672 11.0699
3.23527 15.0351
3.4138 19.0168
3.59237 23.626
3.77094 26.0093
3.9495 29.5392
4.12809 34.6535
4.30669 123.892
4.4853 56.78
4.6639 56.848
4.84253 69.2164
5.02118 90.2594
5.19981 531.439
5.37848 204.397
5.55716 105.107
5.73586 95.3527
5.91455 99.2435
6.09328 4256.35
6.27201 83.6907
6.45075 69.2111
6.62952 63.3095
6.8083 58.8879
6.98711 56.1995
7.16591 55.9956
7.34475 72.2662
7.5236 55.0575
7.70247 57.2693
7.88135 58.6674
8.06026 63.3568
8.23919 70.6415
8.41812 86.6889
8.59709 1237.49
8.77609 101.823
8.9551 90.5409
9.13412 83.6705
9.31318 85.1322
9.49226 86.2462
9.67134 96.6054
9.85047 102.722
10.0296 411.963
10.2088 397.6
10.388 108.523
10.5672 505.532
10.7465 88.2375
10.9257 78.9637
11.105 72.8114
11.2844 70.0078
11.4637 66.0199
11.6431 64.5918
11.8225 63.706
12.002 66.0453
12.1814 156.76
12.3609 69.13
12.5405 65.719
12.72 69.5682
12.8996 72.5144
13.0792 82.2991
13.2589 252.675
13.4386 124.046
13.6183 255.379
13.7981 97.5119
13.9779 77.189
14.1577 73.3101
14.3376 71.9644
14.5175 70.1814
14.6974 72.3796
14.8774 118.851
15.0574 146.613
15.2374 71.2797
15.4175 67.5968
15.5976 67.5018
15.7778 101.354
15.958 153.944
16.1382 62.5038
16.3185 59.0357
16.4988 56.4394
16.6792 55.4533
16.8596 56.0862
17.04 57.2337
17.2205 68.8916
17.401 71.7172
17.5815 60.2663
17.7622 62.575
17.9428 77.3242
18.1237 139.975
18.3044 92.3672
18.4852 78.0368
18.666 61.1506
18.8469 58.9418
19.0278 57.791
19.2088 60.9905
19.3898 76.4794
19.5709 55.1737
19.752 54.3655
19.9332 57.5575
20.1144 70.6323
20.2957 64.5962
20.477 54.1224
20.6586 50.3794
20.84 49.5048
21.0215 49.634
21.203 51.4482
21.3846 49.7035
21.5662 50.0258
21.7479 54.042
21.9297 65.226
22.1115 56.5201
22.2933 50.6018
22.4753 49.5721
22.6572 49.83
22.8393 53.0385
23.0214 57.8583
23.2037 49.466
23.3859 50.8182
23.5682 57.3476
23.7505 48.7833
23.9329 46.0066
24.1154 44.7915
24.2979 44.2042
24.4805 43.675
24.6631 43.3865
24.8458 43.0117
25.0286 43.6068
25.2114 45.7116
25.3943 45.1737
25.5773 41.4713
25.7605 41.1333
25.9436 41.5367
26.1268 42.3724
26.31 40.7011
26.4933 41.4937
26.6767 42.7805
26.8601 40.9435
27.0437 39.5417
27.2272 39.2575
27.4109 39.0261
27.5946 39.0544
27.7784 38.4708
27.9623 38.9411
28.1462 39.3839
28.3304 37.6879
28.5145 36.5237
28.6987 36.2143
28.8829 36.0806
29.0673 35.2063
29.2517 34.8958
29.4361 34.6365
29.6207 33.7253
29.8053 33.3918
29.99 33.0973
30.1748 33.0481
30.3597 32.7949
30.5447 32.7397
30.7297 32.6849
30.915 32.0957
31.1002 31.5357
31.2855 31.3076
31.4708 31.2574
31.6563 30.8823
31.8418 30.6393
32.0275 30.3363
32.2132 29.8032
32.399 29.4117
32.5848 28.9406
32.7708 28.6792
32.9569 28.3806
33.143 28.2302
33.3293 27.8044
33.5158 27.4958
33.7022 26.945
33.8887 26.7534
34.0753 26.3504
34.262 26.0055
34.4488 25.7161
34.6357 25.4063
34.8227 25.1285
35.0098 24.9297
35.1969 24.602
35.3842 24.4297
35.5716 24.0811
35.759 23.8251
35.9468 23.4978
36.1345 23.2852
36.3222 22.9969
36.5101 22.7485
36.6981 22.4881
36.8861 22.1746
37.0743 21.825
37.2626 21.561
37.451 21.3643
37.6395 21.0972
37.8281 20.8114
38.0168 20.4876
38.2056 20.2951
38.3945 20.0382
38.5837 19.7289
38.7728 19.5147
38.9621 19.2677
39.1514 18.9815
39.3409 18.7497
39.5304 18.5218
39.7201 18.3324
39.9099 18.0817
40.0999 17.8571
40.2899 17.63
40.48 17.3923
40.6703 17.1492
40.8607 17.0409
41.0512 16.75
41.242 16.4993
41.4327 16.2838
41.6236 16.0492
41.8146 15.8662
42.0057 15.6566
42.1969 15.426
42.3882 15.2902
42.5797 15.012
42.7713 14.8248
42.963 14.6684
43.1549 14.4219
43.3468 14.2099
43.5389 13.9931
43.7312 13.8411
43.9237 13.6573
44.1162 13.4561
44.3088 13.2773
44.5016 13.1226
44.6945 12.9246
44.8875 12.6924
45.0806 12.5422
45.2739 12.354
45.4673 12.2399
45.6609 11.9859
45.8546 11.8691
46.0484 11.6938
46.2424 11.5663
46.4365 11.3591
46.631 11.2182
46.8254 10.9944
47.0199 10.8401
47.2146 10.6828
47.4095 10.5071
47.6044 10.3708
47.7996 10.2683
47.9948 10.0638
48.1902 9.97542
48.3858 9.80419
48.5815 9.67407
48.7774 9.53231
48.9734 9.36703
49.1696 9.22741
49.3661 9.09428
49.5626 8.92663
49.7592 8.85871
49.956 8.71128
50.153 8.55368
50.3501 8.39584
50.5474 8.30341
50.7448 8.19071
50.9424 8.06235
51.1402 7.9106
51.3381 7.82679
51.5362 7.633
51.7344 7.53311
51.9328 7.3846
52.1316 7.2921
52.3304 7.17503
52.5293 7.04786
52.7284 6.94032
52.9276 6.7927
53.1271 6.73855
53.3267 6.58856
53.5265 6.45427
53.7264 6.36979
53.9266 6.27041
54.1269 6.12134
54.3274 6.01157
54.528 5.91149
54.7289 5.70399
54.9301 5.53385
55.1314 5.4388
55.3328 5.24334
55.5344 4.99879
55.7361 4.90399

File: Ni3Fe_FD0470.xy
TT I
1.27165 7.51974
1.45013 6.16202
1.62863 5.87729
1.80712 5.07137
1.98562 4.32094
2.16411 4.80048
2.34263 4.98135
2.52115 6.72212
2.69965 7.2109
2.87818 8.47839
3.05672 11.3787
3.23527 15.4783
3.4138 18.9588
3.59237 23.0327
3.77094 26.0834
3.9495 29.987
4.12809 34.5203
4.30669 123.83
4.4853 56.4625
4.6639 56.2525
4.84253 68.6891
5.02118 90.2032
5.19981 530.527
5.37848 205.205
5.55716 104.381
5.73586 95.2175
5.91455 98.8569
6.09328 4298.76
6.27201 83.5086
6.45075 68.9342
6.62952 63.539
6.8083 59.2087
6.98711 56.2943
7.16591 55.9938
7.34475 72.4247
7.5236 55.2673
7.70247 57.143
7.88135 58.4392
8.06026 63.3374
8.23919 70.9357
8.41812 86.4948
8.59709 1239.56
8.77609 101.805
8.9551 90.5096
9.13412 83.5224
9.31318 84.9844
9.49226 86.1746
9.67134 96.4951
9.85047 102.559
10.0296 410.673
10.2088 406.868
10.388 108.386
10.5672 498.536
10.7465 87.9823
10.9257 78.7605
11.105 72.4736
11.2844 69.5227
11.4637 65.7882
11.6431 64.3468
11.8225 63.526
12.002 65.663
12.1814 156.277
12.3609 68.8503
12.5405 65.6283
12.72 69.4368
12.8996 72.4884
13.0792 81.7776
13.2589 251.693
13.4386 124.981
13.6183 253.974
13.7981 98.1835
13.9779 77.1289
14.1577 73.4198
14.3376 71.8612
14.5175 69.944
14.6974 71.9517
14.8774 118.181
15.0574 147.554
15.2374 71.031
15.4175 67.5398
15.5976 67.0552
15.7778 101.135
15.958 155.444
16.1382 62.5945
16.3185 58.9877
16.4988 56.2097
16.6792 55.3689
16.8596 55.8507
17.04 57.1877
17.2205 68.7439
17.401 71.765
17.5815 60.4101
17.7622 62.5925
17.9428 77.1033
18.1237 140.267
18.3044 91.9455
18.4852 78.2956
18.666 61.3397
18.8469 59.1469
19.0278 57.8734
19.2088 60.7795
19.3898 76.5788
19.5709 55.0565
19.752 54.1232
19.9332 57.5166
20.1144 70.4655
20.2957 64.2526
20.477 54.0943
20.6586 50.5186
20.84 49.5068
21.0215 49.4544
21.203 51.5384
21.3846 49.7424
21.5662 49.8458
21.7479 54.123
21.9297 65.4032
22.1115 56.5524
22.2933 50.5025
22.4753 49.5521
22.6572 50.0611
22.8393 53.1349
23.0214 58.0153
23.2037 49.5316
23.3859 50.8129
23.5682 57.3904
23.7505 49.0098
23.9329 45.8115
24.1154 44.7642
24.2979 44.1738
24.4805 43.5925
24.6631 43.509
24.8458 42.8995
25.0286 43.68
25.2114 45.3487
25.3943 45.1509
25.5773 41.3881
25.7605 41.0745
25.9436 41.4964
26.1268 42.3149
26.31 40.7942
26.4933 41.5068
26.6767 42.8885
26.8601 41.129
27.0437 39.4731
27.2272 39.2826
27.4109 38.9078
27.5946 38.9388
27.7784 38.5616
27.9623 39.0843
28.1462 39.4594
28.3304 37.6594
28.5145 36.5062
28.6987 36.0859
28.8829 36.0108
29.0673 35.2085
29.2517 34.8327
29.4361 34.7352
29.6207 33.6584
29.8053 33.3296
29.99 33.0676
30.1748 32.8217
30.3597 32.8004
30.5447 32.5779
30.7297 32.619
30.915 32.1412
31.1002 31.588
31.2855 31.2963
31.4708 31.3781
31.6563 30.9255
31.8418 30.6342
32.0275 30.3576
32.2132 29.7546
32.399 29.3822
32.5848 28.8386
32.7708 28.5963
32.9569 28.4895
33.143 28.1581
33.3293 27.7266
33.5158 27.4298
33.7022 27.0016
33.8887 26.7061
34.0753 26.3868
34.262 26.0188
34.4488 25.6762
34.6357 25.3632
34.8227 25.074
35.0098 24.8306
35.1969 24.5369
35.3842 24.371
35.5716 24.1876
35.759 23.808
35.9468 23.4977
36.1345 23.3088
36.3222 22.9679
36.5101 22.7362
36.6981 22.4252
36.8861 22.1226
37.0743 21.8234
37.2626 21.612
37.451 21.2827
37.6395 21.1871
37.8281 20.8094
38.0168 20.5122
38.2056 20.2667
38.3945 19.9461
38.5837 19.7721
38.7728 19.4399
38.9621 19.2407
39.1514 18.9803
39.3409 18.7255
39.5304 18.4805
39.7201 18.2751
39.9099 18.1352
40.0999 17.8378
40.2899 17.5758
40.48 17.4618
40.6703 17.1921
40.8607 16.9677
41.0512 16.7616
41.242 16.4947
41.4327 16.2863
41.6236 16.0789
41.8146 15.8721
42.0057 15.6613
42.1969 15.4301
42.3882 15.2572
42.5797 15.0071
42.7713 14.8407
42.963 14.6237
43.1549 14.4364
43.3468 14.2084
43.5389 14.0654
43.7312 13.8304
43.9237 13.5937
44.1162 13.4446
44.3088 13.244
44.5016 13.078
44.6945 12.8787
44.8875 12.6958
45.0806 12.5784
45.2739 12.3678
45.4673 12.23
45.6609 12.0313
45.8546 11.838
46.0484 11.6609
46.2424 11.5208
46.4365 11.3538
46.631 11.1669
46.8254 11.0137
47.0199 10.8629
47.2146 10.7439
47.4095 10.5249
47.6044 10.374
47.7996 10.1996
47.9948 10.0574
48.1902 9.91858
48.3858 9.76132
48.5815 9.66294
48.7774 9.54327
48.9734 9.35025
49.1696 9.24986
49.3661 9.07283
49.5626 8.92869
49.7592 8.85837
49.956 8.69307
50.153 8.55992
50.3501 8.42279
50.5474 8.28168
50.7448 8.18226
50.9424 8.04164
51.1402 7.92248
51.3381 7.78262
51.5362 7.67141
51.7344 7.50165
51.9328 7.414
52.1316 7.24192
52.3304 7.15707
52.5293 7.03531
52.7284 6.89786
52.9276 6.79106
53.1271 6.70494
53.3267 6.56627
53.5265 6.51769
53.7264 6.34019
53.9266 6.26313
54.1269 6.13435
54.3274 5.99652
54.528 5.89108
54.7289 5.71323
54.9301 5.55221
55.1314 5.40823
55.3328 5.22719
55.5344 4.99655
55.7361 4.89255

File: Ni3Fe_FD0471.xy
TT I
1.27165 7.60351
1.45013 5.9179
1.62863 5.88146
1.80712 5.44739
1.98562 4.5319
2.16411 4.14068
2.34263 5.39953
2.52115 5.85575
2.69965 7.20964
2.87818 8.41372
3.05672 10.7867
3.23527 15.2034
3.4138 19.0399
3.59237 23.1638
3.77094 26.5085
3.9495 30.0198
4.12809 34.9636
4.30669 121.742
4.4853 56.3144
4.6639 56.3753
4.84253 69.0932
5.02118 90.2107
5.19981 530.813
5.37848 205.297
5.55716 104.8
5.73586 95.0435
5.91455 98.8646
6.09328 4303.27
6.27201 83.3381
6.45075 68.996
6.62952 63.2753
6.8083 59.1207
6.98711 56.5209
7.16591 55.9854
7.34475 71.9425
7.5236 54.9999
7.70247 57.0637
7.88135 58.4415
8.06026 63.5771
8.23919 70.5553
8.41812 86.299
8.59709 1239.01
8.77609 101.503
8.9551 90.2299
9.13412 83.9489
9.31318 85.1095
9.49226 86.1303
9.67134 96.4203
9.85047 102.578
10.0296 411.702
10.2088 407.711
10.388 108.215
10.5672 498.924
10.7465 88.0422
10.9257 78.9267
11.105 72.4746
11.2844 69.8075
11.4637 65.7229
11.6431 64.598
11.8225 63.2874
12.002 65.5423
12.1814 155.735
12.3609 68.7236
12.5405 65.4349
12.72 69.5415
12.8996 72.2814
13.0792 82.0845
13.2589 251.992
13.4386 125.548
13.6183 254.054
13.7981 98.3284
13.9779 77.1632
14.1577 73.0594
14.3376 71.4033
14.5175 69.9162
14.6974 71.7961
14.8774 118.358
15.0574 148.079
15.2374 71.0031
15.4175 67.6274
15.5976 67.1771
15.7778 101.291
15.958 155.393
16.1382 62.5526
16.3185 58.8173
16.4988 56.1989
16.6792 55.2291
16.8596 55.685
17.04 57.228
17.2205 68.6633
17.401 71.6083
17.5815 60.2404
17.7622 62.3623
17.9428 77.2624
18.1237 140.447
18.3044 92.2701
18.4852 78.1212
18.666 61.4721
18.8469 58.8798
19.0278 57.8236
19.2088 61.0542
19.3898 76.6378
19.5709 54.8887
19.752 54.1692
19.9332 57.8179
20.1144 70.4292
20.2957 64.4298
20.477 54.2371
20.6586 50.3506
20.84 49.5146
21.0215 49.4423
21.203 51.4002
21.3846 49.6146
21.5662 49.9257
21.7479 53.9249
21.9297 65.5674
22.1115 56.6473
22.2933 50.5324
22.4753 49.5537
22.6572 49.9148
22.8393 53.1094
23.0214 57.9703
23.2037 49.5049
23.3859 50.8782
23.5682 57.486
23.7505 48.7827
23.9329 45.9435
24.1154 44.806
24.2979 44.233
24.4805 43.5934
24.6631 43.559
24.8458 42.9322
25.0286 43.7711
25.2114 45.2947
25.3943 45.324
25.5773 41.4983
25.7605 41.0959
25.9436 41.6538
26.1268 42.3136
26.31 40.7934
26.4933 41.4204
26.6767 42.7482
26.8601 41.0656
27.0437 39.5548
27.2272 39.021
27.4109 38.9586
27.5946 38.91
27.7784 38.4295
27.9623 38.9685
28.1462 39.5192
28.3304 37.7524
28.5145 36.5465
28.6987 36.0887
28.8829 35.8954
29.0673 35.2735
29.2517 34.8498
29.4361 34.6839
29.6207 33.6395
29.8053 33.3736
29.99 33.1281
30.1748 32.86
30.3597 32.7883
30.5447 32.5654
30.7297 32.7087
30.915 32.0278
31.1002 31.5919
31.2855 31.3054
31.4708 31.3141
31.6563 30.817
31.8418 30.5541
32.0275 30.3726
32.2132 29.8519
32.399 29.4149
32.5848 28.8292
32.7708 28.5505
32.9569 28.4268
33.143 28.2577
33.3293 27.7487
33.5158 27.4167
33.7022 27.0211
33.8887 26.7168
34.0753 26.343
34.262 26.0228
34.4488 25.6569
34.6357 25.3318
34.8227 25.0134
35.0098 24.8042
35.1969 24.5247
35.3842 24.3295
35.5716 24.1364
35.759 23.8247
35.9468 23.5005
36.1345 23.2427
36.3222 22.9877
36.5101 22.7378
36.6981 22.3837
36.8861 22.1274
37.0743 21.8386
37.2626 21.5773
37.451 21.2508
37.6395 21.1276
37.8281 20.7884
38.0168 20.4732
38.2056 20.2292
38.3945 19.9629
38.5837 19.7456
38.7728 19.5152
38.9621 19.2576
39.1514 18.9893
39.3409 18.7255
39.5304 18.5598
39.7201 18.3623
39.9099 18.062
40.0999 17.8417
40.2899 17.5841
40.48 17.4002
40.6703 17.1607
40.8607 16.9624
41.0512 16.7317
41.242 16.4691
41.4327 16.2872
41.6236 16.0662
41.8146 15.8171
42.0057 15.6936
42.1969 15.3782
42.3882 15.2904
42.5797 15.0685
42.7713 14.8158
42.963 14.6358
43.1549 14.438
43.3468 14.2166
43.5389 14.0067
43.7312 13.8412
43.9237 13.5896
44.1162 13.49
44.3088 13.2402
44.5016 13.0502
44.6945 12.8921
44.8875 12.7075
45.0806 12.5352
45.2739 12.3881
45.4673 12.1667
45.6609 11.9755
45.8546 11.9136
46.0484 11.6827
46.2424 11.4664
46.4365 11.3548
46.631 11.2142
46.8254 10.9911
47.0199 10.8642
47.2146 10.6961
47.4095 10.5164
47.6044 10.3767
47.7996 10.2362
47.9948 10.0459
48.1902 9.90234
48.3858 9.82011
48.5815 9.64815
48.7774 9.54723
48.9734 9.36929
49.1696 9.21543
49.3661 9.07602
49.5626 8.94109
49.7592 8.80037
49.956 8.68506
50.153 8.56385
50.3501 8.41931
50.5474 8.28661
50.7448 8.17377
50.9424 8.03767
51.1402 7.89387
51.3381 7.76946
51.5362 7.6576
51.7344 7.55033
51.9328 7.41212
52.1316 7.22489
52.3304 7.16914
52.5293 7.03342
52.7284 6.87165
52.9276 6.77547
53.1271 6.70804
53.3267 6.56562
53.5265 6.48408
53.7264 6.36189
53.9266 6.26618
54.1269 6.14084
54.3274 5.99889
54.528 5.86826
54.7289 5.66545
54.9301 5.53029
55.1314 5.38046
55.3328 5.21642
55.5344 5.05994
55.7361 4.89323

File: Ni3Fe_FD0473.xy
TT I
1.27165 7.76684
1.45013 6.38331
1.62863 5.05955
1.80712 5.61194
1.98562 4.83802
2.16411 4.48726
2.34263 5.38654
2.52115 7.29051
2.69965 7.52048
2.87818 8.78162
3.05672 11.4504
3.23527 14.9083
3.4138 18.9852
3.59237 23.1651
3.77094 26.0265
3.9495 29.96
4.12809 34.6653
4.30669 118.328
4.4853 55.8227
4.6639 56.5167
4.84253 69.2784
5.02118 89.7604
5.19981 536.838
5.37848 206.13
5.55716 104.898
5.73586 95.0711
5.91455 98.8327
6.09328 4285.01
6.27201 83.2501
6.45075 69.4321
6.62952 63.4172
6.8083 59.5075
6.98711 56.5073
7.16591 56.3137
7.34475 70.927
7.5236 54.9138
7.70247 57.2966
7.88135 58.9364
8.06026 63.3915
8.23919 70.6706
8.41812 86.4169
8.59709 1246.51
8.77609 101.457
8.9551 90.3016
9.13412 84.1767
9.31318 85.1235
9.49226 86.5561
9.67134 96.386
9.85047 102.812
10.0296 412.145
10.2088 402.275
10.388 108.663
10.5672 500.282
10.7465 87.9113
10.9257 78.7059
11.105 72.4117
11.2844 69.9387
11.4637 65.6807
11.6431 64.407
11.8225 63.5467
12.002 65.7625
12.1814 156.149
12.3609 68.823
12.5405 65.5952
12.72 69.3651
12.8996 72.6139
13.0792 82.064
13.2589 252.08
13.4386 124.757
13.6183 254.597
13.7981 97.5233
13.9779 77.2531
14.1577 73.2501
14.3376 71.7997
14.5175 70.2059
14.6974 72.1048
14.8774 118.491
15.0574 146.951
15.2374 70.8872
15.4175 67.5935
15.5976 67.4767
15.7778 101.484
15.958 154.36
16.1382 62.513
16.3185 58.8473
16.4988 56.4882
16.6792 55.3405
16.8596 56.0237
17.04 57.1891
17.2205 68.6694
17.401 71.4773
17.5815 60.2978
17.7622 62.5097
17.9428 77.1025
18.1237 140.517
18.3044 92.2234
18.4852 78.5443
18.666 61.3588
18.8469 58.7626
19.0278 57.715
19.2088 60.9023
19.3898 76.5111
19.5709 55.0714
19.752 54.1414
19.9332 57.805
20.1144 70.4732
20.2957 64.4402
20.477 54.1268
20.6586 50.2562
20.84 49.5524
21.0215 49.6188
21.203 51.496
21.3846 49.8306
21.5662 49.9318
21.7479 54.141
21.9297 65.5682
22.1115 56.6011
22.2933 50.4968
22.4753 49.4678
22.6572 49.7599
22.8393 53.1993
23.0214 57.9143
23.2037 49.6929
23.3859 50.8895
23.5682 57.4626
23.7505 48.8652
23.9329 45.9402
24.1154 44.7284
24.2979 43.9969
24.4805 43.498
24.6631 43.4817
24.8458 42.862
25.0286 43.5638
25.2114 45.3245
25.3943 45.2302
25.5773 41.6096
25.7605 41.102
25.9436 41.6292
26.1268 42.3854
26.31 40.8286
26.4933 41.3734
26.6767 42.8443
26.8601 40.969
27.0437 39.6061
27.2272 39.1281
27.4109 38.9979
27.5946 38.989
27.7784 38.4234
27.9623 38.9263
28.1462 39.4228
28.3304 37.7581
28.5145 36.4726
28.6987 36.1241
28.8829 36.0861
29.0673 35.2281
29.2517 34.7516
29.4361 34.6571
29.6207 33.7137
29.8053 33.2724
29.99 33.1345
30.1748 32.8169
30.3597 32.7198
30.5447 32.8222
30.7297 32.7351
30.915 32.214
31.1002 31.6735
31.2855 31.338
31.4708 31.2515
31.6563 30.7674
31.8418 30.6471
32.0275 30.3401
32.2132 29.8073
32.399 29.4332
32.5848 28.8658
32.7708 28.5925
32.9569 28.5065
33.143 28.2388
33.3293 27.7883
33.5158 27.3459
33.7022 26.9716
33.8887 26.7973
34.0753 26.4175
34.262 25.9989
34.4488 25.6992
34.6357 25.3177
34.8227 25.0736
35.0098 24.8306
35.1969 24.6047
35.3842 24.3364
35.5716 24.1164
35.759 23.7426
35.9468 23.4953
36.1345 23.2108
36.3222 22.989
36.5101 22.8444
36.6981 22.4096
36.8861 22.09
37.0743 21.794
37.2626 21.5707
37.451 21.2871
37.6395 21.1447
37.8281 20.8086
38.0168 20.517
38.2056 20.2099
38.3945 19.9577
38.5837 19.6299
38.7728 19.463
38.9621 19.2413
39.1514 18.9712
39.3409 18.7164
39.5304 18.5052
39.7201 18.3587
39.9099 18.071
40.0999 17.9035
40.2899 17.6287
40.48 17.3466
40.6703 17.1817
40.8607 16.9548
41.0512 16.7259
41.242 16.5108
41.4327 16.3224
41.6236 16.0527
41.8146 15.8376
42.0057 15.6485
42.1969 15.4605
42.3882 15.2616
42.5797 15.0181
42.7713 14.8484
42.963 14.6045
43.1549 14.4174
43.3468 14.2034
43.5389 13.9939
43.7312 13.7677
43.9237 13.6714
44.1162 13.4556
44.3088 13.2277
44.5016 13.0273
44.6945 12.8936
44.8875 12.689
45.0806 12.5137
45.2739 12.3624
45.4673 12.2293
45.6609 12.003
45.8546 11.8638
46.0484 11.6862
46.2424 11.461
46.4365 11.3705
46.631 11.2004
46.8254 10.9962
47.0199 10.8227
47.2146 10.6835
47.4095 10.5146
47.6044 10.3654
47.7996 10.2082
47.9948 10.078
48.1902 9.91792
48.3858 9.76954
48.5815 9.66207
48.7774 9.52876
48.9734 9.37775
49.1696 9.24913
49.3661 9.05804
49.5626 8.95393
49.7592 8.82688
49.956 8.67712
50.153 8.56475
50.3501 8.39627
50.5474 8.27521
50.7448 8.15326
50.9424 8.04299
51.1402 7.9269
51.3381 7.75815
51.5362 7.65049
51.7344 7.50032
51.9328 7.39542
52.1316 7.27548
52.3304 7.15694
52.5293 7.03847
52.7284 6.94848
52.9276 6.80902
53.1271 6.72765
53.3267 6.58085
53.5265 6.44587
53.7264 6.34045
53.9266 6.25691
54.1269 6.16029
54.3274 6.07497
54.528 5.85238
54.7289 5.69534
54.9301 5.59
55.1314 5.43712
55.3328 5.23136
55.5344 5.01076
55.7361 4.86023