Folder: NiFe_MOF_catalyst_paper/XRD (part 80)

File: Ni3Fe_FD0426.xy
TT I
1.27165 7.72417
1.45013 5.70443
1.62863 5.33094
1.80712 5.25235
1.98562 5.17311
2.16411 4.87186
2.34263 4.96231
2.52115 6.3644
2.69965 7.11597
2.87818 8.49155
3.05672 11.2844
3.23527 15.1662
3.4138 18.6632
3.59237 25.5465
3.77094 26.7821
3.9495 30.7307
4.12809 36.1644
4.30669 307.038
4.4853 76.0443
4.6639 56.2201
4.84253 67.4381
5.02118 88.5173
5.19981 419.859
5.37848 222.409
5.55716 104.8
5.73586 94.3106
5.91455 96.9512
6.09328 3917.39
6.27201 87.6063
6.45075 69.2073
6.62952 64.9627
6.8083 60.7202
6.98711 56.9035
7.16591 57.3294
7.34475 112.109
7.5236 56.5141
7.70247 57.6934
7.88135 59.0758
8.06026 63.5594
8.23919 71.3457
8.41812 87.9958
8.59709 1053.39
8.77609 104.154
8.9551 96.4487
9.13412 83.5713
9.31318 84.2644
9.49226 85.9205
9.67134 104.785
9.85047 102.24
10.0296 348.398
10.2088 501.15
10.388 108.251
10.5672 474.842
10.7465 89.0415
10.9257 80.6738
11.105 73.5762
11.2844 73.2885
11.4637 66.3308
11.6431 65.0543
11.8225 64.116
12.002 65.155
12.1814 143.02
12.3609 75.4772
12.5405 65.8121
12.72 73.7416
12.8996 72.3485
13.0792 80.3181
13.2589 218.817
13.4386 139.49
13.6183 224.883
13.7981 106.435
13.9779 77.3632
14.1577 74.5323
14.3376 74.2802
14.5175 70.2979
14.6974 72.2731
14.8774 108.496
15.0574 168.861
15.2374 73.9203
15.4175 67.9226
15.5976 67.0111
15.7778 94.2227
15.958 171.28
16.1382 65.5245
16.3185 60.823
16.4988 56.9557
16.6792 55.8258
16.8596 56.8836
17.04 57.199
17.2205 66.5105
17.401 74.7279
17.5815 60.4917
17.7622 62.4665
17.9428 75.0452
18.1237 137.506
18.3044 88.7894
18.4852 82.8281
18.666 61.9546
18.8469 59.1774
19.0278 58.3553
19.2088 60.8328
19.3898 77.9695
19.5709 55.6963
19.752 54.3687
19.9332 57.377
20.1144 70.5273
20.2957 63.5052
20.477 55.7752
20.6586 50.8339
20.84 49.9971
21.0215 49.8562
21.203 51.5768
21.3846 50.2472
21.5662 49.7212
21.7479 53.4699
21.9297 65.5572
22.1115 56.9482
22.2933 51.3602
22.4753 50.247
22.6572 49.8991
22.8393 52.5528
23.0214 58.9303
23.2037 49.951
23.3859 50.6253
23.5682 56.9735
23.7505 49.884
23.9329 46.2985
24.1154 45.1844
24.2979 44.429
24.4805 43.69
24.6631 43.8495
24.8458 43.225
25.0286 43.6886
25.2114 45.5336
25.3943 45.7109
25.5773 41.982
25.7605 41.1965
25.9436 41.6506
26.1268 42.7032
26.31 40.9752
26.4933 41.6331
26.6767 42.8861
26.8601 41.3034
27.0437 39.7044
27.2272 39.4126
27.4109 39.174
27.5946 39.2558
27.7784 38.6237
27.9623 39.036
28.1462 39.6192
28.3304 38.0785
28.5145 36.8646
28.6987 36.475
28.8829 36.1401
29.0673 35.4474
29.2517 35.0768
29.4361 34.8314
29.6207 33.8504
29.8053 33.5909
29.99 33.1761
30.1748 33.0945
30.3597 32.9372
30.5447 32.8708
30.7297 32.9427
30.915 32.3591
31.1002 31.7001
31.2855 31.5624
31.4708 31.4451
31.6563 31.015
31.8418 30.7092
32.0275 30.6083
32.2132 30.0404
32.399 29.6177
32.5848 29.104
32.7708 28.7732
32.9569 28.617
33.143 28.395
33.3293 28.0313
33.5158 27.6011
33.7022 27.2716
33.8887 26.9653
34.0753 26.5598
34.262 26.2833
34.4488 25.8726
34.6357 25.5454
34.8227 25.1774
35.0098 25.0618
35.1969 24.7406
35.3842 24.5265
35.5716 24.2672
35.759 23.9457
35.9468 23.6123
36.1345 23.3805
36.3222 23.1283
36.5101 22.8723
36.6981 22.6369
36.8861 22.3101
37.0743 22.0254
37.2626 21.7453
37.451 21.4262
37.6395 21.2503
37.8281 20.9256
38.0168 20.6867
38.2056 20.3774
38.3945 20.1122
38.5837 19.9008
38.7728 19.655
38.9621 19.3273
39.1514 19.1157
39.3409 18.9111
39.5304 18.686
39.7201 18.4751
39.9099 18.209
40.0999 18.0684
40.2899 17.7508
40.48 17.4996
40.6703 17.2689
40.8607 17.0596
41.0512 16.8977
41.242 16.5955
41.4327 16.4125
41.6236 16.2123
41.8146 15.9693
42.0057 15.8093
42.1969 15.5405
42.3882 15.3543
42.5797 15.1729
42.7713 14.9212
42.963 14.7615
43.1549 14.5107
43.3468 14.3726
43.5389 14.1474
43.7312 13.959
43.9237 13.7492
44.1162 13.5727
44.3088 13.3736
44.5016 13.1851
44.6945 12.9861
44.8875 12.8269
45.0806 12.627
45.2739 12.4508
45.4673 12.3245
45.6609 12.1377
45.8546 11.9816
46.0484 11.8304
46.2424 11.6197
46.4365 11.4595
46.631 11.2673
46.8254 11.088
47.0199 10.9218
47.2146 10.8065
47.4095 10.5898
47.6044 10.491
47.7996 10.323
47.9948 10.1395
48.1902 10.0219
48.3858 9.86843
48.5815 9.74756
48.7774 9.62843
48.9734 9.44431
49.1696 9.31065
49.3661 9.14094
49.5626 9.00542
49.7592 8.90729
49.956 8.76831
50.153 8.62927
50.3501 8.47564
50.5474 8.36344
50.7448 8.23724
50.9424 8.0823
51.1402 8.00049
51.3381 7.86089
51.5362 7.70903
51.7344 7.61332
51.9328 7.45982
52.1316 7.32819
52.3304 7.20947
52.5293 7.04895
52.7284 6.97319
52.9276 6.89436
53.1271 6.7868
53.3267 6.64263
53.5265 6.52275
53.7264 6.42248
53.9266 6.27902
54.1269 6.2172
54.3274 6.0703
54.528 5.96002
54.7289 5.82596
54.9301 5.59199
55.1314 5.51033
55.3328 5.23602
55.5344 5.13322
55.7361 4.90439

File: Ni3Fe_FD0428.xy
TT I
1.27165 7.25507
1.45013 5.92311
1.62863 5.60937
1.80712 4.91348
1.98562 4.83976
2.16411 4.88336
2.34263 4.9998
2.52115 6.4592
2.69965 6.99338
2.87818 8.83768
3.05672 10.8003
3.23527 14.9428
3.4138 19.1484
3.59237 24.8408
3.77094 26.7127
3.9495 30.5463
4.12809 35.3374
4.30669 256.872
4.4853 69.9835
4.6639 56.6017
4.84253 67.9753
5.02118 88.4348
5.19981 415.37
5.37848 209.042
5.55716 104.106
5.73586 93.5731
5.91455 97.1105
6.09328 4041.5
6.27201 85.4809
6.45075 68.3926
6.62952 64.1214
6.8083 59.9424
6.98711 56.953
7.16591 56.8744
7.34475 101.571
7.5236 56.022
7.70247 57.2754
7.88135 58.798
8.06026 63.0678
8.23919 70.4676
8.41812 87.2956
8.59709 1127.49
8.77609 102.707
8.9551 94.1283
9.13412 82.7677
9.31318 83.872
9.49226 85.7772
9.67134 102.079
9.85047 101.824
10.0296 355.276
10.2088 442.89
10.388 107.178
10.5672 499.101
10.7465 88.3528
10.9257 80.1397
11.105 73.1291
11.2844 72.4328
11.4637 66.1231
11.6431 64.6704
11.8225 63.6446
12.002 64.7663
12.1814 149.232
12.3609 73.1428
12.5405 65.7434
12.72 72.1988
12.8996 71.9753
13.0792 80.2457
13.2589 229.279
13.4386 131.404
13.6183 236.344
13.7981 101.065
13.9779 77.2194
14.1577 74.0939
14.3376 73.4989
14.5175 69.8253
14.6974 71.5693
14.8774 110.444
15.0574 159.608
15.2374 72.9796
15.4175 67.749
15.5976 67.1729
15.7778 95.6726
15.958 163.546
16.1382 64.4501
16.3185 59.9746
16.4988 56.5105
16.6792 55.6639
16.8596 56.4799
17.04 56.8867
17.2205 67.1399
17.401 72.9493
17.5815 60.4224
17.7622 62.5201
17.9428 75.1117
18.1237 141.342
18.3044 90.1597
18.4852 80.1624
18.666 61.7451
18.8469 59.2396
19.0278 58.0533
19.2088 60.856
19.3898 78.1056
19.5709 55.3395
19.752 54.2912
19.9332 57.3004
20.1144 71.2108
20.2957 64.1253
20.477 54.9916
20.6586 50.6196
20.84 49.7105
21.0215 49.449
21.203 51.7055
21.3846 49.9703
21.5662 49.8064
21.7479 53.4665
21.9297 65.9411
22.1115 56.8165
22.2933 51.0325
22.4753 49.9141
22.6572 49.7755
22.8393 52.7483
23.0214 58.8706
23.2037 49.7386
23.3859 50.6991
23.5682 57.5906
23.7505 49.425
23.9329 46.1122
24.1154 44.9976
24.2979 44.3864
24.4805 43.7139
24.6631 43.6992
24.8458 43.0573
25.0286 43.7188
25.2114 45.4998
25.3943 45.6734
25.5773 41.7847
25.7605 41.2979
25.9436 41.6404
26.1268 42.6568
26.31 40.8123
26.4933 41.464
26.6767 42.9993
26.8601 41.1082
27.0437 39.5872
27.2272 39.2926
27.4109 39.0132
27.5946 39.1023
27.7784 38.554
27.9623 39.1589
28.1462 39.5863
28.3304 37.9564
28.5145 36.6461
28.6987 36.2666
28.8829 36.1447
29.0673 35.3271
29.2517 34.9203
29.4361 34.8954
29.6207 33.8545
29.8053 33.6037
29.99 33.2309
30.1748 33.0762
30.3597 32.862
30.5447 32.6769
30.7297 32.8388
30.915 32.2002
31.1002 31.6447
31.2855 31.4961
31.4708 31.3527
31.6563 30.8598
31.8418 30.6618
32.0275 30.5582
32.2132 29.9001
32.399 29.4408
32.5848 29.043
32.7708 28.6689
32.9569 28.5034
33.143 28.3211
33.3293 27.9562
33.5158 27.5888
33.7022 27.1112
33.8887 26.809
34.0753 26.4504
34.262 26.1232
34.4488 25.7749
34.6357 25.4494
34.8227 25.2448
35.0098 24.9913
35.1969 24.7279
35.3842 24.385
35.5716 24.2478
35.759 23.967
35.9468 23.5322
36.1345 23.2905
36.3222 23.0384
36.5101 22.8558
36.6981 22.531
36.8861 22.2234
37.0743 21.8387
37.2626 21.6638
37.451 21.353
37.6395 21.22
37.8281 20.9287
38.0168 20.6248
38.2056 20.4179
38.3945 20.0889
38.5837 19.806
38.7728 19.5767
38.9621 19.3141
39.1514 19.0583
39.3409 18.8096
39.5304 18.6155
39.7201 18.4429
39.9099 18.2079
40.0999 17.9176
40.2899 17.7182
40.48 17.4574
40.6703 17.2768
40.8607 17.056
41.0512 16.8685
41.242 16.6154
41.4327 16.3969
41.6236 16.1968
41.8146 16.0137
42.0057 15.8098
42.1969 15.4823
42.3882 15.3808
42.5797 15.1408
42.7713 14.967
42.963 14.7374
43.1549 14.5327
43.3468 14.2995
43.5389 14.0835
43.7312 13.9062
43.9237 13.776
44.1162 13.5253
44.3088 13.3247
44.5016 13.1233
44.6945 12.9162
44.8875 12.7539
45.0806 12.573
45.2739 12.4447
45.4673 12.2341
45.6609 12.0656
45.8546 11.895
46.0484 11.7431
46.2424 11.5634
46.4365 11.4262
46.631 11.2422
46.8254 11.0595
47.0199 10.9297
47.2146 10.7533
47.4095 10.6119
47.6044 10.4008
47.7996 10.308
47.9948 10.14
48.1902 9.98536
48.3858 9.86102
48.5815 9.70545
48.7774 9.53982
48.9734 9.42583
49.1696 9.28156
49.3661 9.13219
49.5626 8.97983
49.7592 8.84962
49.956 8.74244
50.153 8.60676
50.3501 8.47531
50.5474 8.34717
50.7448 8.21725
50.9424 8.0649
51.1402 7.95998
51.3381 7.81069
51.5362 7.70002
51.7344 7.53482
51.9328 7.43773
52.1316 7.3356
52.3304 7.21171
52.5293 7.04144
52.7284 6.98111
52.9276 6.85895
53.1271 6.77477
53.3267 6.63374
53.5265 6.50517
53.7264 6.41379
53.9266 6.29728
54.1269 6.15373
54.3274 6.0781
54.528 5.89172
54.7289 5.74317
54.9301 5.57604
55.1314 5.43391
55.3328 5.27602
55.5344 5.07328
55.7361 4.92785

File: Ni3Fe_FD0429.xy
TT I
1.27165 7.32272
1.45013 6.31957
1.62863 5.38064
1.80712 4.74746
1.98562 5.00825
2.16411 5.04933
2.34263 5.48623
2.52115 5.98371
2.69965 7.48478
2.87818 8.72682
3.05672 10.9964
3.23527 14.6024
3.4138 18.9656
3.59237 24.8032
3.77094 26.627
3.9495 30.1461
4.12809 35.2156
4.30669 238.888
4.4853 68.9356
4.6639 56.4629
4.84253 68.231
5.02118 89.1548
5.19981 424.997
5.37848 208.506
5.55716 103.988
5.73586 94.3207
5.91455 97.4263
6.09328 4161.24
6.27201 85.8703
6.45075 68.7081
6.62952 64.4232
6.8083 59.9628
6.98711 57.2218
7.16591 56.8091
7.34475 96.9666
7.5236 55.639
7.70247 57.085
7.88135 59.0706
8.06026 63.269
8.23919 70.9906
8.41812 87.8266
8.59709 1159.33
8.77609 102.339
8.9551 93.6694
9.13412 83.3519
9.31318 83.9296
9.49226 86.3392
9.67134 101.446
9.85047 101.518
10.0296 362.826
10.2088 437.8
10.388 106.994
10.5672 500.409
10.7465 88.4101
10.9257 80.274
11.105 73.2618
11.2844 72.1311
11.4637 66.1738
11.6431 64.9126
11.8225 63.986
12.002 64.9001
12.1814 151.298
12.3609 72.5827
12.5405 65.8742
12.72 71.9487
12.8996 72.2839
13.0792 80.5152
13.2589 233.798
13.4386 129.533
13.6183 239.999
13.7981 99.8766
13.9779 77.2941
14.1577 73.9601
14.3376 73.1988
14.5175 70.198
14.6974 71.8739
14.8774 111.807
15.0574 155.973
15.2374 72.9454
15.4175 67.6961
15.5976 67.2758
15.7778 96.4752
15.958 160.833
16.1382 64.3322
16.3185 59.9835
16.4988 56.5445
16.6792 55.7291
16.8596 56.3711
17.04 56.9543
17.2205 67.6734
17.401 72.4485
17.5815 60.5251
17.7622 62.4175
17.9428 75.5038
18.1237 140.823
18.3044 90.5909
18.4852 79.6723
18.666 61.5738
18.8469 59.2578
19.0278 57.9138
19.2088 60.9692
19.3898 77.894
19.5709 55.4361
19.752 54.3737
19.9332 57.5
20.1144 70.8928
20.2957 64.507
20.477 54.8662
20.6586 50.7729
20.84 49.8231
21.0215 49.5702
21.203 51.8217
21.3846 49.9887
21.5662 49.7674
21.7479 53.5551
21.9297 65.7949
22.1115 56.8396
22.2933 50.9613
22.4753 49.9632
22.6572 49.7299
22.8393 52.6093
23.0214 58.4497
23.2037 49.8196
23.3859 50.5836
23.5682 57.5877
23.7505 49.5033
23.9329 46.2212
24.1154 45.0418
24.2979 44.2348
24.4805 43.9048
24.6631 43.8179
24.8458 43.106
25.0286 43.5261
25.2114 45.4892
25.3943 45.5448
25.5773 41.6668
25.7605 41.1636
25.9436 41.6074
26.1268 42.4218
26.31 40.8367
26.4933 41.4029
26.6767 42.9071
26.8601 41.2246
27.0437 39.5466
27.2272 39.3533
27.4109 39.2071
27.5946 39.1344
27.7784 38.6777
27.9623 39.0972
28.1462 39.5647
28.3304 37.8055
28.5145 36.6591
28.6987 36.2871
28.8829 36.0349
29.0673 35.3096
29.2517 34.9467
29.4361 34.9127
29.6207 33.8853
29.8053 33.6039
29.99 33.2591
30.1748 33.0282
30.3597 32.9002
30.5447 32.7304
30.7297 32.7159
30.915 32.385
31.1002 31.7759
31.2855 31.4316
31.4708 31.3613
31.6563 30.9983
31.8418 30.7207
32.0275 30.4784
32.2132 30.0245
32.399 29.4136
32.5848 28.9901
32.7708 28.7044
32.9569 28.5925
33.143 28.3673
33.3293 27.9282
33.5158 27.5751
33.7022 27.0918
33.8887 26.7207
34.0753 26.5349
34.262 26.0878
34.4488 25.76
34.6357 25.4009
34.8227 25.158
35.0098 24.9634
35.1969 24.6951
35.3842 24.4627
35.5716 24.236
35.759 23.8943
35.9468 23.5632
36.1345 23.2817
36.3222 23.1258
36.5101 22.798
36.6981 22.5675
36.8861 22.1821
37.0743 21.9389
37.2626 21.7178
37.451 21.4024
37.6395 21.2668
37.8281 20.8714
38.0168 20.6312
38.2056 20.3258
38.3945 20.0253
38.5837 19.8348
38.7728 19.5322
38.9621 19.3669
39.1514 19.0265
39.3409 18.8271
39.5304 18.6065
39.7201 18.4785
39.9099 18.1859
40.0999 17.8966
40.2899 17.6996
40.48 17.4679
40.6703 17.2096
40.8607 17.0227
41.0512 16.8392
41.242 16.617
41.4327 16.3443
41.6236 16.1811
41.8146 15.9667
42.0057 15.7441
42.1969 15.4963
42.3882 15.3249
42.5797 15.1125
42.7713 14.9407
42.963 14.7741
43.1549 14.4769
43.3468 14.2102
43.5389 14.0611
43.7312 13.9002
43.9237 13.7366
44.1162 13.5108
44.3088 13.3286
44.5016 13.1575
44.6945 12.9764
44.8875 12.7718
45.0806 12.5769
45.2739 12.4719
45.4673 12.2742
45.6609 12.0634
45.8546 11.9097
46.0484 11.7424
46.2424 11.6009
46.4365 11.4109
46.631 11.2312
46.8254 11.0523
47.0199 10.9207
47.2146 10.7693
47.4095 10.6221
47.6044 10.4294
47.7996 10.2764
47.9948 10.1202
48.1902 9.94222
48.3858 9.84974
48.5815 9.7244
48.7774 9.53308
48.9734 9.44704
49.1696 9.29542
49.3661 9.14961
49.5626 8.98198
49.7592 8.86964
49.956 8.74766
50.153 8.57478
50.3501 8.47882
50.5474 8.31475
50.7448 8.23352
50.9424 8.08539
51.1402 7.9693
51.3381 7.79622
51.5362 7.73431
51.7344 7.5571
51.9328 7.44871
52.1316 7.26787
52.3304 7.19665
52.5293 7.05398
52.7284 6.97469
52.9276 6.84226
53.1271 6.733
53.3267 6.65366
53.5265 6.48812
53.7264 6.42304
53.9266 6.3047
54.1269 6.17578
54.3274 6.06661
54.528 5.87067
54.7289 5.7175
54.9301 5.60619
55.1314 5.48279
55.3328 5.21332
55.5344 5.06156
55.7361 4.92443

File: Ni3Fe_FD0430.xy
TT I
1.27165 7.34207
1.45013 6.15273
1.62863 5.85563
1.80712 4.88826
1.98562 4.9896
2.16411 4.84096
2.34263 5.45403
2.52115 6.11609
2.69965 7.47851
2.87818 8.08342
3.05672 10.9413
3.23527 15.2763
3.4138 19.0834
3.59237 24.5707
3.77094 26.3897
3.9495 30.4246
4.12809 35.6857
4.30669 228.603
4.4853 67.4743
4.6639 56.2037
4.84253 68.3795
5.02118 89.2329
5.19981 425.305
5.37848 209.173
5.55716 103.773
5.73586 94.137
5.91455 97.794
6.09328 4184.33
6.27201 85.3273
6.45075 68.5749
6.62952 64.0041
6.8083 59.9082
6.98711 56.8047
7.16591 56.4459
7.34475 94.4719
7.5236 55.497
7.70247 57.0753
7.88135 58.5579
8.06026 63.3019
8.23919 70.6415
8.41812 87.4452
8.59709 1171.16
8.77609 102.317
8.9551 93.5995
9.13412 83.1155
9.31318 83.6727
9.49226 85.7772
9.67134 100.732
9.85047 101.755
10.0296 367.819
10.2088 439.186
10.388 107.222
10.5672 501.714
10.7465 88.414
10.9257 79.9994
11.105 73.2709
11.2844 71.8256
11.4637 66.1693
11.6431 64.6959
11.8225 63.798
12.002 64.8282
12.1814 151.718
12.3609 72.4265
12.5405 65.8203
12.72 71.4638
12.8996 72.2284
13.0792 80.6365
13.2589 235.397
13.4386 129.249
13.6183 242.564
13.7981 99.9788
13.9779 77.1399
14.1577 73.8741
14.3376 73.0414
14.5175 70.1798
14.6974 71.8361
14.8774 112.55
15.0574 155.707
15.2374 72.7107
15.4175 67.5594
15.5976 66.9778
15.7778 97.2156
15.958 161.055
16.1382 64.0545
16.3185 59.7541
16.4988 56.6687
16.6792 55.4158
16.8596 56.2777
17.04 56.8231
17.2205 67.8145
17.401 72.4801
17.5815 60.3231
17.7622 62.3663
17.9428 75.7584
18.1237 140.743
18.3044 90.7714
18.4852 79.4416
18.666 61.5355
18.8469 58.9516
19.0278 57.9377
19.2088 61.0836
19.3898 77.8327
19.5709 55.1389
19.752 54.2388
19.9332 57.4712
20.1144 71.0703
20.2957 64.3441
20.477 55.0062
20.6586 50.6678
20.84 49.9081
21.0215 49.5024
21.203 51.7807
21.3846 50.1222
21.5662 49.7904
21.7479 53.5831
21.9297 65.7593
22.1115 56.8178
22.2933 50.9297
22.4753 49.8645
22.6572 49.8943
22.8393 52.8561
23.0214 58.6639
23.2037 49.6813
23.3859 50.8404
23.5682 57.7111
23.7505 49.3683
23.9329 45.9608
24.1154 45.0043
24.2979 44.2531
24.4805 43.5831
24.6631 43.5463
24.8458 42.9892
25.0286 43.6275
25.2114 45.4612
25.3943 45.6229
25.5773 41.7516
25.7605 41.3279
25.9436 41.6738
26.1268 42.553
26.31 40.8904
26.4933 41.5378
26.6767 42.9751
26.8601 41.3375
27.0437 39.6459
27.2272 39.2353
27.4109 39.1206
27.5946 39.2438
27.7784 38.5276
27.9623 39.0898
28.1462 39.5874
28.3304 37.9147
28.5145 36.678
28.6987 36.3207
28.8829 36.1299
29.0673 35.428
29.2517 35.0149
29.4361 34.7777
29.6207 33.7941
29.8053 33.6208
29.99 33.1934
30.1748 32.9977
30.3597 32.913
30.5447 32.7298
30.7297 32.7744
30.915 32.2228
31.1002 31.7174
31.2855 31.4543
31.4708 31.3216
31.6563 30.9697
31.8418 30.5947
32.0275 30.4033
32.2132 30.0088
32.399 29.591
32.5848 29.076
32.7708 28.6719
32.9569 28.52
33.143 28.2873
33.3293 27.8996
33.5158 27.596
33.7022 27.1036
33.8887 26.8443
34.0753 26.4276
34.262 26.1695
34.4488 25.825
34.6357 25.4452
34.8227 25.1563
35.0098 24.9721
35.1969 24.6461
35.3842 24.4102
35.5716 24.2015
35.759 23.9039
35.9468 23.583
36.1345 23.2958
36.3222 23.1529
36.5101 22.8657
36.6981 22.4442
36.8861 22.226
37.0743 21.8986
37.2626 21.6239
37.451 21.3956
37.6395 21.2069
37.8281 20.8861
38.0168 20.6157
38.2056 20.3263
38.3945 20.068
38.5837 19.7782
38.7728 19.6161
38.9621 19.2959
39.1514 19.0783
39.3409 18.7805
39.5304 18.6106
39.7201 18.4094
39.9099 18.1781
40.0999 17.9644
40.2899 17.648
40.48 17.4372
40.6703 17.2509
40.8607 17.0075
41.0512 16.8094
41.242 16.5261
41.4327 16.3907
41.6236 16.1552
41.8146 15.9543
42.0057 15.7506
42.1969 15.4703
42.3882 15.3706
42.5797 15.1219
42.7713 14.932
42.963 14.645
43.1549 14.4699
43.3468 14.299
43.5389 14.1159
43.7312 13.9011
43.9237 13.6909
44.1162 13.554
44.3088 13.3331
44.5016 13.1242
44.6945 12.9874
44.8875 12.7914
45.0806 12.5768
45.2739 12.3912
45.4673 12.2479
45.6609 12.0639
45.8546 11.9654
46.0484 11.7199
46.2424 11.5827
46.4365 11.4286
46.631 11.2409
46.8254 11.073
47.0199 10.9052
47.2146 10.7227
47.4095 10.5797
47.6044 10.431
47.7996 10.2918
47.9948 10.1334
48.1902 10.0023
48.3858 9.865
48.5815 9.71692
48.7774 9.58119
48.9734 9.40657
49.1696 9.29268
49.3661 9.14455
49.5626 9.00539
49.7592 8.86276
49.956 8.72756
50.153 8.62506
50.3501 8.44087
50.5474 8.33132
50.7448 8.22955
50.9424 8.06325
51.1402 7.95796
51.3381 7.8326
51.5362 7.68664
51.7344 7.53938
51.9328 7.41753
52.1316 7.31036
52.3304 7.2014
52.5293 7.08674
52.7284 6.95121
52.9276 6.84227
53.1271 6.71977
53.3267 6.62468
53.5265 6.49704
53.7264 6.39589
53.9266 6.24719
54.1269 6.15897
54.3274 6.04343
54.528 5.8933
54.7289 5.73996
54.9301 5.61204
55.1314 5.42413
55.3328 5.2207
55.5344 5.07432
55.7361 4.93122

File: Ni3Fe_FD0432.xy
TT I
1.27165 7.39732
1.45013 6.3288
1.62863 5.14842
1.80712 5.3725
1.98562 5.03135
2.16411 5.13409
2.34263 5.33087
2.52115 6.43023
2.69965 7.27146
2.87818 8.72303
3.05672 10.7839
3.23527 14.9967
3.4138 19.1244
3.59237 24.7043
3.77094 26.7458
3.9495 30.3463
4.12809 35.4799
4.30669 214.346
4.4853 66.086
4.6639 56.4309
4.84253 68.1184
5.02118 89.0628
5.19981 430.69
5.37848 207.609
5.55716 104.088
5.73586 94.2122
5.91455 97.4625
6.09328 4169.26
6.27201 84.9046
6.45075 68.7454
6.62952 63.727
6.8083 59.6763
6.98711 56.4109
7.16591 56.4439
7.34475 92.2989
7.5236 55.6268
7.70247 56.9592
7.88135 58.7469
8.06026 63.1973
8.23919 70.9274
8.41812 87.1537
8.59709 1179.54
8.77609 102.133
8.9551 92.9958
9.13412 83.0507
9.31318 83.8704
9.49226 85.7737
9.67134 100.108
9.85047 102.01
10.0296 374.352
10.2088 440.413
10.388 106.936
10.5672 503.629
10.7465 87.8171
10.9257 79.5264
11.105 73.0981
11.2844 71.2368
11.4637 65.8826
11.6431 64.5584
11.8225 63.2563
12.002 64.8093
12.1814 152.837
12.3609 71.7618
12.5405 65.6418
12.72 71.3722
12.8996 72.1031
13.0792 80.5272
13.2589 238.836
13.4386 130.04
13.6183 244.587
13.7981 100.205
13.9779 77.1561
14.1577 73.5663
14.3376 72.8147
14.5175 70.1999
14.6974 71.76
14.8774 113.603
15.0574 155.88
15.2374 71.961
15.4175 67.3442
15.5976 67.0236
15.7778 97.876
15.958 160.399
16.1382 63.9729
16.3185 59.67
16.4988 56.4935
16.6792 55.4365
16.8596 56.1044
17.04 56.8958
17.2205 68.0083
17.401 72.7107
17.5815 60.4356
17.7622 62.4863
17.9428 76.0193
18.1237 139.812
18.3044 91.0185
18.4852 79.0439
18.666 61.5167
18.8469 59.0979
19.0278 57.9884
19.2088 60.7864
19.3898 77.8164
19.5709 55.1002
19.752 54.2499
19.9332 57.6054
20.1144 70.9161
20.2957 64.5237
20.477 54.7006
20.6586 50.6322
20.84 49.6651
21.0215 49.6424
21.203 51.7608
21.3846 49.8086
21.5662 49.8695
21.7479 53.651
21.9297 65.6335
22.1115 56.861
22.2933 50.8675
22.4753 49.9905
22.6572 49.7863
22.8393 52.841
23.0214 58.4352
23.2037 49.5979
23.3859 50.8829
23.5682 57.6829
23.7505 49.2976
23.9329 46.0932
24.1154 44.8026
24.2979 44.1594
24.4805 43.6928
24.6631 43.5416
24.8458 43.1026
25.0286 43.6132
25.2114 45.3512
25.3943 45.5005
25.5773 41.8698
25.7605 41.2387
25.9436 41.5934
26.1268 42.5007
26.31 40.8955
26.4933 41.5437
26.6767 42.8673
26.8601 41.2605
27.0437 39.679
27.2272 39.2793
27.4109 39.2624
27.5946 39.0806
27.7784 38.5396
27.9623 39.0263
28.1462 39.5748
28.3304 37.8962
28.5145 36.6857
28.6987 36.2744
28.8829 36.14
29.0673 35.3425
29.2517 35.0011
29.4361 34.7493
29.6207 33.7506
29.8053 33.5111
29.99 33.1386
30.1748 32.9333
30.3597 32.8823
30.5447 32.703
30.7297 32.9032
30.915 32.1513
31.1002 31.7133
31.2855 31.3514
31.4708 31.3828
31.6563 30.8777
31.8418 30.7519
32.0275 30.5743
32.2132 29.959
32.399 29.5121
32.5848 28.9531
32.7708 28.6672
32.9569 28.4688
33.143 28.3333
33.3293 27.9273
33.5158 27.5815
33.7022 27.1295
33.8887 26.8492
34.0753 26.4045
34.262 26.1759
34.4488 25.7343
34.6357 25.4479
34.8227 25.1962
35.0098 24.8995
35.1969 24.6596
35.3842 24.4221
35.5716 24.1802
35.759 23.9451
35.9468 23.5856
36.1345 23.3751
36.3222 23.1344
36.5101 22.8011
36.6981 22.5727
36.8861 22.2568
37.0743 21.9017
37.2626 21.6356
37.451 21.3227
37.6395 21.1959
37.8281 20.8909
38.0168 20.5296
38.2056 20.3894
38.3945 20.071
38.5837 19.8303
38.7728 19.585
38.9621 19.3238
39.1514 19.0156
39.3409 18.7551
39.5304 18.6122
39.7201 18.3237
39.9099 18.1835
40.0999 17.951
40.2899 17.7266
40.48 17.4558
40.6703 17.1689
40.8607 17.1038
41.0512 16.8256
41.242 16.5434
41.4327 16.3749
41.6236 16.1122
41.8146 15.9964
42.0057 15.6804
42.1969 15.4667
42.3882 15.3467
42.5797 15.0988
42.7713 14.8202
42.963 14.6885
43.1549 14.5121
43.3468 14.3188
43.5389 14.095
43.7312 13.899
43.9237 13.6917
44.1162 13.4898
44.3088 13.3278
44.5016 13.1118
44.6945 12.9713
44.8875 12.7937
45.0806 12.6441
45.2739 12.4148
45.4673 12.2607
45.6609 12.0694
45.8546 11.9453
46.0484 11.7625
46.2424 11.5367
46.4365 11.4231
46.631 11.2471
46.8254 11.0548
47.0199 10.8993
47.2146 10.7692
47.4095 10.5219
47.6044 10.4222
47.7996 10.2791
47.9948 10.1024
48.1902 9.96605
48.3858 9.85431
48.5815 9.70289
48.7774 9.52246
48.9734 9.40974
49.1696 9.26196
49.3661 9.12576
49.5626 8.9855
49.7592 8.84814
49.956 8.72995
50.153 8.58554
50.3501 8.43591
50.5474 8.35633
50.7448 8.17755
50.9424 8.09631
51.1402 7.92472
51.3381 7.8075
51.5362 7.68147
51.7344 7.56586
51.9328 7.4631
52.1316 7.30398
52.3304 7.21389
52.5293 7.06635
52.7284 6.93105
52.9276 6.82958
53.1271 6.78937
53.3267 6.60908
53.5265 6.50728
53.7264 6.3754
53.9266 6.25619
54.1269 6.1535
54.3274 6.07157
54.528 5.91469
54.7289 5.80431
54.9301 5.56259
55.1314 5.50494
55.3328 5.23378
55.5344 5.05293
55.7361 4.8999