Folder: NiFe_MOF_catalyst_paper/XRD (part 37)

File: Ni3Fe_FD0189.xy
TT I
1.27165 7.80468
1.45013 6.17462
1.62863 5.74194
1.80712 5.3715
1.98562 5.29198
2.16411 4.86854
2.34263 4.7145
2.52115 4.15178
2.69965 5.95868
2.87818 8.16331
3.05672 11.3527
3.23527 15.0117
3.4138 18.7754
3.59237 22.4016
3.77094 25.4248
3.9495 29.0508
4.12809 33.3313
4.30669 39.0034
4.4853 46.3451
4.6639 55.4485
4.84253 68.3557
5.02118 92.898
5.19981 558.757
5.37848 380.654
5.55716 109.535
5.73586 97.3369
5.91455 106.839
6.09328 2997.6
6.27201 89.1711
6.45075 68.2793
6.62952 61.3564
6.8083 57.2987
6.98711 55.0512
7.16591 53.6674
7.34475 53.34
7.5236 57.1605
7.70247 55.4561
7.88135 57.8118
8.06026 62.3629
8.23919 69.8654
8.41812 86.0201
8.59709 944.82
8.77609 113.936
8.9551 87.4599
9.13412 83.6347
9.31318 86.9379
9.49226 85.599
9.67134 90.9745
9.85047 101.408
10.0296 548.339
10.2088 851.656
10.388 107.271
10.5672 359.484
10.7465 91.2456
10.9257 77.6886
11.105 71.9253
11.2844 67.951
11.4637 64.8965
11.6431 63.6923
11.8225 62.5012
12.002 66.0657
12.1814 124.553
12.3609 73.1597
12.5405 64.6751
12.72 67.0282
12.8996 71.2173
13.0792 81.1969
13.2589 213.344
13.4386 187.463
13.6183 203.865
13.7981 139.011
13.9779 77.4882
14.1577 74.9263
14.3376 70.3173
14.5175 69.7741
14.6974 71.166
14.8774 122.167
15.0574 197.933
15.2374 70.4908
15.4175 67.6143
15.5976 67.0727
15.7778 107.639
15.958 184.083
16.1382 62.6442
16.3185 58.3946
16.4988 56.1185
16.6792 55.115
16.8596 55.5386
17.04 56.4611
17.2205 66.5522
17.401 80.8698
17.5815 60.2373
17.7622 62.4325
17.9428 84.3429
18.1237 120.958
18.3044 88.7042
18.4852 92.2932
18.666 61.7502
18.8469 59.1793
19.0278 57.8871
19.2088 62.5282
19.3898 71.336
19.5709 56.7064
19.752 54.294
19.9332 58.8539
20.1144 68.8497
20.2957 62.1176
20.477 58.3561
20.6586 50.784
20.84 49.9331
21.0215 49.8024
21.203 50.86
21.3846 51.0177
21.5662 49.8706
21.7479 54.7331
21.9297 63.6729
22.1115 56.8056
22.2933 52.5645
22.4753 49.7269
22.6572 50.0079
22.8393 53.0047
23.0214 58.238
23.2037 50.3017
23.3859 52.4081
23.5682 55.1229
23.7505 52.6566
23.9329 46.3888
24.1154 45.1698
24.2979 44.5269
24.4805 43.8492
24.6631 43.8704
24.8458 43.2496
25.0286 43.8677
25.2114 45.336
25.3943 45.5748
25.5773 42.3167
25.7605 41.5387
25.9436 41.711
26.1268 42.3423
26.31 41.4803
26.4933 41.5222
26.6767 42.7453
26.8601 41.7254
27.0437 40.0199
27.2272 39.5443
27.4109 39.3732
27.5946 39.3033
27.7784 39.0219
27.9623 39.1034
28.1462 39.9689
28.3304 38.4518
28.5145 36.9216
28.6987 36.4405
28.8829 36.091
29.0673 35.6109
29.2517 35.1024
29.4361 34.9469
29.6207 33.9447
29.8053 33.6028
29.99 33.3658
30.1748 32.9858
30.3597 33.0207
30.5447 32.8555
30.7297 32.8161
30.915 32.4608
31.1002 31.9301
31.2855 31.603
31.4708 31.3976
31.6563 31.2629
31.8418 30.8094
32.0275 30.6621
32.2132 30.1451
32.399 29.6777
32.5848 29.2227
32.7708 28.8854
32.9569 28.6808
33.143 28.3911
33.3293 28.0451
33.5158 27.6592
33.7022 27.1799
33.8887 26.8551
34.0753 26.5966
34.262 26.1702
34.4488 25.8592
34.6357 25.6003
34.8227 25.2718
35.0098 25.0491
35.1969 24.7882
35.3842 24.5109
35.5716 24.3075
35.759 23.9923
35.9468 23.605
36.1345 23.3815
36.3222 23.1846
36.5101 22.9623
36.6981 22.6701
36.8861 22.3545
37.0743 21.9919
37.2626 21.7006
37.451 21.4607
37.6395 21.3148
37.8281 20.9317
38.0168 20.6201
38.2056 20.4191
38.3945 20.1297
38.5837 19.8067
38.7728 19.6158
38.9621 19.3605
39.1514 19.1067
39.3409 18.9089
39.5304 18.6708
39.7201 18.3772
39.9099 18.2082
40.0999 17.9751
40.2899 17.728
40.48 17.5124
40.6703 17.2801
40.8607 17.116
41.0512 16.8877
41.242 16.5819
41.4327 16.4541
41.6236 16.1939
41.8146 16.0154
42.0057 15.7856
42.1969 15.5389
42.3882 15.3683
42.5797 15.0831
42.7713 14.964
42.963 14.7347
43.1549 14.5221
43.3468 14.2976
43.5389 14.1373
43.7312 13.9433
43.9237 13.7509
44.1162 13.6062
44.3088 13.3507
44.5016 13.1901
44.6945 12.9954
44.8875 12.8225
45.0806 12.6241
45.2739 12.4643
45.4673 12.3198
45.6609 12.1104
45.8546 11.9531
46.0484 11.8067
46.2424 11.5516
46.4365 11.4372
46.631 11.2302
46.8254 11.0857
47.0199 10.929
47.2146 10.747
47.4095 10.6011
47.6044 10.4449
47.7996 10.3018
47.9948 10.1502
48.1902 10.0228
48.3858 9.85314
48.5815 9.72335
48.7774 9.58865
48.9734 9.45009
49.1696 9.29435
49.3661 9.16597
49.5626 8.97116
49.7592 8.87567
49.956 8.75755
50.153 8.56682
50.3501 8.50084
50.5474 8.31953
50.7448 8.26738
50.9424 8.13299
51.1402 7.99633
51.3381 7.80808
51.5362 7.73662
51.7344 7.61493
51.9328 7.46152
52.1316 7.33156
52.3304 7.18618
52.5293 7.08807
52.7284 7.01907
52.9276 6.88318
53.1271 6.74498
53.3267 6.63282
53.5265 6.54039
53.7264 6.44936
53.9266 6.32965
54.1269 6.18214
54.3274 6.07968
54.528 5.9123
54.7289 5.68846
54.9301 5.52059
55.1314 5.39658
55.3328 5.17891
55.5344 4.93724
55.7361 4.85798

File: Ni3Fe_FD0190.xy
TT I
1.27165 7.85139
1.45013 6.45681
1.62863 4.90649
1.80712 5.23241
1.98562 5.01861
2.16411 4.74808
2.34263 4.8006
2.52115 4.2811
2.69965 5.76087
2.87818 8.88867
3.05672 11.4816
3.23527 15.1938
3.4138 18.8012
3.59237 22.4157
3.77094 25.4868
3.9495 29.4855
4.12809 33.6644
4.30669 39.2744
4.4853 46.6345
4.6639 56.3257
4.84253 68.4538
5.02118 93.9367
5.19981 585.944
5.37848 366.356
5.55716 110.214
5.73586 98.3296
5.91455 107.829
6.09328 3065.88
6.27201 89.8001
6.45075 68.5301
6.62952 61.8677
6.8083 57.7813
6.98711 55.4899
7.16591 54.2281
7.34475 53.8321
7.5236 57.3786
7.70247 55.7533
7.88135 58.483
8.06026 62.9284
8.23919 70.4248
8.41812 86.645
8.59709 958.261
8.77609 114.393
8.9551 87.9287
9.13412 84.1637
9.31318 87.6861
9.49226 86.6539
9.67134 91.7704
9.85047 102.523
10.0296 555.31
10.2088 814.617
10.388 107.727
10.5672 368.591
10.7465 91.7997
10.9257 78.2862
11.105 72.4306
11.2844 68.5821
11.4637 65.6946
11.6431 64.1605
11.8225 63.1245
12.002 66.7496
12.1814 126.276
12.3609 72.6673
12.5405 65.1139
12.72 67.4087
12.8996 71.9325
13.0792 81.6798
13.2589 214.627
13.4386 182.674
13.6183 204.852
13.7981 135.129
13.9779 78.2304
14.1577 75.4007
14.3376 70.7899
14.5175 70.5175
14.6974 71.7507
14.8774 122.015
15.0574 193.366
15.2374 70.8856
15.4175 67.956
15.5976 67.525
15.7778 107.793
15.958 182.441
16.1382 62.9848
16.3185 58.8169
16.4988 56.4485
16.6792 55.5689
16.8596 55.7361
17.04 56.8062
17.2205 66.8517
17.401 79.8986
17.5815 60.5015
17.7622 63.0059
17.9428 84.5718
18.1237 122.199
18.3044 88.5187
18.4852 90.708
18.666 62.286
18.8469 59.6193
19.0278 58.1167
19.2088 62.6705
19.3898 71.6883
19.5709 56.6438
19.752 54.6448
19.9332 58.9593
20.1144 69.2451
20.2957 62.1873
20.477 58.0866
20.6586 50.8754
20.84 50.2375
21.0215 50.1587
21.203 51.0285
21.3846 51.1589
21.5662 50.1165
21.7479 54.8599
21.9297 63.7281
22.1115 56.7542
22.2933 52.3259
22.4753 49.9553
22.6572 50.2971
22.8393 53.017
23.0214 58.3482
23.2037 50.378
23.3859 52.4553
23.5682 55.1507
23.7505 52.4569
23.9329 46.5666
24.1154 45.1946
24.2979 44.4767
24.4805 43.9525
24.6631 44.0641
24.8458 43.3455
25.0286 43.9036
25.2114 45.6488
25.3943 45.7165
25.5773 42.2986
25.7605 41.5801
25.9436 41.7405
26.1268 42.5237
26.31 41.4491
26.4933 41.7191
26.6767 42.9679
26.8601 41.7138
27.0437 40.0637
27.2272 39.5261
27.4109 39.2688
27.5946 39.5013
27.7784 39.0835
27.9623 39.294
28.1462 39.8538
28.3304 38.3954
28.5145 36.9814
28.6987 36.5313
28.8829 36.2164
29.0673 35.717
29.2517 35.2037
29.4361 34.9118
29.6207 34.0805
29.8053 33.6738
29.99 33.3345
30.1748 33.1352
30.3597 33.1558
30.5447 32.9083
30.7297 32.9308
30.915 32.5261
31.1002 32.0367
31.2855 31.5737
31.4708 31.5136
31.6563 31.2893
31.8418 30.96
32.0275 30.764
32.2132 30.2417
32.399 29.6692
32.5848 29.2064
32.7708 28.9428
32.9569 28.7734
33.143 28.4736
33.3293 28.2041
33.5158 27.6727
33.7022 27.2257
33.8887 26.9264
34.0753 26.5666
34.262 26.2987
34.4488 25.9248
34.6357 25.6032
34.8227 25.3189
35.0098 25.0987
35.1969 24.7749
35.3842 24.4751
35.5716 24.4074
35.759 24.0571
35.9468 23.6356
36.1345 23.4357
36.3222 23.2327
36.5101 22.9504
36.6981 22.7055
36.8861 22.4099
37.0743 22.0062
37.2626 21.8133
37.451 21.4723
37.6395 21.3543
37.8281 20.975
38.0168 20.6855
38.2056 20.4702
38.3945 20.2364
38.5837 19.9229
38.7728 19.6919
38.9621 19.4079
39.1514 19.1073
39.3409 18.8511
39.5304 18.6723
39.7201 18.5057
39.9099 18.2688
40.0999 18.0593
40.2899 17.778
40.48 17.5614
40.6703 17.3063
40.8607 17.1309
41.0512 16.9562
41.242 16.6796
41.4327 16.4871
41.6236 16.209
41.8146 16.0508
42.0057 15.7878
42.1969 15.5729
42.3882 15.4061
42.5797 15.158
42.7713 14.9663
42.963 14.7493
43.1549 14.5182
43.3468 14.3253
43.5389 14.174
43.7312 13.9561
43.9237 13.7045
44.1162 13.6205
44.3088 13.3774
44.5016 13.1581
44.6945 13.0481
44.8875 12.8138
45.0806 12.6197
45.2739 12.4888
45.4673 12.297
45.6609 12.1479
45.8546 11.9179
46.0484 11.808
46.2424 11.6155
46.4365 11.4441
46.631 11.3107
46.8254 11.066
47.0199 10.9428
47.2146 10.7947
47.4095 10.6129
47.6044 10.4806
47.7996 10.3147
47.9948 10.1903
48.1902 10.0202
48.3858 9.8698
48.5815 9.73732
48.7774 9.62378
48.9734 9.47458
49.1696 9.32292
49.3661 9.19134
49.5626 9.04109
49.7592 8.90508
49.956 8.75873
50.153 8.61061
50.3501 8.46112
50.5474 8.38294
50.7448 8.24966
50.9424 8.11418
51.1402 7.97715
51.3381 7.86554
51.5362 7.73724
51.7344 7.61832
51.9328 7.46473
52.1316 7.30595
52.3304 7.27234
52.5293 7.13862
52.7284 6.9867
52.9276 6.91115
53.1271 6.75042
53.3267 6.65888
53.5265 6.52082
53.7264 6.41425
53.9266 6.30782
54.1269 6.20965
54.3274 6.00854
54.528 5.94646
54.7289 5.71779
54.9301 5.55239
55.1314 5.41547
55.3328 5.12181
55.5344 4.97261
55.7361 4.85755

File: Ni3Fe_FD0191.xy
TT I
1.27165 8.03013
1.45013 6.48488
1.62863 5.62775
1.80712 5.53374
1.98562 5.74725
2.16411 4.75742
2.34263 4.84479
2.52115 4.96938
2.69965 5.71751
2.87818 8.62901
3.05672 11.5014
3.23527 15.5035
3.4138 19.2476
3.59237 22.2767
3.77094 25.54
3.9495 29.6096
4.12809 34.2178
4.30669 39.439
4.4853 47.4064
4.6639 56.4462
4.84253 69.7452
5.02118 95.6037
5.19981 614.57
5.37848 352.148
5.55716 111.168
5.73586 99.4725
5.91455 109.128
6.09328 3126.86
6.27201 89.8617
6.45075 69.121
6.62952 62.5935
6.8083 58.1919
6.98711 55.8939
7.16591 54.8477
7.34475 54.3044
7.5236 58.0479
7.70247 56.6286
7.88135 58.9255
8.06026 63.5706
8.23919 71.3833
8.41812 87.6015
8.59709 966.254
8.77609 114.631
8.9551 88.9909
9.13412 84.9559
9.31318 88.4443
9.49226 87.3784
9.67134 92.9026
9.85047 103.72
10.0296 561.333
10.2088 774.699
10.388 109.011
10.5672 379.355
10.7465 92.5608
10.9257 78.9655
11.105 73.3878
11.2844 69.0082
11.4637 66.2953
11.6431 64.7218
11.8225 63.7811
12.002 67.0024
12.1814 127.705
12.3609 72.6687
12.5405 65.613
12.72 68.1934
12.8996 72.7321
13.0792 82.8548
13.2589 216.521
13.4386 174.418
13.6183 207.212
13.7981 131.029
13.9779 78.6933
14.1577 75.7626
14.3376 71.7807
14.5175 71.0465
14.6974 72.468
14.8774 122.13
15.0574 190.745
15.2374 71.2973
15.4175 68.3944
15.5976 68.0795
15.7778 107.556
15.958 179.969
16.1382 63.4058
16.3185 59.4246
16.4988 57.0424
16.6792 55.8715
16.8596 56.2412
17.04 57.2734
17.2205 67.3249
17.401 79.5605
17.5815 61.0212
17.7622 63.3409
17.9428 85.203
18.1237 123.193
18.3044 88.4011
18.4852 89.9244
18.666 62.4899
18.8469 60.0373
19.0278 58.4414
19.2088 62.9318
19.3898 72.2761
19.5709 56.9435
19.752 54.8887
19.9332 59.5649
20.1144 69.4924
20.2957 62.4628
20.477 57.783
20.6586 51.2281
20.84 50.2662
21.0215 50.3197
21.203 51.3522
21.3846 51.067
21.5662 50.2676
21.7479 55.0649
21.9297 63.9484
22.1115 56.864
22.2933 52.3966
22.4753 50.2182
22.6572 50.5567
22.8393 53.2719
23.0214 58.4952
23.2037 50.655
23.3859 52.5102
23.5682 55.178
23.7505 52.326
23.9329 46.7503
24.1154 45.4314
24.2979 44.7873
24.4805 44.169
24.6631 44.1166
24.8458 43.6639
25.0286 44.2862
25.2114 45.609
25.3943 45.7133
25.5773 42.4741
25.7605 41.7619
25.9436 41.9863
26.1268 42.7019
26.31 41.6582
26.4933 41.8569
26.6767 42.9581
26.8601 41.8644
27.0437 40.2589
27.2272 39.6793
27.4109 39.5928
27.5946 39.5418
27.7784 39.3436
27.9623 39.3813
28.1462 39.9884
28.3304 38.5086
28.5145 37.0476
28.6987 36.6402
28.8829 36.3906
29.0673 35.8845
29.2517 35.2757
29.4361 35.0197
29.6207 34.2869
29.8053 33.7355
29.99 33.5891
30.1748 33.3541
30.3597 33.2992
30.5447 33.0249
30.7297 33.0696
30.915 32.644
31.1002 32.1901
31.2855 31.8169
31.4708 31.5055
31.6563 31.3639
31.8418 30.8905
32.0275 30.8171
32.2132 30.2845
32.399 29.8302
32.5848 29.321
32.7708 29.07
32.9569 28.8834
33.143 28.5284
33.3293 28.2019
33.5158 27.8026
33.7022 27.4004
33.8887 27.0424
34.0753 26.8118
34.262 26.4216
34.4488 26.0221
34.6357 25.7386
34.8227 25.3758
35.0098 25.1996
35.1969 24.992
35.3842 24.68
35.5716 24.4551
35.759 24.1208
35.9468 23.7723
36.1345 23.5056
36.3222 23.3071
36.5101 23.0253
36.6981 22.7787
36.8861 22.4528
37.0743 22.0769
37.2626 21.8782
37.451 21.5417
37.6395 21.3868
37.8281 21.0947
38.0168 20.8151
38.2056 20.4952
38.3945 20.2438
38.5837 19.9734
38.7728 19.7702
38.9621 19.5264
39.1514 19.2147
39.3409 18.9662
39.5304 18.7759
39.7201 18.5475
39.9099 18.3109
40.0999 18.0872
40.2899 17.7951
40.48 17.6121
40.6703 17.3818
40.8607 17.2542
41.0512 16.936
41.242 16.7109
41.4327 16.4297
41.6236 16.2762
41.8146 16.1
42.0057 15.8258
42.1969 15.6192
42.3882 15.4497
42.5797 15.2612
42.7713 15.0196
42.963 14.8017
43.1549 14.6482
43.3468 14.3783
43.5389 14.22
43.7312 14.0062
43.9237 13.8096
44.1162 13.6599
44.3088 13.4092
44.5016 13.2516
44.6945 13.0684
44.8875 12.8887
45.0806 12.6807
45.2739 12.5165
45.4673 12.3289
45.6609 12.1417
45.8546 11.966
46.0484 11.882
46.2424 11.6554
46.4365 11.5086
46.631 11.3035
46.8254 11.1737
47.0199 10.976
47.2146 10.8491
47.4095 10.6665
47.6044 10.4847
47.7996 10.3643
47.9948 10.1949
48.1902 10.0803
48.3858 9.91136
48.5815 9.78064
48.7774 9.64927
48.9734 9.4757
49.1696 9.32803
49.3661 9.20571
49.5626 9.0678
49.7592 8.93518
49.956 8.8005
50.153 8.682
50.3501 8.52099
50.5474 8.41383
50.7448 8.29885
50.9424 8.15662
51.1402 8.04019
51.3381 7.88818
51.5362 7.7804
51.7344 7.63953
51.9328 7.49077
52.1316 7.37204
52.3304 7.24476
52.5293 7.13296
52.7284 7.00643
52.9276 6.94648
53.1271 6.81891
53.3267 6.69658
53.5265 6.56898
53.7264 6.46474
53.9266 6.33232
54.1269 6.2196
54.3274 6.06542
54.528 5.90797
54.7289 5.70534
54.9301 5.59168
55.1314 5.46134
55.3328 5.15935
55.5344 5.03929
55.7361 4.88153

File: Ni3Fe_FD0192.xy
TT I
1.27165 8.27413
1.45013 6.46163
1.62863 5.49547
1.80712 5.34072
1.98562 4.9047
2.16411 4.8716
2.34263 4.10521
2.52115 4.42698
2.69965 5.27609
2.87818 7.55894
3.05672 11.5176
3.23527 15.2041
3.4138 18.8004
3.59237 22.2444
3.77094 25.4145
3.9495 29.7141
4.12809 34.6424
4.30669 39.7243
4.4853 47.2239
4.6639 56.8847
4.84253 70.4379
5.02118 95.3925
5.19981 631.164
5.37848 340.576
5.55716 111.98
5.73586 100.176
5.91455 109.917
6.09328 3172.83
6.27201 90.268
6.45075 69.6311
6.62952 62.8636
6.8083 58.5233
6.98711 56.3778
7.16591 55.3991
7.34475 55.0062
7.5236 58.1867
7.70247 57.01
7.88135 59.2907
8.06026 64.0506
8.23919 71.7341
8.41812 88.644
8.59709 983.062
8.77609 114.3
8.9551 89.4084
9.13412 85.6109
9.31318 88.6272
9.49226 88.1791
9.67134 93.803
9.85047 104.447
10.0296 563.389
10.2088 743.136
10.388 109.748
10.5672 385.355
10.7465 92.7694
10.9257 79.4765
11.105 73.8397
11.2844 69.7301
11.4637 66.7315
11.6431 65.2853
11.8225 64.2541
12.002 67.6857
12.1814 129.4
12.3609 72.2085
12.5405 66.2613
12.72 68.6868
12.8996 73.5557
13.0792 83.0477
13.2589 218.259
13.4386 171.147
13.6183 209.257
13.7981 128.858
13.9779 79.0641
14.1577 76.3317
14.3376 72.187
14.5175 71.6251
14.6974 73.2054
14.8774 122.62
15.0574 187.537
15.2374 71.5553
15.4175 69.1114
15.5976 68.5148
15.7778 107.919
15.958 179.034
16.1382 63.4946
16.3185 59.4401
16.4988 57.4031
16.6792 56.4684
16.8596 56.4357
17.04 57.62
17.2205 67.6262
17.401 79.2849
17.5815 61.3747
17.7622 63.8192
17.9428 85.1921
18.1237 124.937
18.3044 88.7241
18.4852 88.9826
18.666 62.8459
18.8469 60.3069
19.0278 58.7108
19.2088 63.2912
19.3898 72.7541
19.5709 57.0354
19.752 55.0821
19.9332 59.7414
20.1144 69.8282
20.2957 62.8863
20.477 58.1438
20.6586 51.6097
20.84 50.6724
21.0215 50.6923
21.203 51.5865
21.3846 51.4565
21.5662 50.6044
21.7479 55.1663
21.9297 64.2915
22.1115 56.8092
22.2933 52.532
22.4753 50.4657
22.6572 50.8517
22.8393 53.4627
23.0214 58.6912
23.2037 50.7737
23.3859 52.7386
23.5682 55.5066
23.7505 52.2006
23.9329 46.907
24.1154 45.7747
24.2979 44.9533
24.4805 44.4619
24.6631 44.427
24.8458 43.8469
25.0286 44.3956
25.2114 45.9655
25.3943 45.9438
25.5773 42.7291
25.7605 41.8883
25.9436 42.1383
26.1268 42.7433
26.31 41.7991
26.4933 42.0993
26.6767 43.0072
26.8601 41.9349
27.0437 40.4119
27.2272 39.9336
27.4109 39.6289
27.5946 39.6533
27.7784 39.2939
27.9623 39.4958
28.1462 40.0663
28.3304 38.6661
28.5145 37.1441
28.6987 36.8752
28.8829 36.5279
29.0673 35.9335
29.2517 35.4577
29.4361 35.1165
29.6207 34.3318
29.8053 33.9615
29.99 33.6911
30.1748 33.4488
30.3597 33.3693
30.5447 33.1765
30.7297 33.2614
30.915 32.7824
31.1002 32.2567
31.2855 31.8371
31.4708 31.798
31.6563 31.56
31.8418 30.9398
32.0275 30.8891
32.2132 30.4574
32.399 29.8898
32.5848 29.4682
32.7708 29.075
32.9569 28.9163
33.143 28.6868
33.3293 28.3702
33.5158 27.9907
33.7022 27.454
33.8887 27.222
34.0753 26.989
34.262 26.4622
34.4488 26.114
34.6357 25.7743
34.8227 25.535
35.0098 25.2373
35.1969 25.027
35.3842 24.7336
35.5716 24.4947
35.759 24.1724
35.9468 23.8507
36.1345 23.6361
36.3222 23.3831
36.5101 23.1111
36.6981 22.8211
36.8861 22.492
37.0743 22.1672
37.2626 22.0174
37.451 21.6033
37.6395 21.4672
37.8281 21.1271
38.0168 20.9206
38.2056 20.6105
38.3945 20.3557
38.5837 20.0425
38.7728 19.7807
38.9621 19.5591
39.1514 19.3444
39.3409 19.0314
39.5304 18.7594
39.7201 18.6351
39.9099 18.3982
40.0999 18.1804
40.2899 17.9205
40.48 17.6438
40.6703 17.4658
40.8607 17.2803
41.0512 16.992
41.242 16.7627
41.4327 16.603
41.6236 16.2822
41.8146 16.138
42.0057 15.9419
42.1969 15.7035
42.3882 15.4595
42.5797 15.2952
42.7713 15.1231
42.963 14.8852
43.1549 14.6596
43.3468 14.4165
43.5389 14.2323
43.7312 14.0238
43.9237 13.8144
44.1162 13.6716
44.3088 13.499
44.5016 13.3001
44.6945 13.0901
44.8875 12.9336
45.0806 12.7555
45.2739 12.5685
45.4673 12.416
45.6609 12.2198
45.8546 12.043
46.0484 11.8938
46.2424 11.6968
46.4365 11.5791
46.631 11.3548
46.8254 11.1813
47.0199 11.0335
47.2146 10.8646
47.4095 10.7342
47.6044 10.5484
47.7996 10.4146
47.9948 10.2732
48.1902 10.1028
48.3858 9.93332
48.5815 9.79946
48.7774 9.65397
48.9734 9.56264
49.1696 9.39338
49.3661 9.25842
49.5626 9.06289
49.7592 8.93046
49.956 8.84036
50.153 8.70068
50.3501 8.56025
50.5474 8.43194
50.7448 8.33425
50.9424 8.16677
51.1402 8.09506
51.3381 7.92728
51.5362 7.77961
51.7344 7.66853
51.9328 7.51156
52.1316 7.36968
52.3304 7.29438
52.5293 7.15728
52.7284 7.0685
52.9276 6.93102
53.1271 6.83809
53.3267 6.67395
53.5265 6.58228
53.7264 6.49434
53.9266 6.36423
54.1269 6.23372
54.3274 6.09069
54.528 5.95881
54.7289 5.77369
54.9301 5.59636
55.1314 5.41691
55.3328 5.22311
55.5344 4.95657
55.7361 4.89917

File: Ni3Fe_FD0193.xy
TT I
1.27165 8.08681
1.45013 7.01443
1.62863 6.04867
1.80712 5.05752
1.98562 5.42362
2.16411 4.46282
2.34263 4.73179
2.52115 3.91236
2.69965 5.6228
2.87818 7.70852
3.05672 11.211
3.23527 15.2671
3.4138 19.0628
3.59237 22.2211
3.77094 26.0243
3.9495 30.0082
4.12809 34.4483
4.30669 40.0953
4.4853 48.0116
4.6639 57.6011
4.84253 70.8281
5.02118 96.7581
5.19981 647.427
5.37848 336.29
5.55716 113.008
5.73586 101.289
5.91455 110.483
6.09328 3243.31
6.27201 90.9343
6.45075 70.5875
6.62952 63.5395
6.8083 59.4695
6.98711 56.9295
7.16591 55.9548
7.34475 55.5077
7.5236 59.0074
7.70247 57.4325
7.88135 59.5722
8.06026 64.4704
8.23919 72.0536
8.41812 89.5841
8.59709 1003.68
8.77609 114.849
8.9551 90.4712
9.13412 86.3603
9.31318 89.2069
9.49226 89.3663
9.67134 94.7386
9.85047 105.507
10.0296 566.134
10.2088 725.874
10.388 110.347
10.5672 392.121
10.7465 93.5107
10.9257 80.0193
11.105 74.3019
11.2844 70.0851
11.4637 67.3293
11.6431 66.0077
11.8225 64.8192
12.002 68.0283
12.1814 132.05
12.3609 72.4711
12.5405 66.8716
12.72 69.0554
12.8996 74.0866
13.0792 84.2247
13.2589 221.407
13.4386 166.45
13.6183 212.119
13.7981 126.397
13.9779 79.8262
14.1577 76.6103
14.3376 72.7188
14.5175 72.1713
14.6974 73.8512
14.8774 123.084
15.0574 186.441
15.2374 72.275
15.4175 69.7199
15.5976 69.0913
15.7778 108.402
15.958 178.651
16.1382 64.1262
16.3185 60.0042
16.4988 57.7171
16.6792 56.714
16.8596 57.0365
17.04 58.1177
17.2205 68.0304
17.401 79.4778
17.5815 61.8559
17.7622 64.1482
17.9428 85.8162
18.1237 126.203
18.3044 89.0016
18.4852 88.6546
18.666 63.1407
18.8469 60.7395
19.0278 59.3973
19.2088 63.6984
19.3898 73.2849
19.5709 57.2625
19.752 55.752
19.9332 59.8821
20.1144 70.5644
20.2957 63.1517
20.477 58.0924
20.6586 51.8614
20.84 50.968
21.0215 51.0728
21.203 51.8239
21.3846 51.6957
21.5662 50.9816
21.7479 55.4583
21.9297 64.6829
22.1115 57.0254
22.2933 52.7861
22.4753 50.6647
22.6572 51.1967
22.8393 53.8879
23.0214 58.8327
23.2037 51.0723
23.3859 52.9041
23.5682 55.7695
23.7505 52.3799
23.9329 47.3745
24.1154 45.9606
24.2979 45.2405
24.4805 44.8046
24.6631 44.6591
24.8458 44.203
25.0286 44.6922
25.2114 46.1317
25.3943 46.0328
25.5773 42.7439
25.7605 42.1361
25.9436 42.4858
26.1268 43.0088
26.31 42.0261
26.4933 42.2463
26.6767 43.3169
26.8601 42.1101
27.0437 40.5238
27.2272 40.1632
27.4109 39.8029
27.5946 39.8308
27.7784 39.6066
27.9623 39.7223
28.1462 40.2582
28.3304 38.8356
28.5145 37.4163
28.6987 37.107
28.8829 36.6426
29.0673 36.1438
29.2517 35.5882
29.4361 35.4806
29.6207 34.4605
29.8053 34.1573
29.99 33.8365
30.1748 33.6423
30.3597 33.6179
30.5447 33.3234
30.7297 33.3651
30.915 32.948
31.1002 32.3141
31.2855 32.0311
31.4708 31.884
31.6563 31.6309
31.8418 31.2676
32.0275 31.0177
32.2132 30.479
32.399 30.053
32.5848 29.5722
32.7708 29.241
32.9569 29.0522
33.143 28.7246
33.3293 28.4346
33.5158 28.0557
33.7022 27.7127
33.8887 27.3791
34.0753 26.9842
34.262 26.6183
34.4488 26.3119
34.6357 25.8571
34.8227 25.6216
35.0098 25.4425
35.1969 25.0409
35.3842 24.8071
35.5716 24.5724
35.759 24.3599
35.9468 23.9494
36.1345 23.7465
36.3222 23.5219
36.5101 23.2581
36.6981 22.9437
36.8861 22.6143
37.0743 22.2841
37.2626 22.0086
37.451 21.781
37.6395 21.6254
37.8281 21.2427
38.0168 20.8519
38.2056 20.6458
38.3945 20.454
38.5837 20.1729
38.7728 19.8819
38.9621 19.6383
39.1514 19.42
39.3409 19.0898
39.5304 18.9019
39.7201 18.7071
39.9099 18.4677
40.0999 18.1876
40.2899 18.037
40.48 17.7808
40.6703 17.5029
40.8607 17.2864
41.0512 17.1258
41.242 16.8622
41.4327 16.6797
41.6236 16.3646
41.8146 16.2328
42.0057 15.9596
42.1969 15.7938
42.3882 15.5796
42.5797 15.3535
42.7713 15.2166
42.963 14.9043
43.1549 14.6941
43.3468 14.5337
43.5389 14.333
43.7312 14.0948
43.9237 14.0139
44.1162 13.7438
44.3088 13.567
44.5016 13.3459
44.6945 13.2088
44.8875 12.9629
45.0806 12.7838
45.2739 12.6518
45.4673 12.456
45.6609 12.2604
45.8546 12.1182
46.0484 11.9431
46.2424 11.7515
46.4365 11.6282
46.631 11.42
46.8254 11.1999
47.0199 11.1125
47.2146 10.9545
47.4095 10.7468
47.6044 10.5601
47.7996 10.423
47.9948 10.3149
48.1902 10.1265
48.3858 10.0165
48.5815 9.84244
48.7774 9.75719
48.9734 9.61024
49.1696 9.42754
49.3661 9.26586
49.5626 9.14577
49.7592 9.04469
49.956 8.87904
50.153 8.718
50.3501 8.55386
50.5474 8.4839
50.7448 8.32826
50.9424 8.19191
51.1402 8.08837
51.3381 7.943
51.5362 7.85713
51.7344 7.68965
51.9328 7.54256
52.1316 7.42747
52.3304 7.34447
52.5293 7.20149
52.7284 7.05778
52.9276 6.94359
53.1271 6.86242
53.3267 6.78822
53.5265 6.62814
53.7264 6.49492
53.9266 6.37794
54.1269 6.26708
54.3274 6.12177
54.528 5.94489
54.7289 5.79933
54.9301 5.64359
55.1314 5.52946
55.3328 5.19613
55.5344 5.05689
55.7361 4.91352