Folder: NiFe_MOF_catalyst_paper/XRD (part 15)

File: Ni3Fe_FD0075.xy
TT I
1.27165 12.8237
1.45013 10.5776
1.62863 8.84914
1.80712 8.71887
1.98562 8.34484
2.16411 7.69913
2.34263 6.80723
2.52115 7.01271
2.69965 8.33596
2.87818 10.932
3.05672 15.3824
3.23527 17.9269
3.4138 18.6815
3.59237 20.4043
3.77094 22.6662
3.9495 26.0688
4.12809 29.6857
4.30669 35.0641
4.4853 40.3195
4.6639 48.5811
4.84253 61.0261
5.02118 96.8879
5.19981 631.083
5.37848 1902.82
5.55716 121.681
5.73586 97.2166
5.91455 119.457
6.09328 1015.41
6.27201 119.186
6.45075 61.7296
6.62952 52.5011
6.8083 47.9722
6.98711 45.9926
7.16591 45.8115
7.34475 45.3625
7.5236 80.7518
7.70247 48.3659
7.88135 47.487
8.06026 51.1339
8.23919 57.7094
8.41812 75.2844
8.59709 389.412
8.77609 175.115
8.9551 76.8031
9.13412 74.4104
9.31318 205.378
9.49226 72.149
9.67134 74.4634
9.85047 84.4902
10.0296 400.949
10.2088 1271.18
10.388 95.5056
10.5672 129.464
10.7465 128.003
10.9257 63.8907
11.105 58.3766
11.2844 54.603
11.4637 52.608
11.6431 51.5618
11.8225 51.7601
12.002 106.663
12.1814 68.677
12.3609 88.7689
12.5405 52.1374
12.72 53.0222
12.8996 56.4382
13.0792 69.3303
13.2589 114.939
13.4386 288.158
13.6183 103.968
13.7981 222.173
13.9779 64.2604
14.1577 94.0949
14.3376 58.2053
14.5175 56.256
14.6974 56.8056
14.8774 86.0461
15.0574 151.224
15.2374 59.3442
15.4175 54.1767
15.5976 53.6538
15.7778 78.711
15.958 111.925
16.1382 63.3238
16.3185 47.5582
16.4988 45.2149
16.6792 44.1035
16.8596 44.4998
17.04 47.6688
17.2205 49.2935
17.401 63.1017
17.5815 47.8092
17.7622 52.1827
17.9428 65.7702
18.1237 62.5787
18.3044 78.7628
18.4852 85.4154
18.666 51.9846
18.8469 47.6446
19.0278 46.3108
19.2088 49.7115
19.3898 54.5277
19.5709 51.8749
19.752 43.6022
19.9332 46.294
20.1144 47.0037
20.2957 49.65
20.477 53.4278
20.6586 40.8864
20.84 42.4562
21.0215 39.9362
21.203 39.1043
21.3846 41.971
21.5662 39.9477
21.7479 42.4869
21.9297 43.2783
22.1115 48.7734
22.2933 45.8437
22.4753 39.6714
22.6572 39.8702
22.8393 41.5668
23.0214 41.418
23.2037 42.6027
23.3859 41.9263
23.5682 39.9127
23.7505 47.8352
23.9329 37.5284
24.1154 36.4807
24.2979 35.6623
24.4805 34.9325
24.6631 35.4267
24.8458 34.8197
25.0286 34.5127
25.2114 34.7741
25.3943 35.2489
25.5773 35.0979
25.7605 33.2098
25.9436 33.0243
26.1268 32.8246
26.31 33.964
26.4933 32.9495
26.6767 32.7094
26.8601 34.1252
27.0437 32.8196
27.2272 31.6686
27.4109 31.2351
27.5946 31.11
27.7784 31.3442
27.9623 30.7581
28.1462 30.9951
28.3304 30.9989
28.5145 29.8382
28.6987 29.1906
28.8829 28.6433
29.0673 28.6125
29.2517 27.8607
29.4361 27.4592
29.6207 27.5294
29.8053 26.834
29.99 26.5964
30.1748 26.3702
30.3597 26.32
30.5447 26.0439
30.7297 25.7205
30.915 26.0808
31.1002 25.6506
31.2855 25.0693
31.4708 24.8651
31.6563 24.8667
31.8418 24.4236
32.0275 24.2907
32.2132 24.1427
32.399 23.5858
32.5848 23.2189
32.7708 22.8802
32.9569 22.81
33.143 22.5088
33.3293 22.1906
33.5158 22.1688
33.7022 21.6841
33.8887 21.3904
34.0753 21.1783
34.262 20.8483
34.4488 20.5945
34.6357 20.3025
34.8227 20.1149
35.0098 19.8885
35.1969 19.6358
35.3842 19.4622
35.5716 19.3039
35.759 19.0724
35.9468 18.8173
36.1345 18.6058
36.3222 18.3827
36.5101 18.2101
36.6981 17.9687
36.8861 17.7157
37.0743 17.3983
37.2626 17.2848
37.451 17.0236
37.6395 16.8981
37.8281 16.6653
38.0168 16.3851
38.2056 16.1884
38.3945 15.9594
38.5837 15.7722
38.7728 15.5721
38.9621 15.4438
39.1514 15.183
39.3409 14.9314
39.5304 14.8173
39.7201 14.6782
39.9099 14.4637
40.0999 14.27
40.2899 14.1168
40.48 13.8971
40.6703 13.793
40.8607 13.6671
41.0512 13.4454
41.242 13.2286
41.4327 13.0627
41.6236 12.8939
41.8146 12.7106
42.0057 12.5414
42.1969 12.3489
42.3882 12.2462
42.5797 12.0576
42.7713 11.8912
42.963 11.7161
43.1549 11.5782
43.3468 11.449
43.5389 11.3078
43.7312 11.1009
43.9237 10.9768
44.1162 10.762
44.3088 10.6247
44.5016 10.5384
44.6945 10.3453
44.8875 10.2002
45.0806 10.0721
45.2739 9.96282
45.4673 9.82071
45.6609 9.66393
45.8546 9.5327
46.0484 9.4009
46.2424 9.24644
46.4365 9.13351
46.631 8.98649
46.8254 8.84142
47.0199 8.71957
47.2146 8.6175
47.4095 8.45953
47.6044 8.35926
47.7996 8.23662
47.9948 8.07962
48.1902 7.99445
48.3858 7.91618
48.5815 7.76961
48.7774 7.67925
48.9734 7.57219
49.1696 7.40898
49.3661 7.3146
49.5626 7.19574
49.7592 7.11729
49.956 7.02098
50.153 6.88901
50.3501 6.79654
50.5474 6.69597
50.7448 6.58915
50.9424 6.51265
51.1402 6.39988
51.3381 6.31926
51.5362 6.21258
51.7344 6.09469
51.9328 6.01102
52.1316 5.86511
52.3304 5.77321
52.5293 5.67426
52.7284 5.57036
52.9276 5.50602
53.1271 5.43617
53.3267 5.33769
53.5265 5.22934
53.7264 5.13005
53.9266 5.06189
54.1269 4.92034
54.3274 4.8076
54.528 4.65848
54.7289 4.47425
54.9301 4.31233
55.1314 4.27522
55.3328 4.04171
55.5344 3.88778
55.7361 3.78912

File: Ni3Fe_FD0076.xy
TT I
1.27165 11.5904
1.45013 9.48055
1.62863 7.84495
1.80712 7.78544
1.98562 7.03083
2.16411 6.74401
2.34263 6.80043
2.52115 5.83496
2.69965 6.78463
2.87818 9.2088
3.05672 12.9102
3.23527 16.0485
3.4138 18.4638
3.59237 20.4849
3.77094 22.9595
3.9495 26.2012
4.12809 29.7162
4.30669 35.2512
4.4853 40.5121
4.6639 49.157
4.84253 62.2044
5.02118 96.9642
5.19981 665.061
5.37848 1769.73
5.55716 120.864
5.73586 97.7511
5.91455 120.007
6.09328 1101.52
6.27201 115.659
6.45075 63.1071
6.62952 53.8914
6.8083 49.4784
6.98711 47.5929
7.16591 46.7509
7.34475 46.7077
7.5236 78.5561
7.70247 49.4963
7.88135 49.3596
8.06026 53.0527
8.23919 59.7194
8.41812 77.7649
8.59709 431.21
8.77609 172.085
8.9551 79.0241
9.13412 76.5585
9.31318 190.459
9.49226 75.2378
9.67134 77.7563
9.85047 88.0046
10.0296 444.198
10.2088 1368.09
10.388 98.8706
10.5672 138.961
10.7465 125.31
10.9257 66.5236
11.105 60.9168
11.2844 57.3341
11.4637 54.8459
11.6431 53.707
11.8225 53.9704
12.002 102.863
12.1814 73.0347
12.3609 92.644
12.5405 54.6438
12.72 55.8181
12.8996 59.309
13.0792 72.436
13.2589 125.569
13.4386 306.258
13.6183 112.307
13.7981 233.712
13.9779 67.2774
14.1577 93.1219
14.3376 60.8854
14.5175 58.845
14.6974 60.1781
14.8774 93.6235
15.0574 165.747
15.2374 62.2305
15.4175 56.8932
15.5976 56.6226
15.7778 85.3859
15.958 122.93
16.1382 64.5439
16.3185 49.9266
16.4988 47.4626
16.6792 46.549
16.8596 46.9464
17.04 49.7043
17.2205 52.3663
17.401 67.6134
17.5815 50.3772
17.7622 54.704
17.9428 70.4511
18.1237 66.6792
18.3044 82.8965
18.4852 91.0996
18.666 54.1908
18.8469 50.164
19.0278 48.7074
19.2088 52.6112
19.3898 56.4602
19.5709 54.1749
19.752 46.0552
19.9332 48.9822
20.1144 49.8703
20.2957 51.9635
20.477 56.5972
20.6586 42.8179
20.84 44.1602
21.0215 41.8972
21.203 41.2041
21.3846 44.0946
21.5662 41.9592
21.7479 44.8938
21.9297 45.7985
22.1115 51.2707
22.2933 48.2882
22.4753 41.7082
22.6572 41.8505
22.8393 43.6326
23.0214 43.9103
23.2037 44.8828
23.3859 44.3119
23.5682 42.1298
23.7505 50.2685
23.9329 39.3693
24.1154 38.2421
24.2979 37.4028
24.4805 36.723
24.6631 37.1675
24.8458 36.4006
25.0286 36.2708
25.2114 36.6373
25.3943 37.0978
25.5773 37.0305
25.7605 34.8766
25.9436 34.8134
26.1268 34.6443
26.31 35.77
26.4933 34.4744
26.6767 34.4262
26.8601 35.941
27.0437 34.5615
27.2272 33.282
27.4109 32.9068
27.5946 32.6386
27.7784 33.0864
27.9623 32.4731
28.1462 32.7226
28.3304 32.4838
28.5145 31.22
28.6987 30.6226
28.8829 30.1742
29.0673 30.2115
29.2517 29.3453
29.4361 28.8789
29.6207 28.9271
29.8053 28.1049
29.99 27.9553
30.1748 27.6906
30.3597 27.6383
30.5447 27.3322
30.7297 27.245
30.915 27.4008
31.1002 26.8926
31.2855 26.2939
31.4708 26.1691
31.6563 26.2726
31.8418 25.7102
32.0275 25.4879
32.2132 25.3239
32.399 24.8171
32.5848 24.4106
32.7708 24.0748
32.9569 23.9577
33.143 23.5533
33.3293 23.4019
33.5158 23.3702
33.7022 22.7153
33.8887 22.4376
34.0753 22.3096
34.262 21.8175
34.4488 21.6124
34.6357 21.353
34.8227 21.0828
35.0098 20.8438
35.1969 20.5942
35.3842 20.4012
35.5716 20.279
35.759 20.0459
35.9468 19.7169
36.1345 19.5344
36.3222 19.3324
36.5101 19.1281
36.6981 18.9108
36.8861 18.5721
37.0743 18.3128
37.2626 18.1517
37.451 17.8942
37.6395 17.7244
37.8281 17.4668
38.0168 17.25
38.2056 17.0228
38.3945 16.854
38.5837 16.5833
38.7728 16.3982
38.9621 16.233
39.1514 15.951
39.3409 15.7668
39.5304 15.563
39.7201 15.3891
39.9099 15.2062
40.0999 15.0366
40.2899 14.8821
40.48 14.627
40.6703 14.5103
40.8607 14.2634
41.0512 14.1505
41.242 13.932
41.4327 13.724
41.6236 13.4978
41.8146 13.4042
42.0057 13.2119
42.1969 13.0537
42.3882 12.7836
42.5797 12.7219
42.7713 12.5085
42.963 12.3172
43.1549 12.2038
43.3468 11.9701
43.5389 11.8195
43.7312 11.6935
43.9237 11.5138
44.1162 11.338
44.3088 11.2177
44.5016 11.0422
44.6945 10.8855
44.8875 10.7641
45.0806 10.608
45.2739 10.4776
45.4673 10.2939
45.6609 10.1281
45.8546 10.0383
46.0484 9.9113
46.2424 9.72668
46.4365 9.6384
46.631 9.44965
46.8254 9.29127
47.0199 9.18245
47.2146 9.0228
47.4095 8.90236
47.6044 8.80555
47.7996 8.64297
47.9948 8.53432
48.1902 8.39581
48.3858 8.28632
48.5815 8.14448
48.7774 8.05337
48.9734 7.99031
49.1696 7.84301
49.3661 7.6979
49.5626 7.58901
49.7592 7.4684
49.956 7.3834
50.153 7.2783
50.3501 7.14829
50.5474 7.03243
50.7448 6.95575
50.9424 6.84303
51.1402 6.73016
51.3381 6.6031
51.5362 6.47999
51.7344 6.39973
51.9328 6.28983
52.1316 6.18174
52.3304 6.08435
52.5293 5.9682
52.7284 5.91166
52.9276 5.75791
53.1271 5.68279
53.3267 5.62356
53.5265 5.48727
53.7264 5.42874
53.9266 5.2918
54.1269 5.1781
54.3274 5.07774
54.528 4.91353
54.7289 4.74252
54.9301 4.59997
55.1314 4.46132
55.3328 4.24819
55.5344 4.13542
55.7361 4.01728

File: Ni3Fe_FD0077.xy
TT I
1.27165 11.7019
1.45013 9.00192
1.62863 7.99221
1.80712 6.80411
1.98562 7.03201
2.16411 6.64819
2.34263 5.69701
2.52115 5.27617
2.69965 6.29053
2.87818 8.5481
3.05672 12.0753
3.23527 15.7178
3.4138 18.2617
3.59237 20.8289
3.77094 23.9982
3.9495 27.2074
4.12809 30.482
4.30669 36.3184
4.4853 41.956
4.6639 50.9679
4.84253 64.0906
5.02118 98.8053
5.19981 708.7
5.37848 1649.96
5.55716 121.356
5.73586 100.364
5.91455 121.985
6.09328 1204.3
6.27201 114.768
6.45075 65.2922
6.62952 56.0655
6.8083 51.4639
6.98711 49.55
7.16591 48.5059
7.34475 48.2931
7.5236 78.0033
7.70247 51.1161
7.88135 51.4186
8.06026 55.2818
8.23919 62.6747
8.41812 81.2709
8.59709 472.966
8.77609 171.241
8.9551 82.0149
9.13412 79.1129
9.31318 176.453
9.49226 77.6956
9.67134 81.391
9.85047 92.1864
10.0296 488.189
10.2088 1429.62
10.388 102.504
10.5672 150.163
10.7465 122.815
10.9257 69.5099
11.105 63.8194
11.2844 59.8832
11.4637 57.3263
11.6431 56.1566
11.8225 56.354
12.002 99.9419
12.1814 77.9315
12.3609 94.7685
12.5405 57.0808
12.72 58.3435
12.8996 62.1701
13.0792 75.4043
13.2589 135.235
13.4386 317.158
13.6183 120.009
13.7981 239.73
13.9779 70.2772
14.1577 93.8885
14.3376 63.5314
14.5175 61.8681
14.6974 62.752
14.8774 100.402
15.0574 179.215
15.2374 64.7721
15.4175 59.4379
15.5976 59.3161
15.7778 91.3083
15.958 134.101
16.1382 65.7049
16.3185 52.226
16.4988 49.6163
16.6792 48.6075
16.8596 49.1519
17.04 51.7704
17.2205 55.2809
17.401 71.8868
17.5815 53.1794
17.7622 57.1182
17.9428 74.9201
18.1237 71.4519
18.3044 85.9692
18.4852 96.1866
18.666 56.7453
18.8469 52.4979
19.0278 51.3379
19.2088 55.4241
19.3898 58.5143
19.5709 56.3429
19.752 48.0909
19.9332 51.8181
20.1144 52.8839
20.2957 54.7458
20.477 59.1155
20.6586 44.9696
20.84 45.8266
21.0215 43.9923
21.203 43.4093
21.3846 46.3835
21.5662 44.1108
21.7479 47.5754
21.9297 48.6248
22.1115 53.4945
22.2933 50.5486
22.4753 43.8495
22.6572 43.9224
22.8393 45.8018
23.0214 46.4987
23.2037 46.8157
23.3859 46.535
23.5682 44.1436
23.7505 52.9533
23.9329 41.5745
24.1154 40.0341
24.2979 39.2799
24.4805 38.4367
24.6631 39.012
24.8458 38.3186
25.0286 38.1809
25.2114 38.5426
25.3943 39.026
25.5773 38.8047
25.7605 36.6782
25.9436 36.5451
26.1268 36.3494
26.31 37.4498
26.4933 36.3481
26.6767 36.3863
26.8601 37.8545
27.0437 36.1265
27.2272 34.8579
27.4109 34.4707
27.5946 34.4316
27.7784 34.8036
27.9623 34.1975
28.1462 34.4525
28.3304 34.1812
28.5145 32.8875
28.6987 32.2189
28.8829 31.737
29.0673 31.6499
29.2517 30.874
29.4361 30.3834
29.6207 30.3845
29.8053 29.6398
29.99 29.3896
30.1748 29.1385
30.3597 29.1196
30.5447 28.7679
30.7297 28.4799
30.915 28.8201
31.1002 28.2546
31.2855 27.7597
31.4708 27.482
31.6563 27.6835
31.8418 27.0851
32.0275 26.7952
32.2132 26.7163
32.399 26.088
32.5848 25.7416
32.7708 25.3103
32.9569 25.2351
33.143 24.7461
33.3293 24.5803
33.5158 24.4985
33.7022 23.8832
33.8887 23.5738
34.0753 23.3968
34.262 23.047
34.4488 22.7213
34.6357 22.4247
34.8227 22.1376
35.0098 21.918
35.1969 21.7134
35.3842 21.416
35.5716 21.3507
35.759 21.1568
35.9468 20.7011
36.1345 20.5465
36.3222 20.4253
36.5101 20.1348
36.6981 19.8481
36.8861 19.5969
37.0743 19.2764
37.2626 19.0722
37.451 18.8154
37.6395 18.7381
37.8281 18.3892
38.0168 18.1108
38.2056 17.9306
38.3945 17.7084
38.5837 17.4843
38.7728 17.2261
38.9621 17.0112
39.1514 16.7847
39.3409 16.5933
39.5304 16.4141
39.7201 16.172
39.9099 15.9687
40.0999 15.8378
40.2899 15.6032
40.48 15.4466
40.6703 15.1736
40.8607 15.0501
41.0512 14.8576
41.242 14.5945
41.4327 14.4194
41.6236 14.1653
41.8146 14.1116
42.0057 13.9283
42.1969 13.6707
42.3882 13.4929
42.5797 13.3178
42.7713 13.1242
42.963 12.9605
43.1549 12.8158
43.3468 12.6136
43.5389 12.399
43.7312 12.2802
43.9237 12.0856
44.1162 11.9478
44.3088 11.7197
44.5016 11.5828
44.6945 11.421
44.8875 11.2868
45.0806 11.0912
45.2739 10.9472
45.4673 10.8456
45.6609 10.6719
45.8546 10.5392
46.0484 10.3893
46.2424 10.2353
46.4365 10.1197
46.631 9.94437
46.8254 9.76988
47.0199 9.65144
47.2146 9.51027
47.4095 9.38841
47.6044 9.22313
47.7996 9.08145
47.9948 8.95171
48.1902 8.85764
48.3858 8.71899
48.5815 8.59356
48.7774 8.48735
48.9734 8.33911
49.1696 8.22985
49.3661 8.10495
49.5626 7.97996
49.7592 7.82831
49.956 7.72353
50.153 7.66539
50.3501 7.52912
50.5474 7.41769
50.7448 7.32877
50.9424 7.19182
51.1402 7.0788
51.3381 6.93868
51.5362 6.81837
51.7344 6.74898
51.9328 6.61234
52.1316 6.51644
52.3304 6.39498
52.5293 6.30588
52.7284 6.20889
52.9276 6.13536
53.1271 6.01868
53.3267 5.8611
53.5265 5.7888
53.7264 5.70338
53.9266 5.58284
54.1269 5.4588
54.3274 5.29868
54.528 5.16649
54.7289 4.98757
54.9301 4.81872
55.1314 4.68085
55.3328 4.48038
55.5344 4.38243
55.7361 4.19054

File: Ni3Fe_FD0078.xy
TT I
1.27165 11.2789
1.45013 8.86396
1.62863 7.41135
1.80712 7.36777
1.98562 6.73147
2.16411 5.89851
2.34263 5.52302
2.52115 5.13607
2.69965 6.045
2.87818 8.85747
3.05672 12.0806
3.23527 15.509
3.4138 18.9058
3.59237 21.7355
3.77094 24.3473
3.9495 27.7686
4.12809 31.4247
4.30669 36.3936
4.4853 42.9983
4.6639 52.305
4.84253 65.3578
5.02118 99.861
5.19981 734.097
5.37848 1537.07
5.55716 121.925
5.73586 101.374
5.91455 123.609
6.09328 1289.43
6.27201 114.354
6.45075 66.3218
6.62952 57.6413
6.8083 52.886
6.98711 50.5566
7.16591 49.3471
7.34475 49.7431
7.5236 76.8642
7.70247 52.2803
7.88135 52.9198
8.06026 56.7614
8.23919 64.2693
8.41812 82.8423
8.59709 506.33
8.77609 167.751
8.9551 83.4836
9.13412 80.5167
9.31318 164.377
9.49226 79.7109
9.67134 83.3908
9.85047 94.4731
10.0296 519.897
10.2088 1463.05
10.388 104.811
10.5672 159.702
10.7465 120.453
10.9257 71.3332
11.105 65.587
11.2844 61.574
11.4637 59.2442
11.6431 58.0202
11.8225 57.608
12.002 96.5177
12.1814 81.3723
12.3609 95.9749
12.5405 58.8735
12.72 60.2299
12.8996 64.2212
13.0792 77.2251
13.2589 142.307
13.4386 321.777
13.6183 126.489
13.7981 242.316
13.9779 72.3069
14.1577 93.1827
14.3376 65.096
14.5175 63.5793
14.6974 64.8198
14.8774 105.167
15.0574 188.446
15.2374 66.288
15.4175 61.3229
15.5976 60.9932
15.7778 96.0086
15.958 142.137
16.1382 66.1807
16.3185 53.6773
16.4988 51.2617
16.6792 50.1266
16.8596 50.3223
17.04 52.964
17.2205 57.0854
17.401 74.9576
17.5815 54.709
17.7622 58.6436
17.9428 78.4757
18.1237 75.2422
18.3044 88.0949
18.4852 99.8012
18.666 58.1446
18.8469 54.1662
19.0278 52.7176
19.2088 57.4004
19.3898 59.7903
19.5709 57.8814
19.752 49.3403
19.9332 53.7094
20.1144 54.8507
20.2957 56.2696
20.477 60.9302
20.6586 46.4124
20.84 47.1008
21.0215 45.436
21.203 44.7733
21.3846 47.8163
21.5662 45.2911
21.7479 49.2263
21.9297 50.3286
22.1115 54.9794
22.2933 51.779
22.4753 45.2021
22.6572 45.3685
22.8393 47.3781
23.0214 48.07
23.2037 48.2703
23.3859 48.3299
23.5682 45.6132
23.7505 54.5623
23.9329 42.5919
24.1154 41.1997
24.2979 40.3666
24.4805 39.7466
24.6631 40.1152
24.8458 39.3874
25.0286 39.4193
25.2114 39.8372
25.3943 40.2463
25.5773 39.8848
25.7605 37.7749
25.9436 37.9444
26.1268 37.5645
26.31 38.6549
26.4933 37.4011
26.6767 37.5793
26.8601 38.7948
27.0437 37.2305
27.2272 36.0205
27.4109 35.5805
27.5946 35.5077
27.7784 35.912
27.9623 35.0774
28.1462 35.6398
28.3304 35.3474
28.5145 33.8848
28.6987 33.2405
28.8829 32.6434
29.0673 32.6977
29.2517 31.7619
29.4361 31.4873
29.6207 31.357
29.8053 30.5214
29.99 30.212
30.1748 29.8978
30.3597 30.0296
30.5447 29.7043
30.7297 29.4513
30.915 29.7562
31.1002 29.1459
31.2855 28.6586
31.4708 28.3661
31.6563 28.5659
31.8418 27.9346
32.0275 27.6452
32.2132 27.496
32.399 26.9142
32.5848 26.3715
32.7708 26.1983
32.9569 26.047
33.143 25.6447
33.3293 25.3213
33.5158 25.297
33.7022 24.5933
33.8887 24.3731
34.0753 24.1259
34.262 23.7412
34.4488 23.3661
34.6357 23.0894
34.8227 22.8632
35.0098 22.6327
35.1969 22.3872
35.3842 22.194
35.5716 21.9779
35.759 21.7928
35.9468 21.4132
36.1345 21.1349
36.3222 20.9532
36.5101 20.7652
36.6981 20.4515
36.8861 20.2661
37.0743 19.9662
37.2626 19.6157
37.451 19.4446
37.6395 19.276
37.8281 19.035
38.0168 18.7612
38.2056 18.5188
38.3945 18.2412
38.5837 18.045
38.7728 17.7842
38.9621 17.5474
39.1514 17.3947
39.3409 17.1731
39.5304 16.9001
39.7201 16.7308
39.9099 16.5479
40.0999 16.3448
40.2899 16.1009
40.48 15.8913
40.6703 15.6799
40.8607 15.5449
41.0512 15.2891
41.242 15.1238
41.4327 14.9373
41.6236 14.6596
41.8146 14.5773
42.0057 14.3306
42.1969 14.109
42.3882 13.9305
42.5797 13.7648
42.7713 13.5461
42.963 13.3547
43.1549 13.1909
43.3468 12.9805
43.5389 12.8486
43.7312 12.6626
43.9237 12.5263
44.1162 12.3424
44.3088 12.1447
44.5016 11.939
44.6945 11.781
44.8875 11.6851
45.0806 11.4661
45.2739 11.3057
45.4673 11.2234
45.6609 11.0411
45.8546 10.8936
46.0484 10.7418
46.2424 10.5506
46.4365 10.4369
46.631 10.258
46.8254 10.1171
47.0199 9.92088
47.2146 9.78244
47.4095 9.64718
47.6044 9.51266
47.7996 9.39091
47.9948 9.26669
48.1902 9.13036
48.3858 8.97661
48.5815 8.84978
48.7774 8.73684
48.9734 8.61058
49.1696 8.48898
49.3661 8.36304
49.5626 8.21488
49.7592 8.13521
49.956 8.02086
50.153 7.86146
50.3501 7.73298
50.5474 7.64124
50.7448 7.53547
50.9424 7.38697
51.1402 7.30386
51.3381 7.19008
51.5362 7.06301
51.7344 6.96575
51.9328 6.84362
52.1316 6.68986
52.3304 6.61254
52.5293 6.48108
52.7284 6.37968
52.9276 6.28614
53.1271 6.20762
53.3267 6.07263
53.5265 5.93744
53.7264 5.86719
53.9266 5.74621
54.1269 5.60855
54.3274 5.50705
54.528 5.34157
54.7289 5.14736
54.9301 4.96443
55.1314 4.82389
55.3328 4.63809
55.5344 4.46526
55.7361 4.44136

File: Ni3Fe_FD0079.xy
TT I
1.27165 10.8945
1.45013 8.75511
1.62863 7.31162
1.80712 6.23452
1.98562 6.86346
2.16411 6.49595
2.34263 5.02347
2.52115 4.53142
2.69965 5.65723
2.87818 8.10862
3.05672 11.7931
3.23527 15.3812
3.4138 18.8999
3.59237 21.8217
3.77094 24.3437
3.9495 27.8863
4.12809 31.9719
4.30669 37.1081
4.4853 43.6108
4.6639 52.5808
4.84253 65.6976
5.02118 99.4161
5.19981 752.09
5.37848 1425.08
5.55716 121.405
5.73586 102.265
5.91455 123.218
6.09328 1357.94
6.27201 112.855
6.45075 66.7854
6.62952 58.0436
6.8083 53.4007
6.98711 51.3119
7.16591 50.3521
7.34475 49.9397
7.5236 75.357
7.70247 52.7169
7.88135 53.4509
8.06026 57.6276
8.23919 65.1447
8.41812 84.1279
8.59709 530.625
8.77609 163.954
8.9551 84.5243
9.13412 81.0369
9.31318 153.143
9.49226 80.984
9.67134 84.6417
9.85047 95.8885
10.0296 543.674
10.2088 1455.83
10.388 106.051
10.5672 168.097
10.7465 116.504
10.9257 72.4834
11.105 66.3769
11.2844 62.4961
11.4637 60.0997
11.6431 58.6766
11.8225 58.5022
12.002 92.8541
12.1814 83.3925
12.3609 94.7379
12.5405 59.6018
12.72 61.1543
12.8996 65.2934
13.0792 78.1629
13.2589 147.383
13.4386 317.898
13.6183 130.276
13.7981 239.617
13.9779 73.043
14.1577 91.5403
14.3376 66.1597
14.5175 64.5614
14.6974 66.0159
14.8774 108.097
15.0574 193.468
15.2374 67.045
15.4175 62.3651
15.5976 62.2248
15.7778 98.4679
15.958 147.242
16.1382 65.9733
16.3185 54.5132
16.4988 51.9944
16.6792 50.9233
16.8596 51.3111
17.04 53.3653
17.2205 58.1475
17.401 76.4956
17.5815 55.4121
17.7622 59.293
17.9428 80.1791
18.1237 77.4366
18.3044 88.4195
18.4852 101.224
18.666 58.7772
18.8469 54.9721
19.0278 53.6436
19.2088 58.4616
19.3898 60.3494
19.5709 58.1532
19.752 50.3442
19.9332 54.5923
20.1144 55.9645
20.2957 57.0802
20.477 61.7662
20.6586 47.0258
20.84 47.561
21.0215 46.0282
21.203 45.5292
21.3846 48.5708
21.5662 46.1866
21.7479 50.031
21.9297 51.4447
22.1115 55.5227
22.2933 52.5074
22.4753 45.9663
22.6572 46.1444
22.8393 47.9557
23.0214 49.0038
23.2037 48.8698
23.3859 48.914
23.5682 46.5791
23.7505 55.1383
23.9329 43.1938
24.1154 41.9186
24.2979 41.0502
24.4805 40.2932
24.6631 40.7705
24.8458 40.0925
25.0286 40.1639
25.2114 40.5791
25.3943 40.9961
25.5773 40.5206
25.7605 38.3882
25.9436 38.367
26.1268 38.1685
26.31 39.2344
26.4933 38.0128
26.6767 37.9909
26.8601 39.3542
27.0437 37.6817
27.2272 36.6261
27.4109 36.1624
27.5946 36.0437
27.7784 36.4318
27.9623 35.8377
28.1462 36.3259
28.3304 35.7918
28.5145 34.3221
28.6987 33.6837
28.8829 33.1205
29.0673 33.1603
29.2517 32.2347
29.4361 31.8725
29.6207 31.7578
29.8053 31.0596
29.99 30.7321
30.1748 30.387
30.3597 30.6754
30.5447 30.2745
30.7297 29.8776
30.915 30.1724
31.1002 29.574
31.2855 29.0471
31.4708 28.8497
31.6563 28.9933
31.8418 28.3353
32.0275 28.0344
32.2132 27.901
32.399 27.3364
32.5848 26.8192
32.7708 26.5761
32.9569 26.3281
33.143 26.0212
33.3293 25.7483
33.5158 25.7121
33.7022 24.9963
33.8887 24.7774
34.0753 24.5183
34.262 24.0942
34.4488 23.7733
34.6357 23.5839
34.8227 23.306
35.0098 22.9605
35.1969 22.7182
35.3842 22.4791
35.5716 22.3747
35.759 22.1292
35.9468 21.7864
36.1345 21.5177
36.3222 21.2918
36.5101 21.0687
36.6981 20.8277
36.8861 20.576
37.0743 20.171
37.2626 20.0076
37.451 19.7367
37.6395 19.5985
37.8281 19.3256
38.0168 19.0515
38.2056 18.7535
38.3945 18.5047
38.5837 18.3205
38.7728 18.0824
38.9621 17.8604
39.1514 17.6005
39.3409 17.3582
39.5304 17.2304
39.7201 17.0005
39.9099 16.8261
40.0999 16.5393
40.2899 16.3611
40.48 16.1325
40.6703 15.9555
40.8607 15.793
41.0512 15.5957
41.242 15.3856
41.4327 15.1153
41.6236 14.9453
41.8146 14.7657
42.0057 14.5511
42.1969 14.3603
42.3882 14.1598
42.5797 13.9842
42.7713 13.8085
42.963 13.6077
43.1549 13.4509
43.3468 13.261
43.5389 13.0854
43.7312 12.8618
43.9237 12.6639
44.1162 12.508
44.3088 12.3159
44.5016 12.1643
44.6945 12.0413
44.8875 11.8486
45.0806 11.6624
45.2739 11.5372
45.4673 11.3792
45.6609 11.2129
45.8546 11.044
46.0484 10.8531
46.2424 10.6953
46.4365 10.5953
46.631 10.4142
46.8254 10.2554
47.0199 10.1232
47.2146 9.98917
47.4095 9.8312
47.6044 9.65238
47.7996 9.51262
47.9948 9.3902
48.1902 9.26532
48.3858 9.13724
48.5815 9.03121
48.7774 8.88675
48.9734 8.7045
49.1696 8.60661
49.3661 8.47397
49.5626 8.37839
49.7592 8.25168
49.956 8.13306
50.153 7.98908
50.3501 7.87155
50.5474 7.78467
50.7448 7.65053
50.9424 7.5394
51.1402 7.41451
51.3381 7.27753
51.5362 7.18315
51.7344 7.06972
51.9328 6.92985
52.1316 6.78879
52.3304 6.70639
52.5293 6.59788
52.7284 6.47265
52.9276 6.38824
53.1271 6.29535
53.3267 6.17581
53.5265 6.01548
53.7264 5.96654
53.9266 5.84539
54.1269 5.72824
54.3274 5.58175
54.528 5.42375
54.7289 5.24785
54.9301 5.02628
55.1314 4.94092
55.3328 4.70521
55.5344 4.58003
55.7361 4.43586