Folder: NiFe_MOF_catalyst_paper/XRD (part 117)

File: Ni3Fe_FD0633.xy
TT I
1.27165 6.68573
1.45013 6.38667
1.62863 5.44004
1.80712 5.05261
1.98562 5.42794
2.16411 5.07396
2.34263 5.87791
2.52115 7.03397
2.69965 8.12096
2.87818 8.26503
3.05672 10.7454
3.23527 14.9408
3.4138 18.9005
3.59237 24.4794
3.77094 26.4151
3.9495 30.3373
4.12809 35.0123
4.30669 243.454
4.4853 68.5502
4.6639 55.6833
4.84253 67.3438
5.02118 86.9156
5.19981 340.573
5.37848 195.088
5.55716 102.084
5.73586 92.4548
5.91455 93.7737
6.09328 4391.26
6.27201 84.0792
6.45075 67.6396
6.62952 63.2943
6.8083 58.8239
6.98711 56.2292
7.16591 55.6384
7.34475 97.9754
7.5236 55.1137
7.70247 56.3042
7.88135 58.3087
8.06026 62.6515
8.23919 69.3534
8.41812 85.7135
8.59709 1131.75
8.77609 100.391
8.9551 92.7744
9.13412 82.0466
9.31318 82.3112
9.49226 84.5619
9.67134 99.9487
9.85047 99.8881
10.0296 328.851
10.2088 430.883
10.388 105.063
10.5672 501.427
10.7465 87.3078
10.9257 78.6922
11.105 72.3678
11.2844 71.1346
11.4637 65.3321
11.6431 64.3507
11.8225 62.6186
12.002 63.6185
12.1814 148.816
12.3609 72.0679
12.5405 64.8473
12.72 70.7997
12.8996 71.1687
13.0792 78.8007
13.2589 232.422
13.4386 127.68
13.6183 242.133
13.7981 100.568
13.9779 76.0649
14.1577 72.7402
14.3376 72.1041
14.5175 68.837
14.6974 70.5327
14.8774 108.764
15.0574 152.591
15.2374 71.6593
15.4175 66.5416
15.5976 65.9988
15.7778 93.8304
15.958 158.896
16.1382 63.2507
16.3185 59.2695
16.4988 55.5795
16.6792 54.7011
16.8596 55.5005
17.04 56.0096
17.2205 66.4258
17.401 72.2634
17.5815 59.3868
17.7622 61.3811
17.9428 73.1843
18.1237 139.322
18.3044 90.1487
18.4852 79.5013
18.666 60.5757
18.8469 58.2675
19.0278 57.0654
19.2088 59.9197
19.3898 76.6903
19.5709 54.621
19.752 53.5319
19.9332 56.1093
20.1144 69.7224
20.2957 63.9263
20.477 54.1841
20.6586 49.8403
20.84 49.0839
21.0215 48.7912
21.203 50.7985
21.3846 49.0921
21.5662 48.7794
21.7479 52.4626
21.9297 64.5565
22.1115 56.366
22.2933 50.0722
22.4753 49.0752
22.6572 49.0464
22.8393 51.7722
23.0214 57.6758
23.2037 49.0506
23.3859 49.9123
23.5682 56.8129
23.7505 48.6668
23.9329 45.2906
24.1154 44.1975
24.2979 43.5957
24.4805 42.9729
24.6631 43.0258
24.8458 42.2745
25.0286 43.1002
25.2114 44.7651
25.3943 44.7432
25.5773 41.1269
25.7605 40.6219
25.9436 41.0487
26.1268 41.9356
26.31 40.2051
26.4933 40.872
26.6767 42.3835
26.8601 40.6796
27.0437 39.0267
27.2272 38.8028
27.4109 38.5807
27.5946 38.4964
27.7784 37.9653
27.9623 38.6328
28.1462 38.9075
28.3304 37.4324
28.5145 36.0887
28.6987 35.7926
28.8829 35.5027
29.0673 34.8877
29.2517 34.5064
29.4361 34.3137
29.6207 33.2708
29.8053 33.0586
29.99 32.8046
30.1748 32.5643
30.3597 32.3479
30.5447 32.1921
30.7297 32.3369
30.915 31.7194
31.1002 31.3431
31.2855 31.1087
31.4708 30.8899
31.6563 30.4681
31.8418 30.1787
32.0275 30.0277
32.2132 29.5268
32.399 29.0813
32.5848 28.6669
32.7708 28.2975
32.9569 28.0877
33.143 27.8473
33.3293 27.5364
33.5158 27.1431
33.7022 26.6126
33.8887 26.3958
34.0753 26.124
34.262 25.7998
34.4488 25.4365
34.6357 25.0163
34.8227 24.8158
35.0098 24.6754
35.1969 24.3103
35.3842 24.0946
35.5716 23.9401
35.759 23.6089
35.9468 23.2662
36.1345 22.9516
36.3222 22.7498
36.5101 22.5831
36.6981 22.2072
36.8861 21.9579
37.0743 21.5802
37.2626 21.3628
37.451 21.0727
37.6395 20.9704
37.8281 20.5229
38.0168 20.2603
38.2056 20.0581
38.3945 19.7855
38.5837 19.5009
38.7728 19.3124
38.9621 19.086
39.1514 18.7684
39.3409 18.574
39.5304 18.3579
39.7201 18.1811
39.9099 17.8919
40.0999 17.676
40.2899 17.4232
40.48 17.136
40.6703 17.0447
40.8607 16.8358
41.0512 16.5858
41.242 16.3324
41.4327 16.1196
41.6236 15.8984
41.8146 15.7022
42.0057 15.5147
42.1969 15.281
42.3882 15.091
42.5797 14.9046
42.7713 14.7563
42.963 14.4842
43.1549 14.3108
43.3468 14.0965
43.5389 13.9232
43.7312 13.7457
43.9237 13.5069
44.1162 13.356
44.3088 13.1052
44.5016 12.9681
44.6945 12.7495
44.8875 12.6162
45.0806 12.4632
45.2739 12.244
45.4673 12.1113
45.6609 11.9292
45.8546 11.7492
46.0484 11.5759
46.2424 11.4302
46.4365 11.2408
46.631 11.0909
46.8254 10.9339
47.0199 10.7623
47.2146 10.6367
47.4095 10.4608
47.6044 10.3001
47.7996 10.1076
47.9948 9.99964
48.1902 9.84557
48.3858 9.68237
48.5815 9.60428
48.7774 9.41657
48.9734 9.28836
49.1696 9.11895
49.3661 8.99793
49.5626 8.91508
49.7592 8.72344
49.956 8.64285
50.153 8.48359
50.3501 8.32201
50.5474 8.18843
50.7448 8.12075
50.9424 7.98583
51.1402 7.85112
51.3381 7.70326
51.5362 7.56942
51.7344 7.49624
51.9328 7.34785
52.1316 7.20752
52.3304 7.07908
52.5293 6.97865
52.7284 6.88046
52.9276 6.75972
53.1271 6.66007
53.3267 6.52866
53.5265 6.37673
53.7264 6.30401
53.9266 6.19591
54.1269 6.08595
54.3274 5.98635
54.528 5.86352
54.7289 5.67919
54.9301 5.54914
55.1314 5.39376
55.3328 5.18844
55.5344 5.06789
55.7361 4.85574

File: Ni3Fe_FD0635.xy
TT I
1.27165 7.35263
1.45013 6.34733
1.62863 5.23084
1.80712 4.84403
1.98562 4.70051
2.16411 5.60922
2.34263 5.21028
2.52115 6.74201
2.69965 7.47632
2.87818 8.61262
3.05672 10.9169
3.23527 15.3082
3.4138 19.0136
3.59237 24.2984
3.77094 26.3378
3.9495 29.7741
4.12809 35.3773
4.30669 251.437
4.4853 69.231
4.6639 55.4103
4.84253 66.9782
5.02118 86.8631
5.19981 338.022
5.37848 196.563
5.55716 102.704
5.73586 92.58
5.91455 93.8338
6.09328 4407.2
6.27201 83.4355
6.45075 67.5047
6.62952 63.3404
6.8083 59.1757
6.98711 56.2889
7.16591 55.565
7.34475 99.0905
7.5236 55.2833
7.70247 56.1885
7.88135 57.8962
8.06026 62.1378
8.23919 69.5813
8.41812 85.074
8.59709 1125.39
8.77609 100.519
8.9551 93.0138
9.13412 82.0223
9.31318 82.4127
9.49226 84.7832
9.67134 100.039
9.85047 99.7674
10.0296 327.311
10.2088 437.125
10.388 105.045
10.5672 500.023
10.7465 87.112
10.9257 79.0558
11.105 72.1736
11.2844 71.2609
11.4637 65.2154
11.6431 63.8285
11.8225 62.5293
12.002 63.5214
12.1814 147.354
12.3609 72.2669
12.5405 64.9623
12.72 70.8829
12.8996 71.164
13.0792 78.6884
13.2589 230.633
13.4386 128.157
13.6183 241.302
13.7981 100.946
13.9779 76.0239
14.1577 72.8883
14.3376 72.2126
14.5175 68.9333
14.6974 70.5473
14.8774 108.352
15.0574 153.304
15.2374 71.6313
15.4175 66.4596
15.5976 66.0349
15.7778 93.1838
15.958 160.825
16.1382 63.458
16.3185 58.9847
16.4988 55.6903
16.6792 54.6515
16.8596 55.4411
17.04 56.0991
17.2205 66.3977
17.401 72.486
17.5815 59.1733
17.7622 61.378
17.9428 73.1898
18.1237 138.606
18.3044 90.2376
18.4852 79.7775
18.666 60.7098
18.8469 58.279
19.0278 57.2096
19.2088 59.6865
19.3898 76.7623
19.5709 54.4437
19.752 53.3238
19.9332 56.1182
20.1144 69.626
20.2957 63.7351
20.477 54.1771
20.6586 49.8859
20.84 48.9463
21.0215 48.8445
21.203 51.0991
21.3846 49.0769
21.5662 48.8306
21.7479 52.6166
21.9297 64.641
22.1115 56.3115
22.2933 50.096
22.4753 49.2348
22.6572 49.0143
22.8393 51.824
23.0214 57.8511
23.2037 49.0561
23.3859 49.7112
23.5682 56.9231
23.7505 48.6681
23.9329 45.3448
24.1154 44.3844
24.2979 43.6746
24.4805 43.0054
24.6631 43.0618
24.8458 42.2545
25.0286 42.9528
25.2114 44.732
25.3943 44.8432
25.5773 41.0494
25.7605 40.5809
25.9436 41.0278
26.1268 41.8062
26.31 40.2214
26.4933 40.8813
26.6767 42.2582
26.8601 40.5968
27.0437 38.9331
27.2272 38.6723
27.4109 38.5425
27.5946 38.4906
27.7784 37.9198
27.9623 38.43
28.1462 38.9987
28.3304 37.4042
28.5145 36.0832
28.6987 35.7998
28.8829 35.5574
29.0673 34.8805
29.2517 34.5271
29.4361 34.3199
29.6207 33.3432
29.8053 32.9897
29.99 32.6317
30.1748 32.4753
30.3597 32.3405
30.5447 32.2769
30.7297 32.3182
30.915 31.8114
31.1002 31.1796
31.2855 31.0811
31.4708 30.8403
31.6563 30.4562
31.8418 30.304
32.0275 30.0727
32.2132 29.5722
32.399 28.9457
32.5848 28.5808
32.7708 28.2484
32.9569 28.0808
33.143 27.8719
33.3293 27.4917
33.5158 27.1784
33.7022 26.7154
33.8887 26.4915
34.0753 26.0467
34.262 25.7404
34.4488 25.4712
34.6357 25.0634
34.8227 24.7871
35.0098 24.6315
35.1969 24.3395
35.3842 24.1175
35.5716 23.8781
35.759 23.5766
35.9468 23.2628
36.1345 23.0574
36.3222 22.7346
36.5101 22.4917
36.6981 22.1952
36.8861 21.9251
37.0743 21.6476
37.2626 21.4098
37.451 21.1154
37.6395 20.9813
37.8281 20.6205
38.0168 20.3848
38.2056 20.1143
38.3945 19.79
38.5837 19.5435
38.7728 19.3121
38.9621 19.095
39.1514 18.7858
39.3409 18.5444
39.5304 18.351
39.7201 18.209
39.9099 17.9763
40.0999 17.6727
40.2899 17.4299
40.48 17.1751
40.6703 17.0105
40.8607 16.8465
41.0512 16.5909
41.242 16.3102
41.4327 16.1643
41.6236 15.904
41.8146 15.7633
42.0057 15.5115
42.1969 15.2527
42.3882 15.0919
42.5797 14.9272
42.7713 14.7036
42.963 14.5045
43.1549 14.2975
43.3468 14.088
43.5389 13.8943
43.7312 13.722
43.9237 13.5522
44.1162 13.3437
44.3088 13.1907
44.5016 12.969
44.6945 12.8028
44.8875 12.6355
45.0806 12.4716
45.2739 12.2801
45.4673 12.118
45.6609 11.9169
45.8546 11.73
46.0484 11.5542
46.2424 11.4431
46.4365 11.2989
46.631 11.0572
46.8254 10.9196
47.0199 10.768
47.2146 10.6119
47.4095 10.4041
47.6044 10.3014
47.7996 10.1546
47.9948 9.97511
48.1902 9.8466
48.3858 9.71534
48.5815 9.57715
48.7774 9.43072
48.9734 9.26978
49.1696 9.15309
49.3661 8.97862
49.5626 8.84977
49.7592 8.76078
49.956 8.59384
50.153 8.48528
50.3501 8.32368
50.5474 8.2034
50.7448 8.12089
50.9424 7.96112
51.1402 7.83905
51.3381 7.72242
51.5362 7.58743
51.7344 7.48326
51.9328 7.35218
52.1316 7.17542
52.3304 7.11079
52.5293 7.00815
52.7284 6.85179
52.9276 6.74166
53.1271 6.6002
53.3267 6.49662
53.5265 6.37865
53.7264 6.27788
53.9266 6.19886
54.1269 6.10178
54.3274 5.95203
54.528 5.84346
54.7289 5.68717
54.9301 5.479
55.1314 5.45496
55.3328 5.2092
55.5344 4.98626
55.7361 4.88022

File: Ni3Fe_FD0636.xy
TT I
1.27165 7.26528
1.45013 5.79917
1.62863 5.57709
1.80712 4.42149
1.98562 4.58336
2.16411 5.20132
2.34263 5.30193
2.52115 6.46525
2.69965 8.0553
2.87818 8.59861
3.05672 11.1502
3.23527 15.3278
3.4138 18.8389
3.59237 24.2363
3.77094 26.0479
3.9495 29.8542
4.12809 34.4579
4.30669 251.617
4.4853 68.7641
4.6639 55.4187
4.84253 67.4837
5.02118 86.4908
5.19981 338.994
5.37848 195.248
5.55716 102.695
5.73586 92.5366
5.91455 93.4298
6.09328 4391.68
6.27201 84.0713
6.45075 67.5822
6.62952 63.3023
6.8083 58.969
6.98711 56.2101
7.16591 55.9683
7.34475 99.0909
7.5236 55.3435
7.70247 56.287
7.88135 58.0227
8.06026 62.7542
8.23919 69.9205
8.41812 85.7
8.59709 1126.49
8.77609 100.451
8.9551 93.154
9.13412 81.8549
9.31318 82.6333
9.49226 84.7348
9.67134 100.34
9.85047 100.06
10.0296 328.121
10.2088 435.134
10.388 105.05
10.5672 503.696
10.7465 87.2408
10.9257 79.0924
11.105 72.3175
11.2844 71.3746
11.4637 65.0167
11.6431 63.5673
11.8225 62.7907
12.002 63.4475
12.1814 148.12
12.3609 72.4242
12.5405 64.8331
12.72 71.0561
12.8996 71.0393
13.0792 78.7474
13.2589 230.676
13.4386 127.991
13.6183 240.935
13.7981 100.438
13.9779 76.1961
14.1577 72.7191
14.3376 72.2346
14.5175 68.9769
14.6974 70.5341
14.8774 108.077
15.0574 152.744
15.2374 71.8374
15.4175 66.4923
15.5976 65.8606
15.7778 93.3262
15.958 159.968
16.1382 63.4993
16.3185 59.0734
16.4988 55.773
16.6792 54.7027
16.8596 55.5381
17.04 55.8978
17.2205 66.4544
17.401 72.1215
17.5815 59.3711
17.7622 61.369
17.9428 73.0903
18.1237 138.233
18.3044 90.2146
18.4852 79.6423
18.666 60.642
18.8469 58.3181
19.0278 56.9777
19.2088 59.5824
19.3898 76.633
19.5709 54.4637
19.752 53.5083
19.9332 56.231
20.1144 69.8449
20.2957 63.3932
20.477 54.2987
20.6586 49.7395
20.84 48.9657
21.0215 48.7207
21.203 50.9087
21.3846 49.0667
21.5662 48.8531
21.7479 52.3895
21.9297 64.7166
22.1115 56.0992
22.2933 50.1989
22.4753 49.2285
22.6572 48.9485
22.8393 51.8129
23.0214 57.8131
23.2037 49.0428
23.3859 49.7624
23.5682 56.8252
23.7505 48.7045
23.9329 45.5233
24.1154 44.201
24.2979 43.7116
24.4805 43.0578
24.6631 42.9195
24.8458 42.2463
25.0286 42.8575
25.2114 44.7084
25.3943 44.9074
25.5773 41.0515
25.7605 40.6413
25.9436 40.9615
26.1268 41.8353
26.31 40.1213
26.4933 40.7752
26.6767 42.3762
26.8601 40.5655
27.0437 39.0419
27.2272 38.6117
27.4109 38.6369
27.5946 38.555
27.7784 37.9011
27.9623 38.3899
28.1462 38.8989
28.3304 37.3679
28.5145 36.1834
28.6987 35.7018
28.8829 35.5537
29.0673 34.8262
29.2517 34.4292
29.4361 34.2637
29.6207 33.2634
29.8053 33.046
29.99 32.7684
30.1748 32.5394
30.3597 32.4271
30.5447 32.2218
30.7297 32.3607
30.915 31.7602
31.1002 31.3153
31.2855 30.9719
31.4708 30.9469
31.6563 30.5487
31.8418 30.3385
32.0275 30.0144
32.2132 29.5211
32.399 29.0805
32.5848 28.6206
32.7708 28.3373
32.9569 28.1453
33.143 27.8515
33.3293 27.5522
33.5158 27.2066
33.7022 26.6636
33.8887 26.4575
34.0753 26.1219
34.262 25.7712
34.4488 25.3486
34.6357 25.0427
34.8227 24.8196
35.0098 24.6116
35.1969 24.2702
35.3842 24.0951
35.5716 23.8853
35.759 23.5777
35.9468 23.2087
36.1345 22.9207
36.3222 22.7352
36.5101 22.5449
36.6981 22.2136
36.8861 21.879
37.0743 21.713
37.2626 21.3615
37.451 21.1772
37.6395 20.9636
37.8281 20.5354
38.0168 20.2731
38.2056 19.9812
38.3945 19.7294
38.5837 19.5404
38.7728 19.313
38.9621 19.1229
39.1514 18.7988
39.3409 18.5452
39.5304 18.3152
39.7201 18.1773
39.9099 17.9173
40.0999 17.6721
40.2899 17.4032
40.48 17.17
40.6703 17.015
40.8607 16.7833
41.0512 16.5703
41.242 16.3346
41.4327 16.1764
41.6236 15.9239
41.8146 15.7839
42.0057 15.4841
42.1969 15.2986
42.3882 15.0818
42.5797 14.9329
42.7713 14.7283
42.963 14.5302
43.1549 14.3254
43.3468 14.0868
43.5389 13.9214
43.7312 13.6884
43.9237 13.5335
44.1162 13.3555
44.3088 13.1867
44.5016 12.9412
44.6945 12.8289
44.8875 12.6346
45.0806 12.4356
45.2739 12.2648
45.4673 12.1074
45.6609 11.8993
45.8546 11.7246
46.0484 11.6018
46.2424 11.3604
46.4365 11.2724
46.631 11.1078
46.8254 10.8889
47.0199 10.7426
47.2146 10.6411
47.4095 10.4403
47.6044 10.2833
47.7996 10.1474
47.9948 10.0113
48.1902 9.81865
48.3858 9.75
48.5815 9.59247
48.7774 9.42555
48.9734 9.28585
49.1696 9.08879
49.3661 8.98948
49.5626 8.82204
49.7592 8.75726
49.956 8.60226
50.153 8.48737
50.3501 8.3187
50.5474 8.19247
50.7448 8.10004
50.9424 8.00292
51.1402 7.83055
51.3381 7.69456
51.5362 7.61019
51.7344 7.46948
51.9328 7.35212
52.1316 7.23256
52.3304 7.10148
52.5293 6.97063
52.7284 6.89796
52.9276 6.76076
53.1271 6.6325
53.3267 6.55314
53.5265 6.40803
53.7264 6.29922
53.9266 6.15868
54.1269 6.0637
54.3274 5.94767
54.528 5.86137
54.7289 5.67471
54.9301 5.50019
55.1314 5.35576
55.3328 5.15338
55.5344 4.98288
55.7361 4.82809

File: Ni3Fe_FD0637.xy
TT I
1.27165 7.36144
1.45013 5.96684
1.62863 6.05674
1.80712 4.85559
1.98562 5.07186
2.16411 5.05531
2.34263 5.77198
2.52115 6.35967
2.69965 7.87933
2.87818 8.83211
3.05672 10.9436
3.23527 14.4038
3.4138 18.9445
3.59237 24.215
3.77094 26.575
3.9495 29.9046
4.12809 35.0597
4.30669 250.836
4.4853 69.5375
4.6639 55.6594
4.84253 67.8254
5.02118 86.8042
5.19981 339.664
5.37848 195.309
5.55716 102.036
5.73586 92.717
5.91455 94.0792
6.09328 4406.37
6.27201 84.1164
6.45075 67.7812
6.62952 63.4258
6.8083 58.9929
6.98711 56.3129
7.16591 55.4386
7.34475 99.3713
7.5236 55.3682
7.70247 56.2565
7.88135 58.1939
8.06026 62.3451
8.23919 69.9795
8.41812 86.4367
8.59709 1123.8
8.77609 100.468
8.9551 93.0709
9.13412 82.1138
9.31318 82.4472
9.49226 84.8237
9.67134 100.652
9.85047 100.097
10.0296 328.8
10.2088 431.019
10.388 105.227
10.5672 496.895
10.7465 87.1871
10.9257 79.2775
11.105 72.2367
11.2844 71.419
11.4637 65.404
11.6431 64.2406
11.8225 63.0178
12.002 63.5174
12.1814 148.256
12.3609 72.355
12.5405 64.8684
12.72 70.8331
12.8996 71.1142
13.0792 78.7974
13.2589 231.329
13.4386 127.571
13.6183 241.83
13.7981 100.551
13.9779 75.9424
14.1577 72.8615
14.3376 72.3619
14.5175 68.8481
14.6974 70.5324
14.8774 108.292
15.0574 151.555
15.2374 72.0236
15.4175 66.6021
15.5976 66.1694
15.7778 93.5126
15.958 159.113
16.1382 63.4862
16.3185 59.1842
16.4988 55.758
16.6792 54.6759
16.8596 55.6005
17.04 55.8797
17.2205 66.4308
17.401 72.09
17.5815 59.5152
17.7622 61.2659
17.9428 73.11
18.1237 138.642
18.3044 89.9198
18.4852 79.1326
18.666 60.7498
18.8469 58.2954
19.0278 57.0975
19.2088 59.7126
19.3898 76.7273
19.5709 54.5714
19.752 53.5375
19.9332 56.2647
20.1144 69.8317
20.2957 63.5896
20.477 54.1234
20.6586 49.8598
20.84 49.0692
21.0215 48.6632
21.203 51.0272
21.3846 49.2231
21.5662 48.9195
21.7479 52.6233
21.9297 64.6479
22.1115 56.0751
22.2933 50.0418
22.4753 49.1371
22.6572 48.9908
22.8393 51.7836
23.0214 57.673
23.2037 48.9963
23.3859 49.8661
23.5682 56.8141
23.7505 48.5765
23.9329 45.4095
24.1154 44.1972
24.2979 43.6066
24.4805 43.0168
24.6631 42.9655
24.8458 42.4252
25.0286 42.9765
25.2114 44.6691
25.3943 44.7129
25.5773 41.174
25.7605 40.666
25.9436 40.9002
26.1268 41.8398
26.31 40.278
26.4933 40.8649
26.6767 42.329
26.8601 40.6518
27.0437 39.0285
27.2272 38.6738
27.4109 38.626
27.5946 38.5199
27.7784 37.9123
27.9623 38.5338
28.1462 38.9495
28.3304 37.2824
28.5145 36.0676
28.6987 35.7715
28.8829 35.5776
29.0673 34.7888
29.2517 34.4466
29.4361 34.2373
29.6207 33.3428
29.8053 33.0497
29.99 32.7302
30.1748 32.5436
30.3597 32.4049
30.5447 32.2384
30.7297 32.3435
30.915 31.7237
31.1002 31.2328
31.2855 30.9646
31.4708 30.8488
31.6563 30.5803
31.8418 30.2645
32.0275 30.0777
32.2132 29.4477
32.399 29.0823
32.5848 28.6289
32.7708 28.3381
32.9569 28.1749
33.143 27.9172
33.3293 27.5205
33.5158 27.15
33.7022 26.6837
33.8887 26.3959
34.0753 26.0823
34.262 25.6878
34.4488 25.4158
34.6357 25.0861
34.8227 24.8561
35.0098 24.5309
35.1969 24.3229
35.3842 24.0858
35.5716 23.8659
35.759 23.5992
35.9468 23.2457
36.1345 22.9963
36.3222 22.7726
36.5101 22.4712
36.6981 22.2092
36.8861 21.8996
37.0743 21.6602
37.2626 21.3231
37.451 21.1107
37.6395 20.9407
37.8281 20.5566
38.0168 20.2647
38.2056 20.008
38.3945 19.7436
38.5837 19.5529
38.7728 19.2862
38.9621 19.0816
39.1514 18.824
39.3409 18.541
39.5304 18.3465
39.7201 18.1559
39.9099 17.9789
40.0999 17.6585
40.2899 17.4474
40.48 17.1863
40.6703 16.9988
40.8607 16.8059
41.0512 16.6513
41.242 16.3343
41.4327 16.1162
41.6236 15.9328
41.8146 15.7399
42.0057 15.4585
42.1969 15.2769
42.3882 15.1181
42.5797 14.9025
42.7713 14.6969
42.963 14.5091
43.1549 14.3106
43.3468 14.0896
43.5389 13.883
43.7312 13.6779
43.9237 13.5256
44.1162 13.2955
44.3088 13.1545
44.5016 12.9468
44.6945 12.8261
44.8875 12.6062
45.0806 12.4099
45.2739 12.2314
45.4673 12.107
45.6609 11.8854
45.8546 11.7551
46.0484 11.5766
46.2424 11.439
46.4365 11.2404
46.631 11.0819
46.8254 10.9264
47.0199 10.7354
47.2146 10.5646
47.4095 10.4627
47.6044 10.2865
47.7996 10.1411
47.9948 9.9915
48.1902 9.82251
48.3858 9.71764
48.5815 9.56575
48.7774 9.42849
48.9734 9.28251
49.1696 9.12881
49.3661 9.01878
49.5626 8.85146
49.7592 8.76754
49.956 8.5981
50.153 8.51568
50.3501 8.32247
50.5474 8.22918
50.7448 8.10525
50.9424 7.94109
51.1402 7.82493
51.3381 7.71276
51.5362 7.61875
51.7344 7.48867
51.9328 7.36505
52.1316 7.21954
52.3304 7.09822
52.5293 6.98814
52.7284 6.87591
52.9276 6.74258
53.1271 6.68462
53.3267 6.51579
53.5265 6.44703
53.7264 6.31549
53.9266 6.15434
54.1269 6.09305
54.3274 5.95371
54.528 5.81841
54.7289 5.6989
54.9301 5.55922
55.1314 5.34439
55.3328 5.11279
55.5344 4.99295
55.7361 4.80835

File: Ni3Fe_FD0638.xy
TT I
1.27165 7.65974
1.45013 5.68634
1.62863 5.45653
1.80712 4.69447
1.98562 5.33589
2.16411 5.37971
2.34263 5.62463
2.52115 6.96896
2.69965 8.03323
2.87818 9.16842
3.05672 11.3429
3.23527 14.8842
3.4138 19.0931
3.59237 24.5236
3.77094 26.3263
3.9495 29.9228
4.12809 34.9499
4.30669 256.049
4.4853 69.6746
4.6639 55.3057
4.84253 67.4952
5.02118 86.3001
5.19981 336.704
5.37848 196.032
5.55716 102.1
5.73586 92.0633
5.91455 93.5653
6.09328 4381.52
6.27201 84.6492
6.45075 67.1238
6.62952 63.4053
6.8083 59.305
6.98711 56.2344
7.16591 55.8249
7.34475 100.661
7.5236 55.2687
7.70247 56.4593
7.88135 57.9873
8.06026 62.6192
8.23919 69.9287
8.41812 85.843
8.59709 1119.9
8.77609 100.5
8.9551 92.9551
9.13412 82.2589
9.31318 82.5591
9.49226 84.4632
9.67134 100.71
9.85047 99.7375
10.0296 326.863
10.2088 436.082
10.388 105.052
10.5672 500.068
10.7465 87.0035
10.9257 79.0016
11.105 72.267
11.2844 71.3611
11.4637 65.2628
11.6431 64.1691
11.8225 62.8871
12.002 63.7172
12.1814 147.41
12.3609 72.3508
12.5405 64.9059
12.72 71.1871
12.8996 71.0021
13.0792 78.6026
13.2589 229.744
13.4386 127.679
13.6183 240.818
13.7981 100.764
13.9779 76.0249
14.1577 73.0687
14.3376 72.3923
14.5175 68.8737
14.6974 70.7105
14.8774 108.012
15.0574 152.622
15.2374 71.927
15.4175 66.4546
15.5976 65.973
15.7778 93.1659
15.958 159.824
16.1382 63.7243
16.3185 59.1082
16.4988 55.7208
16.6792 54.6503
16.8596 55.6632
17.04 55.8399
17.2205 66.4537
17.401 72.2783
17.5815 59.2164
17.7622 61.3039
17.9428 72.9888
18.1237 138.252
18.3044 89.8494
18.4852 79.3466
18.666 60.6895
18.8469 58.2475
19.0278 57.1048
19.2088 59.5657
19.3898 76.7465
19.5709 54.4379
19.752 53.5011
19.9332 56.1997
20.1144 69.9496
20.2957 63.6693
20.477 54.0497
20.6586 49.8224
20.84 49.1941
21.0215 48.7496
21.203 50.836
21.3846 49.1881
21.5662 48.8896
21.7479 52.3672
21.9297 64.7834
22.1115 56.123
22.2933 50.0903
22.4753 49.2034
22.6572 48.9002
22.8393 51.655
23.0214 57.8753
23.2037 48.9624
23.3859 49.6343
23.5682 56.8647
23.7505 48.556
23.9329 45.4889
24.1154 44.2053
24.2979 43.68
24.4805 43.082
24.6631 42.8872
24.8458 42.1559
25.0286 42.768
25.2114 44.841
25.3943 44.8047
25.5773 41.2206
25.7605 40.6478
25.9436 41.0045
26.1268 41.7499
26.31 40.3268
26.4933 40.8031
26.6767 42.3251
26.8601 40.6966
27.0437 39.0547
27.2272 38.6575
27.4109 38.3804
27.5946 38.4971
27.7784 37.9225
27.9623 38.4996
28.1462 38.9468
28.3304 37.345
28.5145 36.1213
28.6987 35.6916
28.8829 35.5686
29.0673 34.784
29.2517 34.3574
29.4361 34.3183
29.6207 33.2946
29.8053 32.8902
29.99 32.6527
30.1748 32.5348
30.3597 32.3993
30.5447 32.2513
30.7297 32.3558
30.915 31.7991
31.1002 31.2592
31.2855 30.9857
31.4708 30.8595
31.6563 30.5356
31.8418 30.2339
32.0275 30.0756
32.2132 29.5739
32.399 29.1035
32.5848 28.6127
32.7708 28.265
32.9569 28.1754
33.143 27.8968
33.3293 27.5371
33.5158 27.1577
33.7022 26.6433
33.8887 26.3986
34.0753 26.0408
34.262 25.7847
34.4488 25.4836
34.6357 25.0523
34.8227 24.8142
35.0098 24.603
35.1969 24.2679
35.3842 24.1564
35.5716 23.8463
35.759 23.5425
35.9468 23.184
36.1345 23.0153
36.3222 22.7966
36.5101 22.568
36.6981 22.2487
36.8861 21.9141
37.0743 21.5872
37.2626 21.3595
37.451 21.1001
37.6395 20.8842
37.8281 20.6376
38.0168 20.3105
38.2056 20.0773
38.3945 19.6895
38.5837 19.5824
38.7728 19.2668
38.9621 19.0541
39.1514 18.7463
39.3409 18.5406
39.5304 18.4199
39.7201 18.0877
39.9099 17.9265
40.0999 17.6963
40.2899 17.4106
40.48 17.2328
40.6703 17.0227
40.8607 16.8356
41.0512 16.5656
41.242 16.363
41.4327 16.1579
41.6236 15.8854
41.8146 15.7135
42.0057 15.4921
42.1969 15.3002
42.3882 15.0945
42.5797 14.8613
42.7713 14.7433
42.963 14.441
43.1549 14.3215
43.3468 14.0904
43.5389 13.9042
43.7312 13.7084
43.9237 13.5207
44.1162 13.3621
44.3088 13.1731
44.5016 12.9911
44.6945 12.7474
44.8875 12.6321
45.0806 12.4211
45.2739 12.2384
45.4673 12.0976
45.6609 11.8875
45.8546 11.7966
46.0484 11.5884
46.2424 11.4381
46.4365 11.268
46.631 11.0614
46.8254 10.9125
47.0199 10.7506
47.2146 10.6441
47.4095 10.4338
47.6044 10.2777
47.7996 10.1527
47.9948 9.97559
48.1902 9.83281
48.3858 9.72424
48.5815 9.60423
48.7774 9.43082
48.9734 9.30775
49.1696 9.13742
49.3661 9.00809
49.5626 8.86918
49.7592 8.74838
49.956 8.6523
50.153 8.49893
50.3501 8.31074
50.5474 8.21514
50.7448 8.08981
50.9424 7.98475
51.1402 7.84015
51.3381 7.72004
51.5362 7.59408
51.7344 7.46698
51.9328 7.34503
52.1316 7.20082
52.3304 7.06217
52.5293 6.96842
52.7284 6.9005
52.9276 6.763
53.1271 6.62757
53.3267 6.52638
53.5265 6.42375
53.7264 6.30934
53.9266 6.20951
54.1269 6.11606
54.3274 5.98972
54.528 5.82982
54.7289 5.67991
54.9301 5.4536
55.1314 5.38173
55.3328 5.15994
55.5344 4.9772
55.7361 4.85161