Folder: NiFe_MOF_catalyst_paper/XRD (part 46)

File: Ni3Fe_FD0235.xy
TT I
1.27165 7.75647
1.45013 6.91249
1.62863 6.16011
1.80712 5.5423
1.98562 5.10017
2.16411 4.18554
2.34263 4.98938
2.52115 4.71141
2.69965 6.06454
2.87818 8.01553
3.05672 10.9415
3.23527 14.9704
3.4138 18.8846
3.59237 22.4561
3.77094 25.8156
3.9495 29.9697
4.12809 34.719
4.30669 40.7913
4.4853 48.909
4.6639 58.2054
4.84253 71.7413
5.02118 96.4425
5.19981 888.2
5.37848 273.812
5.55716 111.898
5.73586 101.305
5.91455 110.087
6.09328 3673.15
6.27201 88.7486
6.45075 71.1423
6.62952 64.1515
6.8083 59.9361
6.98711 57.4197
7.16591 56.4412
7.34475 55.9897
7.5236 56.0575
7.70247 58.2704
7.88135 60.4382
8.06026 65.6804
8.23919 73.3287
8.41812 90.2588
8.59709 1074.03
8.77609 110.797
8.9551 90.7678
9.13412 86.545
9.31318 88.3284
9.49226 89.6853
9.67134 95.7009
9.85047 106.88
10.0296 517.369
10.2088 556.502
10.388 115.203
10.5672 451.375
10.7465 92.2699
10.9257 80.5341
11.105 74.6632
11.2844 70.6965
11.4637 67.5366
11.6431 66.4276
11.8225 65.1867
12.002 68.5794
12.1814 142.197
12.3609 70.1421
12.5405 67.3241
12.72 69.8072
12.8996 74.5794
13.0792 86.1657
13.2589 230.397
13.4386 149.722
13.6183 227.092
13.7981 110.479
13.9779 80.1647
14.1577 75.3147
14.3376 73.1543
14.5175 72.5449
14.6974 74.8253
14.8774 119.894
15.0574 169.838
15.2374 72.4751
15.4175 69.826
15.5976 69.933
15.7778 103.904
15.958 174.242
16.1382 63.8672
16.3185 60.3273
16.4988 58.0692
16.6792 57.021
16.8596 57.311
17.04 59.3526
17.2205 68.9555
17.401 77.0575
17.5815 62.1221
17.7622 64.526
17.9428 82.6067
18.1237 139.108
18.3044 90.5758
18.4852 83.0842
18.666 63.3066
18.8469 60.7888
19.0278 59.5783
19.2088 62.8964
19.3898 76.4093
19.5709 56.8855
19.752 56.1211
19.9332 59.6655
20.1144 72.7541
20.2957 64.4796
20.477 56.598
20.6586 52.1673
20.84 51.2436
21.0215 51.2579
21.203 52.3324
21.3846 51.5004
21.5662 51.6748
21.7479 55.5127
21.9297 66.7663
22.1115 57.8684
22.2933 52.6445
22.4753 50.8862
22.6572 51.8489
22.8393 54.2996
23.0214 59.8898
23.2037 51.3467
23.3859 52.5888
23.5682 57.7446
23.7505 51.1297
23.9329 47.4125
24.1154 46.1104
24.2979 45.374
24.4805 44.9073
24.6631 44.7354
24.8458 44.3523
25.0286 45.0351
25.2114 46.5573
25.3943 46.7559
25.5773 42.8934
25.7605 42.4452
25.9436 42.5836
26.1268 43.5094
26.31 42.2933
26.4933 42.5173
26.6767 43.9872
26.8601 42.2641
27.0437 40.7341
27.2272 40.4025
27.4109 40.0385
27.5946 40.2715
27.7784 39.7424
27.9623 40.0581
28.1462 40.5166
28.3304 38.9993
28.5145 37.6802
28.6987 37.2946
28.8829 37.0424
29.0673 36.2904
29.2517 35.7357
29.4361 35.7786
29.6207 34.6589
29.8053 34.3798
29.99 34.0982
30.1748 33.8926
30.3597 33.8082
30.5447 33.6253
30.7297 33.5288
30.915 33.2396
31.1002 32.6687
31.2855 32.4022
31.4708 32.1475
31.6563 31.7905
31.8418 31.4823
32.0275 31.3309
32.2132 30.7314
32.399 30.3196
32.5848 29.7531
32.7708 29.4424
32.9569 29.2899
33.143 29.0788
33.3293 28.6469
33.5158 28.2862
33.7022 27.8238
33.8887 27.5021
34.0753 27.2396
34.262 26.7554
34.4488 26.4642
34.6357 26.0785
34.8227 25.7946
35.0098 25.5341
35.1969 25.2619
35.3842 25.0508
35.5716 24.8019
35.759 24.5605
35.9468 24.1463
36.1345 23.9312
36.3222 23.6873
36.5101 23.454
36.6981 23.1132
36.8861 22.8713
37.0743 22.4668
37.2626 22.2014
37.451 21.9071
37.6395 21.7552
37.8281 21.3976
38.0168 21.0401
38.2056 20.8256
38.3945 20.5746
38.5837 20.2937
38.7728 20.0536
38.9621 19.7248
39.1514 19.5786
39.3409 19.26
39.5304 18.9587
39.7201 18.8358
39.9099 18.5901
40.0999 18.3552
40.2899 18.1391
40.48 17.88
40.6703 17.7139
40.8607 17.4833
41.0512 17.2678
41.242 17.0086
41.4327 16.8248
41.6236 16.5362
41.8146 16.3754
42.0057 16.1241
42.1969 15.9074
42.3882 15.6942
42.5797 15.4771
42.7713 15.2265
42.963 15.0393
43.1549 14.8827
43.3468 14.6722
43.5389 14.4751
43.7312 14.1891
43.9237 14.0487
44.1162 13.8447
44.3088 13.6465
44.5016 13.4636
44.6945 13.2836
44.8875 13.0659
45.0806 12.9141
45.2739 12.6869
45.4673 12.5404
45.6609 12.3789
45.8546 12.1955
46.0484 12.0012
46.2424 11.8566
46.4365 11.6412
46.631 11.4996
46.8254 11.3388
47.0199 11.1516
47.2146 11.0209
47.4095 10.8124
47.6044 10.6669
47.7996 10.5198
47.9948 10.3439
48.1902 10.1938
48.3858 10.0559
48.5815 9.92105
48.7774 9.81698
48.9734 9.63168
49.1696 9.46996
49.3661 9.37643
49.5626 9.18974
49.7592 9.05182
49.956 8.92405
50.153 8.79393
50.3501 8.67046
50.5474 8.54103
50.7448 8.40495
50.9424 8.24724
51.1402 8.11903
51.3381 7.99804
51.5362 7.89949
51.7344 7.73877
51.9328 7.58257
52.1316 7.46412
52.3304 7.35818
52.5293 7.27766
52.7284 7.14839
52.9276 7.03887
53.1271 6.90609
53.3267 6.77764
53.5265 6.66248
53.7264 6.5379
53.9266 6.38896
54.1269 6.32779
54.3274 6.17138
54.528 6.01769
54.7289 5.86658
54.9301 5.6691
55.1314 5.53048
55.3328 5.27
55.5344 5.10073
55.7361 4.9878

File: Ni3Fe_FD0236.xy
TT I
1.27165 8.49647
1.45013 6.39197
1.62863 6.38414
1.80712 4.98482
1.98562 4.80544
2.16411 4.61695
2.34263 4.63195
2.52115 5.01119
2.69965 6.3238
2.87818 8.07621
3.05672 10.7321
3.23527 14.9926
3.4138 19.0063
3.59237 22.4021
3.77094 25.9864
3.9495 30.077
4.12809 35.1119
4.30669 40.4176
4.4853 48.8627
4.6639 58.6065
4.84253 72.074
5.02118 97.0939
5.19981 892.024
5.37848 272.608
5.55716 112.653
5.73586 101.172
5.91455 109.959
6.09328 3688.47
6.27201 89.1793
6.45075 71.201
6.62952 64.3796
6.8083 60.0353
6.98711 57.4288
7.16591 57.1602
7.34475 55.8927
7.5236 56.1999
7.70247 58.0991
7.88135 60.2853
8.06026 65.3623
8.23919 73.6601
8.41812 90.6812
8.59709 1080.64
8.77609 110.734
8.9551 90.776
9.13412 87.0176
9.31318 88.7437
9.49226 89.8085
9.67134 95.6163
9.85047 107.105
10.0296 517.943
10.2088 548.385
10.388 115.625
10.5672 453.263
10.7465 92.2455
10.9257 80.8001
11.105 75.0799
11.2844 70.7174
11.4637 67.7397
11.6431 66.2658
11.8225 65.5505
12.002 68.9017
12.1814 142.391
12.3609 69.9476
12.5405 67.4143
12.72 69.7994
12.8996 74.7137
13.0792 86.4557
13.2589 231.355
13.4386 148.406
13.6183 228.021
13.7981 110.08
13.9779 80.0182
14.1577 75.2561
14.3376 73.2443
14.5175 72.7807
14.6974 74.595
14.8774 120.454
15.0574 168.555
15.2374 72.4546
15.4175 69.858
15.5976 69.9163
15.7778 103.843
15.958 173.003
16.1382 63.9228
16.3185 60.1269
16.4988 57.9763
16.6792 57.1354
16.8596 57.533
17.04 59.5104
17.2205 68.9515
17.401 76.6046
17.5815 62.2312
17.7622 64.569
17.9428 82.6988
18.1237 138.986
18.3044 90.3376
18.4852 82.8421
18.666 63.2946
18.8469 60.7759
19.0278 59.6975
19.2088 62.9193
19.3898 76.2829
19.5709 56.9368
19.752 56.0279
19.9332 59.5425
20.1144 72.6056
20.2957 64.5408
20.477 56.7126
20.6586 52.1133
20.84 51.3245
21.0215 51.125
21.203 52.4826
21.3846 51.5901
21.5662 51.7047
21.7479 55.694
21.9297 66.6205
22.1115 57.6392
22.2933 52.5968
22.4753 50.8003
22.6572 51.9099
22.8393 54.1385
23.0214 59.7142
23.2037 51.4521
23.3859 52.6625
23.5682 57.6243
23.7505 51.0862
23.9329 47.4393
24.1154 46.1257
24.2979 45.4262
24.4805 44.8391
24.6631 44.8876
24.8458 44.4423
25.0286 44.9608
25.2114 46.4023
25.3943 46.4581
25.5773 42.8362
25.7605 42.3884
25.9436 42.5739
26.1268 43.6144
26.31 42.2724
26.4933 42.5251
26.6767 43.7997
26.8601 42.3476
27.0437 40.7282
27.2272 40.374
27.4109 40.1832
27.5946 40.1549
27.7784 39.8144
27.9623 39.9291
28.1462 40.5772
28.3304 38.9888
28.5145 37.5863
28.6987 37.2624
28.8829 36.9858
29.0673 36.4057
29.2517 35.958
29.4361 35.6023
29.6207 34.6696
29.8053 34.4128
29.99 34.1036
30.1748 33.9165
30.3597 33.7182
30.5447 33.5822
30.7297 33.5476
30.915 33.1788
31.1002 32.5615
31.2855 32.2913
31.4708 32.1908
31.6563 31.7877
31.8418 31.4121
32.0275 31.2236
32.2132 30.5726
32.399 30.2538
32.5848 29.7812
32.7708 29.3322
32.9569 29.4032
33.143 29.0249
33.3293 28.6521
33.5158 28.294
33.7022 27.8264
33.8887 27.5464
34.0753 27.1278
34.262 26.8229
34.4488 26.4705
34.6357 26.0864
34.8227 25.8647
35.0098 25.5949
35.1969 25.328
35.3842 25.1125
35.5716 24.8539
35.759 24.5137
35.9468 24.1252
36.1345 23.8972
36.3222 23.7391
36.5101 23.4324
36.6981 23.0496
36.8861 22.7917
37.0743 22.3935
37.2626 22.1768
37.451 21.914
37.6395 21.7692
37.8281 21.4421
38.0168 21.1357
38.2056 20.8277
38.3945 20.4914
38.5837 20.2617
38.7728 20.115
38.9621 19.8059
39.1514 19.519
39.3409 19.3174
39.5304 19.0073
39.7201 18.8472
39.9099 18.6533
40.0999 18.3509
40.2899 18.1598
40.48 17.8566
40.6703 17.6924
40.8607 17.514
41.0512 17.2551
41.242 16.9648
41.4327 16.8616
41.6236 16.4978
41.8146 16.3915
42.0057 16.1056
42.1969 15.8674
42.3882 15.6777
42.5797 15.5108
42.7713 15.2659
42.963 15.0434
43.1549 14.8317
43.3468 14.6017
43.5389 14.472
43.7312 14.1811
43.9237 14.0089
44.1162 13.8478
44.3088 13.601
44.5016 13.4278
44.6945 13.2896
44.8875 13.0824
45.0806 12.8943
45.2739 12.7035
45.4673 12.5515
45.6609 12.3318
45.8546 12.1976
46.0484 12.0078
46.2424 11.8132
46.4365 11.6464
46.631 11.4787
46.8254 11.2706
47.0199 11.1418
47.2146 11.022
47.4095 10.8264
47.6044 10.6568
47.7996 10.5036
47.9948 10.3585
48.1902 10.2289
48.3858 10.0855
48.5815 9.92656
48.7774 9.78423
48.9734 9.65508
49.1696 9.48517
49.3661 9.36161
49.5626 9.21152
49.7592 9.07812
49.956 8.91274
50.153 8.77858
50.3501 8.64922
50.5474 8.50793
50.7448 8.39604
50.9424 8.2512
51.1402 8.13249
51.3381 7.99403
51.5362 7.85519
51.7344 7.71787
51.9328 7.5974
52.1316 7.45228
52.3304 7.37031
52.5293 7.24796
52.7284 7.18035
52.9276 7.00626
53.1271 6.87867
53.3267 6.76385
53.5265 6.63644
53.7264 6.53801
53.9266 6.42744
54.1269 6.31832
54.3274 6.15659
54.528 6.02251
54.7289 5.85369
54.9301 5.71501
55.1314 5.5021
55.3328 5.29868
55.5344 5.12763
55.7361 5.0166

File: Ni3Fe_FD0237.xy
TT I
1.27165 8.12587
1.45013 6.60889
1.62863 5.64004
1.80712 5.22828
1.98562 4.55413
2.16411 5.16853
2.34263 4.37912
2.52115 5.24981
2.69965 6.07466
2.87818 7.9985
3.05672 10.6402
3.23527 15.0037
3.4138 19.3269
3.59237 22.5002
3.77094 26.3743
3.9495 30.1496
4.12809 34.8077
4.30669 40.5107
4.4853 48.6359
4.6639 58.1603
4.84253 72.0078
5.02118 96.2385
5.19981 894.45
5.37848 269.692
5.55716 112.308
5.73586 100.81
5.91455 109.938
6.09328 3687.14
6.27201 88.9719
6.45075 71.3468
6.62952 64.3484
6.8083 60.1683
6.98711 57.5647
7.16591 56.6998
7.34475 55.5617
7.5236 56.1018
7.70247 58.4161
7.88135 60.2406
8.06026 65.3544
8.23919 73.0218
8.41812 90.792
8.59709 1081.04
8.77609 111.377
8.9551 91.0315
9.13412 86.4562
9.31318 88.2678
9.49226 89.5904
9.67134 95.3705
9.85047 106.946
10.0296 516.741
10.2088 542.055
10.388 115.163
10.5672 455.733
10.7465 92.6437
10.9257 80.699
11.105 75.0251
11.2844 70.8696
11.4637 67.8444
11.6431 66.3698
11.8225 65.3629
12.002 68.9381
12.1814 142.243
12.3609 69.7071
12.5405 67.3802
12.72 69.85
12.8996 74.8496
13.0792 86.6835
13.2589 231.513
13.4386 148.481
13.6183 227.834
13.7981 109.447
13.9779 79.9715
14.1577 75.5408
14.3376 73.0424
14.5175 72.7815
14.6974 74.6419
14.8774 120.161
15.0574 169.274
15.2374 72.4983
15.4175 69.8264
15.5976 69.9138
15.7778 103.801
15.958 173.364
16.1382 63.6645
16.3185 60.0449
16.4988 58.0016
16.6792 57.0168
16.8596 57.3796
17.04 59.6647
17.2205 69.1124
17.401 76.4614
17.5815 62.2502
17.7622 64.5443
17.9428 82.7048
18.1237 139.339
18.3044 90.2418
18.4852 82.9036
18.666 63.4904
18.8469 60.9786
19.0278 59.6337
19.2088 62.942
19.3898 76.383
19.5709 57.1469
19.752 56.0075
19.9332 59.647
20.1144 72.6727
20.2957 64.5518
20.477 56.5115
20.6586 51.9885
20.84 51.341
21.0215 51.1479
21.203 52.5274
21.3846 51.4657
21.5662 51.8107
21.7479 55.589
21.9297 66.7821
22.1115 57.6359
22.2933 52.4416
22.4753 51.07
22.6572 51.8625
22.8393 54.104
23.0214 59.9972
23.2037 51.319
23.3859 52.5376
23.5682 57.7421
23.7505 51.0725
23.9329 47.467
24.1154 46.0561
24.2979 45.5275
24.4805 44.9457
24.6631 44.8517
24.8458 44.454
25.0286 45.0651
25.2114 46.6213
25.3943 46.7162
25.5773 42.9677
25.7605 42.4777
25.9436 42.6365
26.1268 43.5513
26.31 42.1126
26.4933 42.5875
26.6767 43.978
26.8601 42.2705
27.0437 40.7345
27.2272 40.4539
27.4109 40.0662
27.5946 40.2842
27.7784 39.7784
27.9623 39.9508
28.1462 40.4108
28.3304 38.7939
28.5145 37.5822
28.6987 37.2324
28.8829 36.9439
29.0673 36.2835
29.2517 35.7394
29.4361 35.5953
29.6207 34.6936
29.8053 34.31
29.99 34.0049
30.1748 33.7798
30.3597 33.759
30.5447 33.5004
30.7297 33.6526
30.915 33.04
31.1002 32.6356
31.2855 32.2513
31.4708 32.2207
31.6563 31.748
31.8418 31.5759
32.0275 31.2773
32.2132 30.7722
32.399 30.1974
32.5848 29.7122
32.7708 29.4559
32.9569 29.2352
33.143 29.0747
33.3293 28.5879
33.5158 28.3005
33.7022 27.7889
33.8887 27.506
34.0753 27.2228
34.262 26.7714
34.4488 26.4787
34.6357 26.0491
34.8227 25.6973
35.0098 25.5575
35.1969 25.2743
35.3842 25.0204
35.5716 24.7927
35.759 24.5242
35.9468 24.1557
36.1345 23.8776
36.3222 23.6882
36.5101 23.4971
36.6981 23.0426
36.8861 22.7946
37.0743 22.4741
37.2626 22.2298
37.451 21.8991
37.6395 21.7968
37.8281 21.4255
38.0168 21.0743
38.2056 20.8018
38.3945 20.5323
38.5837 20.3625
38.7728 20.0836
38.9621 19.8184
39.1514 19.503
39.3409 19.2847
39.5304 19.0466
39.7201 18.8104
39.9099 18.6541
40.0999 18.3704
40.2899 18.1818
40.48 17.9
40.6703 17.6896
40.8607 17.4697
41.0512 17.1849
41.242 16.9989
41.4327 16.7463
41.6236 16.5268
41.8146 16.3556
42.0057 16.0896
42.1969 15.8978
42.3882 15.6923
42.5797 15.4853
42.7713 15.3408
42.963 15.0679
43.1549 14.8492
43.3468 14.6507
43.5389 14.4669
43.7312 14.1631
43.9237 14.0426
44.1162 13.8575
44.3088 13.6251
44.5016 13.4509
44.6945 13.3115
44.8875 13.0799
45.0806 12.9043
45.2739 12.7387
45.4673 12.5661
45.6609 12.3563
45.8546 12.1565
46.0484 12.0192
46.2424 11.8641
46.4365 11.6837
46.631 11.4745
46.8254 11.2594
47.0199 11.1602
47.2146 10.9958
47.4095 10.856
47.6044 10.66
47.7996 10.5256
47.9948 10.3691
48.1902 10.1932
48.3858 10.0739
48.5815 9.89138
48.7774 9.78786
48.9734 9.65123
49.1696 9.50218
49.3661 9.32518
49.5626 9.17829
49.7592 9.06739
49.956 8.91429
50.153 8.7901
50.3501 8.65841
50.5474 8.55203
50.7448 8.38494
50.9424 8.2924
51.1402 8.12805
51.3381 7.96298
51.5362 7.88419
51.7344 7.7442
51.9328 7.6035
52.1316 7.45627
52.3304 7.36996
52.5293 7.23239
52.7284 7.11446
52.9276 7.0007
53.1271 6.89522
53.3267 6.80162
53.5265 6.64231
53.7264 6.5444
53.9266 6.4291
54.1269 6.28857
54.3274 6.14034
54.528 6.0045
54.7289 5.87289
54.9301 5.65894
55.1314 5.54157
55.3328 5.34512
55.5344 5.1336
55.7361 5.02035

File: Ni3Fe_FD0238.xy
TT I
1.27165 7.86654
1.45013 6.11175
1.62863 5.59181
1.80712 5.40499
1.98562 4.85897
2.16411 4.37165
2.34263 4.90848
2.52115 5.05521
2.69965 6.92465
2.87818 8.0689
3.05672 11.3237
3.23527 14.6888
3.4138 18.4707
3.59237 22.3815
3.77094 26.26
3.9495 29.7753
4.12809 34.7089
4.30669 40.7814
4.4853 48.7503
4.6639 58.0349
4.84253 71.4869
5.02118 96.5166
5.19981 890.512
5.37848 270.771
5.55716 111.695
5.73586 100.666
5.91455 110.215
6.09328 3666.06
6.27201 88.6678
6.45075 71.1716
6.62952 64.5377
6.8083 59.9684
6.98711 57.418
7.16591 56.5349
7.34475 56.0266
7.5236 56.1646
7.70247 58.1739
7.88135 60.3578
8.06026 65.2867
8.23919 73.3089
8.41812 90.3857
8.59709 1081.22
8.77609 110.783
8.9551 90.8492
9.13412 87.1461
9.31318 88.2446
9.49226 89.6021
9.67134 95.869
9.85047 106.931
10.0296 515.801
10.2088 541.31
10.388 115.648
10.5672 454.805
10.7465 92.2841
10.9257 80.7236
11.105 74.5894
11.2844 70.881
11.4637 67.7986
11.6431 66.5086
11.8225 65.2439
12.002 68.6494
12.1814 142.021
12.3609 70.0153
12.5405 67.4894
12.72 69.6743
12.8996 74.777
13.0792 86.4567
13.2589 231.467
13.4386 149.194
13.6183 228.14
13.7981 109.684
13.9779 80.2355
14.1577 75.306
14.3376 73.0539
14.5175 72.4254
14.6974 74.6072
14.8774 120.023
15.0574 169.623
15.2374 72.1383
15.4175 69.8438
15.5976 69.7699
15.7778 103.78
15.958 173.499
16.1382 63.7526
16.3185 60.1894
16.4988 58.0083
16.6792 57.1048
16.8596 57.3638
17.04 59.3846
17.2205 68.978
17.401 76.4123
17.5815 62.1784
17.7622 64.4859
17.9428 82.6212
18.1237 139.16
18.3044 90.5781
18.4852 83.1094
18.666 63.4385
18.8469 60.8108
19.0278 59.5404
19.2088 62.8246
19.3898 76.3064
19.5709 56.9656
19.752 56.0768
19.9332 59.5505
20.1144 72.6936
20.2957 64.3756
20.477 56.4731
20.6586 51.9982
20.84 51.0244
21.0215 51.0264
21.203 52.6682
21.3846 51.5086
21.5662 51.9374
21.7479 55.4336
21.9297 66.6349
22.1115 57.6071
22.2933 52.3493
22.4753 50.9641
22.6572 51.9706
22.8393 54.1532
23.0214 60.0086
23.2037 51.3291
23.3859 52.6839
23.5682 57.6512
23.7505 51.0398
23.9329 47.274
24.1154 46.0314
24.2979 45.5702
24.4805 44.7592
24.6631 44.7342
24.8458 44.4766
25.0286 44.965
25.2114 46.5203
25.3943 46.6425
25.5773 42.8122
25.7605 42.4728
25.9436 42.7328
26.1268 43.4976
26.31 42.2188
26.4933 42.5308
26.6767 43.823
26.8601 42.1815
27.0437 40.6912
27.2272 40.4035
27.4109 40.1228
27.5946 40.2021
27.7784 39.6768
27.9623 40.0138
28.1462 40.4813
28.3304 38.9278
28.5145 37.693
28.6987 37.1918
28.8829 36.9924
29.0673 36.2344
29.2517 35.778
29.4361 35.6844
29.6207 34.5763
29.8053 34.3961
29.99 34.0207
30.1748 33.9675
30.3597 33.7504
30.5447 33.6647
30.7297 33.6476
30.915 33.0928
31.1002 32.5131
31.2855 32.3003
31.4708 32.1894
31.6563 31.7529
31.8418 31.4749
32.0275 31.3389
32.2132 30.7723
32.399 30.2291
32.5848 29.7972
32.7708 29.4541
32.9569 29.2882
33.143 28.9851
33.3293 28.617
33.5158 28.2591
33.7022 27.8643
33.8887 27.5198
34.0753 27.111
34.262 26.7351
34.4488 26.4544
34.6357 26.1454
34.8227 25.7957
35.0098 25.5294
35.1969 25.3253
35.3842 25.0194
35.5716 24.8478
35.759 24.528
35.9468 24.1241
36.1345 24.0446
36.3222 23.6417
36.5101 23.4001
36.6981 23.1619
36.8861 22.7269
37.0743 22.4806
37.2626 22.2289
37.451 21.9063
37.6395 21.8272
37.8281 21.4286
38.0168 21.1374
38.2056 20.8529
38.3945 20.5328
38.5837 20.3198
38.7728 20.087
38.9621 19.7686
39.1514 19.5001
39.3409 19.3363
39.5304 19.1335
39.7201 18.8489
39.9099 18.5882
40.0999 18.3344
40.2899 18.118
40.48 17.8387
40.6703 17.6922
40.8607 17.4375
41.0512 17.3005
41.242 16.9887
41.4327 16.7665
41.6236 16.5455
41.8146 16.3853
42.0057 16.109
42.1969 15.9105
42.3882 15.6875
42.5797 15.4682
42.7713 15.2996
42.963 15.0408
43.1549 14.8145
43.3468 14.6694
43.5389 14.4576
43.7312 14.1895
43.9237 14.0613
44.1162 13.8272
44.3088 13.637
44.5016 13.4484
44.6945 13.2922
44.8875 13.094
45.0806 12.902
45.2739 12.7383
45.4673 12.531
45.6609 12.3537
45.8546 12.1614
46.0484 12.0216
46.2424 11.8021
46.4365 11.7027
46.631 11.5084
46.8254 11.3151
47.0199 11.1603
47.2146 10.9735
47.4095 10.8349
47.6044 10.6896
47.7996 10.5418
47.9948 10.3849
48.1902 10.2207
48.3858 10.0182
48.5815 9.93901
48.7774 9.79067
48.9734 9.64451
49.1696 9.46306
49.3661 9.3297
49.5626 9.14922
49.7592 9.06736
49.956 8.94093
50.153 8.77419
50.3501 8.62347
50.5474 8.50306
50.7448 8.38781
50.9424 8.24737
51.1402 8.13418
51.3381 7.99183
51.5362 7.859
51.7344 7.70543
51.9328 7.59481
52.1316 7.46971
52.3304 7.37695
52.5293 7.2466
52.7284 7.09933
52.9276 6.97892
53.1271 6.89239
53.3267 6.78454
53.5265 6.60518
53.7264 6.54258
53.9266 6.41572
54.1269 6.27206
54.3274 6.18265
54.528 6.00237
54.7289 5.82653
54.9301 5.67508
55.1314 5.53352
55.3328 5.33024
55.5344 5.10642
55.7361 5.02585

File: Ni3Fe_FD0239.xy
TT I
1.27165 7.69921
1.45013 6.9235
1.62863 5.8127
1.80712 5.46886
1.98562 4.65334
2.16411 5.04242
2.34263 5.03989
2.52115 5.16631
2.69965 6.69848
2.87818 8.22046
3.05672 11.3532
3.23527 15.1858
3.4138 18.892
3.59237 22.1538
3.77094 25.705
3.9495 29.8413
4.12809 35.0312
4.30669 40.6412
4.4853 48.6138
4.6639 58.1989
4.84253 72.0764
5.02118 96.4809
5.19981 890.534
5.37848 270.296
5.55716 112.03
5.73586 101.391
5.91455 110.215
6.09328 3672.24
6.27201 89.1451
6.45075 71.0906
6.62952 64.2372
6.8083 60.288
6.98711 57.2789
7.16591 56.8026
7.34475 55.7365
7.5236 55.9195
7.70247 57.7367
7.88135 60.1148
8.06026 65.34
8.23919 72.8917
8.41812 90.2988
8.59709 1079.55
8.77609 110.208
8.9551 90.546
9.13412 86.9664
9.31318 88.1384
9.49226 89.4835
9.67134 95.6978
9.85047 106.986
10.0296 513.548
10.2088 537.634
10.388 115.387
10.5672 453.191
10.7465 91.8791
10.9257 80.8629
11.105 74.7841
11.2844 70.5827
11.4637 67.711
11.6431 66.3034
11.8225 65.256
12.002 68.6999
12.1814 141.542
12.3609 69.7351
12.5405 67.2868
12.72 69.5334
12.8996 74.5458
13.0792 86.5804
13.2589 231.355
13.4386 149.358
13.6183 228.253
13.7981 110.285
13.9779 79.8624
14.1577 75.1244
14.3376 72.9437
14.5175 72.4185
14.6974 74.518
14.8774 119.801
15.0574 169.98
15.2374 72.1241
15.4175 69.7263
15.5976 69.6181
15.7778 103.999
15.958 173.444
16.1382 63.5882
16.3185 60.0712
16.4988 58.0089
16.6792 56.7901
16.8596 57.3206
17.04 59.2274
17.2205 68.9794
17.401 76.7553
17.5815 62.1569
17.7622 64.3986
17.9428 82.329
18.1237 138.952
18.3044 90.3157
18.4852 83.1815
18.666 63.3659
18.8469 60.8508
19.0278 59.4958
19.2088 62.8398
19.3898 76.4318
19.5709 57.0194
19.752 56.0138
19.9332 59.398
20.1144 72.6133
20.2957 64.4315
20.477 56.6026
20.6586 52.0876
20.84 51.1677
21.0215 51.2453
21.203 52.5857
21.3846 51.5061
21.5662 51.829
21.7479 55.5672
21.9297 66.7191
22.1115 57.6816
22.2933 52.4573
22.4753 50.9288
22.6572 51.9489
22.8393 54.2219
23.0214 59.9897
23.2037 51.2775
23.3859 52.5894
23.5682 57.7161
23.7505 51.2393
23.9329 47.4694
24.1154 46.168
24.2979 45.4856
24.4805 44.7356
24.6631 44.8141
24.8458 44.3291
25.0286 45.0055
25.2114 46.4571
25.3943 46.7617
25.5773 42.9585
25.7605 42.312
25.9436 42.6412
26.1268 43.5627
26.31 42.1878
26.4933 42.5288
26.6767 43.9181
26.8601 42.3073
27.0437 40.7566
27.2272 40.2817
27.4109 40.0814
27.5946 40.1586
27.7784 39.7789
27.9623 39.968
28.1462 40.5882
28.3304 38.9571
28.5145 37.6161
28.6987 37.29
28.8829 36.9142
29.0673 36.39
29.2517 35.8187
29.4361 35.6423
29.6207 34.7899
29.8053 34.4177
29.99 34.0582
30.1748 33.8885
30.3597 33.7237
30.5447 33.6335
30.7297 33.6069
30.915 33.0067
31.1002 32.59
31.2855 32.2054
31.4708 32.2083
31.6563 31.819
31.8418 31.4567
32.0275 31.2264
32.2132 30.7413
32.399 30.2763
32.5848 29.8595
32.7708 29.446
32.9569 29.2975
33.143 29.0488
33.3293 28.6386
33.5158 28.2554
33.7022 27.7568
33.8887 27.5005
34.0753 27.2376
34.262 26.7816
34.4488 26.4315
34.6357 26.1346
34.8227 25.8076
35.0098 25.5466
35.1969 25.2585
35.3842 24.9941
35.5716 24.8941
35.759 24.5146
35.9468 24.1861
36.1345 23.9269
36.3222 23.6173
36.5101 23.4087
36.6981 23.0488
36.8861 22.778
37.0743 22.449
37.2626 22.185
37.451 21.8874
37.6395 21.7789
37.8281 21.413
38.0168 21.1102
38.2056 20.8164
38.3945 20.5448
38.5837 20.2931
38.7728 20.0723
38.9621 19.8484
39.1514 19.6307
39.3409 19.2994
39.5304 19.0565
39.7201 18.862
39.9099 18.6471
40.0999 18.3362
40.2899 18.1941
40.48 17.8641
40.6703 17.6583
40.8607 17.5107
41.0512 17.2301
41.242 16.9646
41.4327 16.7275
41.6236 16.4643
41.8146 16.3246
42.0057 16.091
42.1969 15.8661
42.3882 15.7415
42.5797 15.4453
42.7713 15.2403
42.963 15.0656
43.1549 14.8123
43.3468 14.5777
43.5389 14.4168
43.7312 14.1997
43.9237 14.0179
44.1162 13.8437
44.3088 13.6416
44.5016 13.4422
44.6945 13.2383
44.8875 13.0739
45.0806 12.8638
45.2739 12.7506
45.4673 12.5702
45.6609 12.3337
45.8546 12.1888
46.0484 12.0044
46.2424 11.7855
46.4365 11.7013
46.631 11.4939
46.8254 11.2907
47.0199 11.1468
47.2146 11.008
47.4095 10.8105
47.6044 10.6832
47.7996 10.4958
47.9948 10.3349
48.1902 10.205
48.3858 10.0567
48.5815 9.93968
48.7774 9.75668
48.9734 9.59861
49.1696 9.44946
49.3661 9.31062
49.5626 9.17482
49.7592 9.06948
49.956 8.92675
50.153 8.77151
50.3501 8.64363
50.5474 8.52891
50.7448 8.36955
50.9424 8.26015
51.1402 8.10167
51.3381 7.98715
51.5362 7.88283
51.7344 7.74549
51.9328 7.5767
52.1316 7.47455
52.3304 7.36403
52.5293 7.2149
52.7284 7.15949
52.9276 6.99177
53.1271 6.90478
53.3267 6.74884
53.5265 6.64101
53.7264 6.52742
53.9266 6.41567
54.1269 6.3153
54.3274 6.14968
54.528 5.98375
54.7289 5.83984
54.9301 5.67876
55.1314 5.50837
55.3328 5.30186
55.5344 5.12598
55.7361 5.00147