Folder: NiFe_MOF_catalyst_paper/XRD (part 102)

File: Ni3Fe_FD0553.xy
TT I
1.27165 7.10548
1.45013 5.96608
1.62863 5.45657
1.80712 4.97546
1.98562 4.53489
2.16411 4.75971
2.34263 5.24765
2.52115 6.86218
2.69965 8.32919
2.87818 8.42686
3.05672 11.3489
3.23527 15.4059
3.4138 19.6348
3.59237 23.485
3.77094 25.9238
3.9495 29.6637
4.12809 34.7364
4.30669 174.46
4.4853 61.4038
4.6639 55.6646
4.84253 68.1589
5.02118 88.6247
5.19981 405.532
5.37848 196.721
5.55716 103.194
5.73586 93.2528
5.91455 96.7405
6.09328 4365.05
6.27201 83.2217
6.45075 67.9669
6.62952 62.8676
6.8083 58.9952
6.98711 56.0428
7.16591 55.2829
7.34475 83.5545
7.5236 55.0092
7.70247 56.5728
7.88135 58.3544
8.06026 63.3005
8.23919 70.2089
8.41812 86.0939
8.59709 1221.37
8.77609 100.335
8.9551 91.0727
9.13412 82.6082
9.31318 82.9991
9.49226 85.4295
9.67134 97.3153
9.85047 100.697
10.0296 369.628
10.2088 382.352
10.388 105.571
10.5672 516.879
10.7465 87.0789
10.9257 78.4694
11.105 72.3601
11.2844 70.2745
11.4637 65.3416
11.6431 63.901
11.8225 62.8495
12.002 64.3847
12.1814 153.971
12.3609 69.4599
12.5405 64.898
12.72 69.6866
12.8996 71.6176
13.0792 79.9532
13.2589 246.241
13.4386 121.903
13.6183 254.999
13.7981 96.8585
13.9779 76.2004
14.1577 72.6511
14.3376 71.6912
14.5175 69.594
14.6974 70.9771
14.8774 114.328
15.0574 145.488
15.2374 71.0088
15.4175 66.6249
15.5976 66.3673
15.7778 97.8776
15.958 154.088
16.1382 62.8602
16.3185 58.8893
16.4988 55.9644
16.6792 54.9624
16.8596 55.6218
17.04 56.2095
17.2205 67.5279
17.401 70.9572
17.5815 59.6253
17.7622 61.7979
17.9428 75.2443
18.1237 141.562
18.3044 91.6161
18.4852 77.2025
18.666 60.9164
18.8469 58.5156
19.0278 57.1001
19.2088 60.0219
19.3898 76.3984
19.5709 54.3982
19.752 53.6802
19.9332 56.9124
20.1144 70.5826
20.2957 64.3306
20.477 53.6679
20.6586 50.003
20.84 49.2801
21.0215 49.0783
21.203 51.1971
21.3846 49.2467
21.5662 49.2002
21.7479 53.1889
21.9297 65.0771
22.1115 56.2961
22.2933 50.1798
22.4753 49.1904
22.6572 49.2862
22.8393 52.5179
23.0214 57.5388
23.2037 49.1242
23.3859 50.269
23.5682 57.1599
23.7505 48.3593
23.9329 45.4949
24.1154 44.4837
24.2979 43.8346
24.4805 43.2151
24.6631 43.1368
24.8458 42.5543
25.0286 43.2294
25.2114 45.1066
25.3943 44.8689
25.5773 41.0173
25.7605 40.8172
25.9436 41.0935
26.1268 41.9001
26.31 40.3406
26.4933 41.074
26.6767 42.4914
26.8601 40.6995
27.0437 39.182
27.2272 38.9036
27.4109 38.537
27.5946 38.6641
27.7784 38.1728
27.9623 38.8434
28.1462 39.0113
28.3304 37.4521
28.5145 36.1448
28.6987 35.9038
28.8829 35.7738
29.0673 34.9257
29.2517 34.5421
29.4361 34.274
29.6207 33.345
29.8053 33.0814
29.99 32.8759
30.1748 32.7019
30.3597 32.4785
30.5447 32.4364
30.7297 32.4392
30.915 31.8219
31.1002 31.3305
31.2855 31.106
31.4708 30.972
31.6563 30.5006
31.8418 30.36
32.0275 30.1632
32.2132 29.5253
32.399 29.0836
32.5848 28.7087
32.7708 28.3384
32.9569 28.1347
33.143 27.9812
33.3293 27.517
33.5158 27.1866
33.7022 26.8286
33.8887 26.4435
34.0753 26.1372
34.262 25.8417
34.4488 25.4033
34.6357 25.1129
34.8227 24.8387
35.0098 24.6714
35.1969 24.3556
35.3842 24.1284
35.5716 23.8705
35.759 23.596
35.9468 23.3089
36.1345 23.0686
36.3222 22.8236
36.5101 22.5524
36.6981 22.266
36.8861 21.8886
37.0743 21.6897
37.2626 21.4043
37.451 21.0927
37.6395 20.9685
37.8281 20.6084
38.0168 20.392
38.2056 20.101
38.3945 19.8282
38.5837 19.5738
38.7728 19.3693
38.9621 19.0895
39.1514 18.8242
39.3409 18.5636
39.5304 18.3953
39.7201 18.2177
39.9099 17.981
40.0999 17.6542
40.2899 17.5593
40.48 17.2888
40.6703 17.0216
40.8607 16.8548
41.0512 16.6837
41.242 16.3755
41.4327 16.1232
41.6236 15.9532
41.8146 15.7674
42.0057 15.4627
42.1969 15.3028
42.3882 15.1599
42.5797 14.8521
42.7713 14.7475
42.963 14.4621
43.1549 14.3381
43.3468 14.1032
43.5389 13.9331
43.7312 13.7405
43.9237 13.5263
44.1162 13.3592
44.3088 13.1576
44.5016 12.9874
44.6945 12.7951
44.8875 12.6626
45.0806 12.455
45.2739 12.2843
45.4673 12.1326
45.6609 11.9487
45.8546 11.7678
46.0484 11.6103
46.2424 11.4244
46.4365 11.2875
46.631 11.0883
46.8254 10.8961
47.0199 10.763
47.2146 10.6448
47.4095 10.4611
47.6044 10.2934
47.7996 10.1756
47.9948 10.0154
48.1902 9.85398
48.3858 9.71271
48.5815 9.54239
48.7774 9.45961
48.9734 9.32115
49.1696 9.19077
49.3661 9.00793
49.5626 8.88673
49.7592 8.74179
49.956 8.62619
50.153 8.49264
50.3501 8.36029
50.5474 8.20229
50.7448 8.13731
50.9424 8.00437
51.1402 7.88017
51.3381 7.72807
51.5362 7.58662
51.7344 7.46628
51.9328 7.32416
52.1316 7.21208
52.3304 7.15386
52.5293 6.96431
52.7284 6.88546
52.9276 6.7577
53.1271 6.67325
53.3267 6.55636
53.5265 6.41437
53.7264 6.31714
53.9266 6.17971
54.1269 6.13179
54.3274 5.98443
54.528 5.83817
54.7289 5.63424
54.9301 5.52141
55.1314 5.3977
55.3328 5.17236
55.5344 5.02526
55.7361 4.86566

File: Ni3Fe_FD0554.xy
TT I
1.27165 7.26493
1.45013 5.98888
1.62863 5.0626
1.80712 5.24905
1.98562 5.10893
2.16411 4.80538
2.34263 5.54469
2.52115 6.12411
2.69965 7.77172
2.87818 8.50031
3.05672 11.1824
3.23527 15.0639
3.4138 18.7883
3.59237 23.3034
3.77094 25.9757
3.9495 29.8791
4.12809 34.4912
4.30669 172.45
4.4853 61.1237
4.6639 55.6618
4.84253 68.1855
5.02118 88.4477
5.19981 409.384
5.37848 195.982
5.55716 103.071
5.73586 93.1106
5.91455 96.4478
6.09328 4375.31
6.27201 83.4005
6.45075 67.6287
6.62952 62.7264
6.8083 58.6519
6.98711 55.9845
7.16591 55.3854
7.34475 83.3292
7.5236 54.8643
7.70247 56.3806
7.88135 58.4447
8.06026 62.8145
8.23919 70.1086
8.41812 86.1014
8.59709 1221.9
8.77609 99.8968
8.9551 91.0374
9.13412 82.5662
9.31318 83.2063
9.49226 85.3426
9.67134 97.4982
9.85047 100.861
10.0296 371.396
10.2088 384.056
10.388 105.704
10.5672 517.757
10.7465 87.4282
10.9257 78.5006
11.105 72.3465
11.2844 70.2511
11.4637 65.24
11.6431 63.9166
11.8225 62.8721
12.002 64.3632
12.1814 154.546
12.3609 69.4628
12.5405 64.9493
12.72 69.6143
12.8996 71.5241
13.0792 80.1209
13.2589 246.241
13.4386 121.958
13.6183 254.257
13.7981 96.6157
13.9779 76.1005
14.1577 72.7797
14.3376 71.8008
14.5175 69.4473
14.6974 71.1615
14.8774 114.243
15.0574 145.609
15.2374 71.3107
15.4175 66.8186
15.5976 66.4998
15.7778 97.8773
15.958 153.863
16.1382 62.5504
16.3185 58.7661
16.4988 55.6484
16.6792 54.7816
16.8596 55.479
17.04 56.289
17.2205 67.8236
17.401 71.05
17.5815 59.5672
17.7622 62.0038
17.9428 75.1405
18.1237 141.73
18.3044 91.6591
18.4852 77.1374
18.666 60.71
18.8469 58.4579
19.0278 57.3258
19.2088 60.1732
19.3898 76.7303
19.5709 54.6726
19.752 53.6775
19.9332 56.8134
20.1144 70.3893
20.2957 64.6038
20.477 53.6327
20.6586 50.1024
20.84 49.3427
21.0215 49.0661
21.203 51.3349
21.3846 49.1564
21.5662 49.2219
21.7479 53.2438
21.9297 65.0304
22.1115 56.3181
22.2933 50.1771
22.4753 49.2591
22.6572 49.3448
22.8393 52.6078
23.0214 57.6986
23.2037 49.0133
23.3859 50.3415
23.5682 57.2675
23.7505 48.4634
23.9329 45.5112
24.1154 44.3843
24.2979 43.7612
24.4805 43.1909
24.6631 43.0913
24.8458 42.558
25.0286 43.1663
25.2114 44.9698
25.3943 44.8893
25.5773 41.2483
25.7605 40.6901
25.9436 41.1752
26.1268 41.9893
26.31 40.3683
26.4933 41.0647
26.6767 42.5543
26.8601 40.6691
27.0437 39.2915
27.2272 38.8179
27.4109 38.5663
27.5946 38.6946
27.7784 38.1037
27.9623 38.7198
28.1462 39.1766
28.3304 37.3649
28.5145 36.3003
28.6987 35.8175
28.8829 35.6976
29.0673 34.9341
29.2517 34.5686
29.4361 34.4214
29.6207 33.4448
29.8053 33.15
29.99 32.7624
30.1748 32.68
30.3597 32.5254
30.5447 32.3362
30.7297 32.4374
30.915 31.8882
31.1002 31.2722
31.2855 30.9892
31.4708 31.0273
31.6563 30.5644
31.8418 30.3646
32.0275 30.1128
32.2132 29.5769
32.399 29.1468
32.5848 28.6842
32.7708 28.3151
32.9569 28.2328
33.143 28.0155
33.3293 27.6301
33.5158 27.1481
33.7022 26.8019
33.8887 26.5557
34.0753 26.1319
34.262 25.8262
34.4488 25.5356
34.6357 25.1643
34.8227 24.8791
35.0098 24.6457
35.1969 24.3923
35.3842 24.1121
35.5716 23.846
35.759 23.5667
35.9468 23.275
36.1345 23.0766
36.3222 22.8083
36.5101 22.5392
36.6981 22.2717
36.8861 21.945
37.0743 21.6419
37.2626 21.4604
37.451 21.0952
37.6395 21.0136
37.8281 20.6417
38.0168 20.3653
38.2056 20.1101
38.3945 19.8729
38.5837 19.5508
38.7728 19.3831
38.9621 19.0148
39.1514 18.8217
39.3409 18.5642
39.5304 18.3849
39.7201 18.1541
39.9099 17.9679
40.0999 17.7198
40.2899 17.4235
40.48 17.1874
40.6703 17.0207
40.8607 16.8248
41.0512 16.6402
41.242 16.365
41.4327 16.1178
41.6236 15.9895
41.8146 15.7873
42.0057 15.5329
42.1969 15.3433
42.3882 15.1524
42.5797 14.9423
42.7713 14.7416
42.963 14.4856
43.1549 14.3549
43.3468 14.1264
43.5389 13.9684
43.7312 13.7426
43.9237 13.5049
44.1162 13.3578
44.3088 13.1676
44.5016 13.0217
44.6945 12.8027
44.8875 12.634
45.0806 12.4261
45.2739 12.2914
45.4673 12.1136
45.6609 11.9581
45.8546 11.7666
46.0484 11.5717
46.2424 11.4087
46.4365 11.261
46.631 11.1328
46.8254 10.9157
47.0199 10.8099
47.2146 10.6172
47.4095 10.453
47.6044 10.302
47.7996 10.1422
47.9948 9.99863
48.1902 9.86759
48.3858 9.74879
48.5815 9.6101
48.7774 9.41559
48.9734 9.29064
49.1696 9.14694
49.3661 9.02981
49.5626 8.8557
49.7592 8.72646
49.956 8.61715
50.153 8.47374
50.3501 8.34061
50.5474 8.24003
50.7448 8.10841
50.9424 7.98292
51.1402 7.84747
51.3381 7.7167
51.5362 7.60125
51.7344 7.48253
51.9328 7.31442
52.1316 7.25121
52.3304 7.11422
52.5293 6.97766
52.7284 6.88154
52.9276 6.76053
53.1271 6.65505
53.3267 6.53686
53.5265 6.40449
53.7264 6.29322
53.9266 6.19453
54.1269 6.07134
54.3274 5.97134
54.528 5.85863
54.7289 5.66854
54.9301 5.53856
55.1314 5.40909
55.3328 5.19033
55.5344 4.94051
55.7361 4.81536

File: Ni3Fe_FD0556.xy
TT I
1.27165 7.54562
1.45013 6.18983
1.62863 5.7333
1.80712 5.05154
1.98562 4.39514
2.16411 5.01676
2.34263 4.99136
2.52115 7.05226
2.69965 7.43154
2.87818 8.37302
3.05672 11.2274
3.23527 14.331
3.4138 18.6813
3.59237 23.769
3.77094 26.0001
3.9495 29.586
4.12809 34.7518
4.30669 166.356
4.4853 60.4558
4.6639 55.7501
4.84253 68.2892
5.02118 88.3916
5.19981 414.881
5.37848 195.949
5.55716 102.692
5.73586 92.7419
5.91455 96.2062
6.09328 4411.51
6.27201 82.9466
6.45075 67.4265
6.62952 62.5738
6.8083 58.7216
6.98711 55.972
7.16591 55.0872
7.34475 82.1071
7.5236 54.8892
7.70247 56.1095
7.88135 58.1952
8.06026 62.4591
8.23919 69.6817
8.41812 85.5457
8.59709 1219.05
8.77609 99.8293
8.9551 90.7878
9.13412 82.2498
9.31318 83.2546
9.49226 85.2652
9.67134 97.1361
9.85047 100.59
10.0296 373.818
10.2088 385.259
10.388 105.349
10.5672 515.504
10.7465 87.0618
10.9257 78.2795
11.105 72.0068
11.2844 70.1385
11.4637 65.2708
11.6431 63.9175
11.8225 62.5877
12.002 64.2106
12.1814 155.058
12.3609 69.7537
12.5405 64.6774
12.72 69.6603
12.8996 71.5321
13.0792 79.9874
13.2589 247.177
13.4386 122.423
13.6183 253.144
13.7981 96.8924
13.9779 76.2753
14.1577 72.6087
14.3376 71.4868
14.5175 69.4804
14.6974 71.0486
14.8774 114.548
15.0574 146.08
15.2374 70.9507
15.4175 66.9879
15.5976 66.2482
15.7778 97.9871
15.958 154.638
16.1382 62.5005
16.3185 58.8423
16.4988 55.7757
16.6792 54.7608
16.8596 55.5496
17.04 56.282
17.2205 67.5742
17.401 71.1694
17.5815 59.7376
17.7622 62.0001
17.9428 75.3543
18.1237 141.554
18.3044 91.8653
18.4852 77.3943
18.666 60.6047
18.8469 58.5194
19.0278 57.3303
19.2088 60.2008
19.3898 76.5903
19.5709 54.5573
19.752 53.5413
19.9332 57.0339
20.1144 70.6374
20.2957 64.4262
20.477 53.7713
20.6586 50.0192
20.84 49.1051
21.0215 49.0458
21.203 51.0342
21.3846 49.2643
21.5662 49.2668
21.7479 53.2372
21.9297 65.2613
22.1115 56.3346
22.2933 50.088
22.4753 49.2099
22.6572 49.2283
22.8393 52.4757
23.0214 57.6664
23.2037 49.1578
23.3859 50.1832
23.5682 57.3748
23.7505 48.4157
23.9329 45.5174
24.1154 44.4312
24.2979 43.6109
24.4805 43.1547
24.6631 43.1615
24.8458 42.5935
25.0286 43.1893
25.2114 44.9978
25.3943 44.8394
25.5773 41.334
25.7605 40.5988
25.9436 41.1375
26.1268 42.0283
26.31 40.4038
26.4933 41.0309
26.6767 42.4253
26.8601 40.6728
27.0437 39.2517
27.2272 38.7465
27.4109 38.6695
27.5946 38.6492
27.7784 38.1489
27.9623 38.6718
28.1462 38.9981
28.3304 37.4115
28.5145 36.1751
28.6987 35.8792
28.8829 35.8017
29.0673 34.8595
29.2517 34.6298
29.4361 34.4879
29.6207 33.2877
29.8053 33.0506
29.99 32.84
30.1748 32.5834
30.3597 32.3573
30.5447 32.3601
30.7297 32.4325
30.915 31.8586
31.1002 31.3264
31.2855 31.0307
31.4708 31.1414
31.6563 30.4711
31.8418 30.2715
32.0275 30.0931
32.2132 29.5985
32.399 29.0812
32.5848 28.76
32.7708 28.3125
32.9569 28.2293
33.143 27.9656
33.3293 27.5738
33.5158 27.1974
33.7022 26.8067
33.8887 26.554
34.0753 26.122
34.262 25.8043
34.4488 25.3731
34.6357 25.0949
34.8227 24.8858
35.0098 24.6853
35.1969 24.3758
35.3842 24.1306
35.5716 24.0136
35.759 23.6583
35.9468 23.2373
36.1345 23.0476
36.3222 22.7988
36.5101 22.5606
36.6981 22.3125
36.8861 21.9544
37.0743 21.6934
37.2626 21.4167
37.451 21.0869
37.6395 20.9896
37.8281 20.5999
38.0168 20.3071
38.2056 20.0371
38.3945 19.7904
38.5837 19.5695
38.7728 19.3939
38.9621 19.0709
39.1514 18.8035
39.3409 18.6137
39.5304 18.438
39.7201 18.2155
39.9099 17.9283
40.0999 17.7265
40.2899 17.5084
40.48 17.2216
40.6703 17.0725
40.8607 16.8776
41.0512 16.5678
41.242 16.3483
41.4327 16.1773
41.6236 15.9612
41.8146 15.8086
42.0057 15.4533
42.1969 15.336
42.3882 15.1904
42.5797 14.9055
42.7713 14.7124
42.963 14.5427
43.1549 14.3136
43.3468 14.0847
43.5389 13.8817
43.7312 13.7444
43.9237 13.5407
44.1162 13.332
44.3088 13.1605
44.5016 12.9627
44.6945 12.8082
44.8875 12.6679
45.0806 12.4445
45.2739 12.2914
45.4673 12.1513
45.6609 11.921
45.8546 11.7671
46.0484 11.5986
46.2424 11.4612
46.4365 11.2652
46.631 11.088
46.8254 10.9396
47.0199 10.7669
47.2146 10.6317
47.4095 10.4689
47.6044 10.2883
47.7996 10.1245
47.9948 9.99621
48.1902 9.8144
48.3858 9.7186
48.5815 9.58732
48.7774 9.42692
48.9734 9.28483
49.1696 9.15502
49.3661 9.03106
49.5626 8.86882
49.7592 8.75764
49.956 8.59635
50.153 8.48725
50.3501 8.35063
50.5474 8.2304
50.7448 8.10845
50.9424 7.98237
51.1402 7.86567
51.3381 7.72925
51.5362 7.60562
51.7344 7.44519
51.9328 7.32252
52.1316 7.21753
52.3304 7.10914
52.5293 6.9797
52.7284 6.86528
52.9276 6.78111
53.1271 6.69363
53.3267 6.51436
53.5265 6.42438
53.7264 6.32529
53.9266 6.19863
54.1269 6.07057
54.3274 5.99727
54.528 5.81439
54.7289 5.69139
54.9301 5.50346
55.1314 5.38895
55.3328 5.1502
55.5344 4.97082
55.7361 4.836

File: Ni3Fe_FD0557.xy
TT I
1.27165 7.64354
1.45013 6.37497
1.62863 5.33359
1.80712 5.06313
1.98562 5.00816
2.16411 5.47108
2.34263 5.21764
2.52115 6.59998
2.69965 7.58998
2.87818 8.27712
3.05672 11.1094
3.23527 14.7933
3.4138 18.8078
3.59237 23.5004
3.77094 26.024
3.9495 29.4438
4.12809 34.4732
4.30669 162.675
4.4853 60.1786
4.6639 55.6886
4.84253 68.3381
5.02118 87.853
5.19981 418.963
5.37848 194.586
5.55716 103.088
5.73586 93.0073
5.91455 96.5781
6.09328 4439.1
6.27201 83.0277
6.45075 67.5143
6.62952 62.6789
6.8083 58.6439
6.98711 55.9407
7.16591 55.3675
7.34475 81.4691
7.5236 54.9101
7.70247 56.4036
7.88135 58.3268
8.06026 62.8535
8.23919 69.8856
8.41812 85.7612
8.59709 1225.86
8.77609 100.415
8.9551 90.3202
9.13412 82.4752
9.31318 83.4159
9.49226 84.9056
9.67134 96.6763
9.85047 100.346
10.0296 374.773
10.2088 384.665
10.388 105.281
10.5672 515.876
10.7465 86.9629
10.9257 78.3399
11.105 71.921
11.2844 69.8245
11.4637 65.356
11.6431 63.8393
11.8225 62.8461
12.002 64.5123
12.1814 155.576
12.3609 69.0956
12.5405 64.8999
12.72 69.5362
12.8996 71.3946
13.0792 80.1959
13.2589 247.8
13.4386 122.081
13.6183 252.988
13.7981 96.3726
13.9779 76.134
14.1577 72.7928
14.3376 71.669
14.5175 69.6539
14.6974 71.0289
14.8774 114.373
15.0574 145.714
15.2374 70.8771
15.4175 66.6931
15.5976 66.5592
15.7778 98.1451
15.958 154.429
16.1382 62.5341
16.3185 58.806
16.4988 55.9105
16.6792 54.8441
16.8596 55.4559
17.04 56.4501
17.2205 67.7007
17.401 71.3602
17.5815 59.6041
17.7622 61.8521
17.9428 75.2454
18.1237 141.076
18.3044 91.7798
18.4852 77.1062
18.666 60.916
18.8469 58.3029
19.0278 57.1416
19.2088 60.0002
19.3898 76.4862
19.5709 54.6454
19.752 53.6564
19.9332 56.973
20.1144 70.355
20.2957 64.3285
20.477 53.6543
20.6586 50.0226
20.84 49.2733
21.0215 48.977
21.203 51.1552
21.3846 49.2329
21.5662 49.39
21.7479 53.3657
21.9297 65.0157
22.1115 56.2597
22.2933 50.2687
22.4753 49.1444
22.6572 49.2253
22.8393 52.4738
23.0214 57.7128
23.2037 49.113
23.3859 50.2305
23.5682 57.3091
23.7505 48.3722
23.9329 45.4811
24.1154 44.4815
24.2979 43.7062
24.4805 43.159
24.6631 43.0792
24.8458 42.4628
25.0286 43.213
25.2114 44.9962
25.3943 44.902
25.5773 41.2236
25.7605 40.7358
25.9436 40.9871
26.1268 41.9749
26.31 40.3714
26.4933 41.1613
26.6767 42.4213
26.8601 40.5149
27.0437 39.1038
27.2272 38.673
27.4109 38.7112
27.5946 38.5334
27.7784 37.9951
27.9623 38.5597
28.1462 38.9509
28.3304 37.3476
28.5145 36.1372
28.6987 35.8003
28.8829 35.5903
29.0673 34.8777
29.2517 34.6118
29.4361 34.3503
29.6207 33.3341
29.8053 33.0392
29.99 32.8022
30.1748 32.6368
30.3597 32.5385
30.5447 32.3615
30.7297 32.4506
30.915 31.7795
31.1002 31.2897
31.2855 31.1208
31.4708 30.9976
31.6563 30.5619
31.8418 30.2408
32.0275 30.0049
32.2132 29.524
32.399 29.045
32.5848 28.6577
32.7708 28.3111
32.9569 28.1051
33.143 27.9572
33.3293 27.4503
33.5158 27.138
33.7022 26.7899
33.8887 26.4524
34.0753 26.0906
34.262 25.7347
34.4488 25.3978
34.6357 25.122
34.8227 24.7581
35.0098 24.5704
35.1969 24.3238
35.3842 24.0635
35.5716 23.9752
35.759 23.6145
35.9468 23.2921
36.1345 22.9833
36.3222 22.78
36.5101 22.6329
36.6981 22.2241
36.8861 21.8875
37.0743 21.6002
37.2626 21.4225
37.451 21.0768
37.6395 20.8974
37.8281 20.5704
38.0168 20.3287
38.2056 20.0341
38.3945 19.7875
38.5837 19.5175
38.7728 19.3461
38.9621 19.0532
39.1514 18.8305
39.3409 18.59
39.5304 18.4128
39.7201 18.1568
39.9099 17.9378
40.0999 17.6748
40.2899 17.413
40.48 17.2529
40.6703 16.9816
40.8607 16.8853
41.0512 16.5735
41.242 16.3822
41.4327 16.1376
41.6236 15.8762
41.8146 15.7308
42.0057 15.5054
42.1969 15.3092
42.3882 15.1588
42.5797 14.8807
42.7713 14.6697
42.963 14.5208
43.1549 14.2884
43.3468 14.1009
43.5389 13.8956
43.7312 13.7097
43.9237 13.5352
44.1162 13.3781
44.3088 13.1551
44.5016 12.9414
44.6945 12.7876
44.8875 12.5758
45.0806 12.4527
45.2739 12.2812
45.4673 12.1241
45.6609 11.9026
45.8546 11.7691
46.0484 11.6035
46.2424 11.4223
46.4365 11.2821
46.631 11.0986
46.8254 10.9379
47.0199 10.7771
47.2146 10.5964
47.4095 10.4716
47.6044 10.3052
47.7996 10.1541
47.9948 9.97275
48.1902 9.87211
48.3858 9.7308
48.5815 9.58821
48.7774 9.44757
48.9734 9.2713
49.1696 9.16345
49.3661 9.02438
49.5626 8.85482
49.7592 8.74252
49.956 8.61437
50.153 8.48943
50.3501 8.32165
50.5474 8.20268
50.7448 8.07818
50.9424 7.95497
51.1402 7.83633
51.3381 7.70984
51.5362 7.61731
51.7344 7.48604
51.9328 7.34441
52.1316 7.19426
52.3304 7.11193
52.5293 6.95611
52.7284 6.89238
52.9276 6.75831
53.1271 6.67291
53.3267 6.54391
53.5265 6.41614
53.7264 6.35679
53.9266 6.19796
54.1269 6.06895
54.3274 5.973
54.528 5.83645
54.7289 5.62145
54.9301 5.48384
55.1314 5.36427
55.3328 5.18226
55.5344 5.00047
55.7361 4.77753

File: Ni3Fe_FD0558.xy
TT I
1.27165 7.27335
1.45013 5.91769
1.62863 5.23198
1.80712 4.80138
1.98562 4.83304
2.16411 5.10633
2.34263 4.8503
2.52115 6.90836
2.69965 7.36434
2.87818 8.84956
3.05672 11.2995
3.23527 15.0096
3.4138 19.1337
3.59237 23.5273
3.77094 26.3078
3.9495 29.8932
4.12809 35.3111
4.30669 160.179
4.4853 59.9513
4.6639 56.1104
4.84253 68.2522
5.02118 88.0145
5.19981 422.337
5.37848 196.529
5.55716 103.165
5.73586 93.885
5.91455 96.2129
6.09328 4443.2
6.27201 83.5522
6.45075 67.6464
6.62952 62.5839
6.8083 58.8629
6.98711 56.1792
7.16591 55.3642
7.34475 80.7435
7.5236 54.9536
7.70247 56.3029
7.88135 58.3369
8.06026 62.9392
8.23919 70.0835
8.41812 85.6177
8.59709 1221.3
8.77609 99.9719
8.9551 90.5619
9.13412 82.4103
9.31318 83.2432
9.49226 85.1083
9.67134 96.7425
9.85047 101.112
10.0296 375.913
10.2088 382.563
10.388 105.698
10.5672 518.11
10.7465 86.5465
10.9257 78.2531
11.105 72.3551
11.2844 69.8904
11.4637 65.3394
11.6431 63.9887
11.8225 62.732
12.002 64.3273
12.1814 155.265
12.3609 69.3544
12.5405 64.6514
12.72 69.3941
12.8996 71.4183
13.0792 80.1659
13.2589 247.86
13.4386 122.322
13.6183 254.178
13.7981 96.4132
13.9779 76.269
14.1577 72.814
14.3376 71.4062
14.5175 69.3315
14.6974 71.0408
14.8774 114.859
15.0574 144.519
15.2374 71.0261
15.4175 66.9291
15.5976 66.553
15.7778 97.9519
15.958 153.551
16.1382 62.5821
16.3185 58.5563
16.4988 55.9911
16.6792 54.8997
16.8596 55.4338
17.04 56.313
17.2205 67.6308
17.401 71.1716
17.5815 59.7657
17.7622 61.6132
17.9428 75.371
18.1237 141.693
18.3044 91.5481
18.4852 76.8603
18.666 60.7043
18.8469 58.4871
19.0278 57.1226
19.2088 60.0577
19.3898 76.1741
19.5709 54.62
19.752 53.6964
19.9332 56.8286
20.1144 70.3048
20.2957 64.16
20.477 53.7422
20.6586 49.9186
20.84 49.1616
21.0215 48.9863
21.203 51.2296
21.3846 49.1968
21.5662 49.2568
21.7479 53.2976
21.9297 65.1786
22.1115 56.2988
22.2933 50.0076
22.4753 49.1772
22.6572 49.2976
22.8393 52.5892
23.0214 57.5652
23.2037 49.2299
23.3859 50.2495
23.5682 57.4413
23.7505 48.3899
23.9329 45.5575
24.1154 44.4533
24.2979 43.7541
24.4805 43.2858
24.6631 43.1687
24.8458 42.6275
25.0286 43.1064
25.2114 44.9993
25.3943 44.8784
25.5773 41.1655
25.7605 40.6584
25.9436 41.1448
26.1268 42.0538
26.31 40.304
26.4933 41.1323
26.6767 42.5161
26.8601 40.5048
27.0437 39.1178
27.2272 38.7154
27.4109 38.7855
27.5946 38.6208
27.7784 38.1398
27.9623 38.7585
28.1462 39.0374
28.3304 37.3969
28.5145 36.2425
28.6987 35.8414
28.8829 35.5665
29.0673 34.8923
29.2517 34.5939
29.4361 34.3801
29.6207 33.3844
29.8053 33.1044
29.99 32.787
30.1748 32.6362
30.3597 32.4494
30.5447 32.3854
30.7297 32.4809
30.915 31.7957
31.1002 31.3648
31.2855 31.0635
31.4708 31.1517
31.6563 30.4981
31.8418 30.3448
32.0275 30.1483
32.2132 29.5275
32.399 29.0502
32.5848 28.6379
32.7708 28.3028
32.9569 28.2753
33.143 28.1291
33.3293 27.63
33.5158 27.2051
33.7022 26.7275
33.8887 26.5175
34.0753 26.2364
34.262 25.7921
34.4488 25.3989
34.6357 25.1406
34.8227 24.844
35.0098 24.6356
35.1969 24.3827
35.3842 24.0625
35.5716 23.8859
35.759 23.603
35.9468 23.1856
36.1345 23.0427
36.3222 22.8414
36.5101 22.592
36.6981 22.2536
36.8861 22.0209
37.0743 21.596
37.2626 21.3597
37.451 21.1383
37.6395 20.9258
37.8281 20.6391
38.0168 20.3489
38.2056 20.0754
38.3945 19.8306
38.5837 19.5679
38.7728 19.3104
38.9621 19.1193
39.1514 18.8359
39.3409 18.5578
39.5304 18.3945
39.7201 18.1906
39.9099 17.9139
40.0999 17.6843
40.2899 17.4601
40.48 17.2031
40.6703 16.9843
40.8607 16.8434
41.0512 16.5747
41.242 16.3251
41.4327 16.1665
41.6236 15.9223
41.8146 15.7363
42.0057 15.5409
42.1969 15.3206
42.3882 15.2034
42.5797 14.9001
42.7713 14.7266
42.963 14.5264
43.1549 14.3484
43.3468 14.1772
43.5389 13.9299
43.7312 13.7042
43.9237 13.53
44.1162 13.3695
44.3088 13.1882
44.5016 12.95
44.6945 12.7863
44.8875 12.6581
45.0806 12.4623
45.2739 12.2635
45.4673 12.0908
45.6609 11.8889
45.8546 11.7343
46.0484 11.5963
46.2424 11.3966
46.4365 11.2498
46.631 11.0619
46.8254 10.9399
47.0199 10.7848
47.2146 10.6297
47.4095 10.4308
47.6044 10.2991
47.7996 10.1615
47.9948 10.0265
48.1902 9.8384
48.3858 9.70298
48.5815 9.61939
48.7774 9.44704
48.9734 9.32109
49.1696 9.15865
49.3661 8.99615
49.5626 8.84195
49.7592 8.756
49.956 8.61548
50.153 8.46235
50.3501 8.34044
50.5474 8.22509
50.7448 8.11863
50.9424 7.96197
51.1402 7.86813
51.3381 7.69765
51.5362 7.59608
51.7344 7.4455
51.9328 7.33166
52.1316 7.22267
52.3304 7.10478
52.5293 6.98739
52.7284 6.88004
52.9276 6.78397
53.1271 6.68083
53.3267 6.55831
53.5265 6.38804
53.7264 6.30367
53.9266 6.21288
54.1269 6.11765
54.3274 6.01114
54.528 5.86682
54.7289 5.69229
54.9301 5.49282
55.1314 5.36025
55.3328 5.15795
55.5344 4.99044
55.7361 4.86793