Folder: NiFe_MOF_catalyst_paper/XRD (part 147)

File: Ni3Fe_FD0798.xy
TT I
1.27165 7.32534
1.45013 5.8009
1.62863 5.59854
1.80712 5.1031
1.98562 3.99436
2.16411 4.70808
2.34263 4.91021
2.52115 7.40048
2.69965 8.83789
2.87818 9.103
3.05672 11.0597
3.23527 15.2852
3.4138 18.7735
3.59237 23.299
3.77094 26.0321
3.9495 29.7345
4.12809 34.336
4.30669 133.523
4.4853 57.2704
4.6639 55.099
4.84253 67.2137
5.02118 86.6391
5.19981 376.582
5.37848 182.091
5.55716 101.371
5.73586 91.9857
5.91455 93.8648
6.09328 4546.73
6.27201 79.8441
6.45075 67.811
6.62952 62.0771
6.8083 58.4356
6.98711 54.956
7.16591 54.7439
7.34475 73.9142
7.5236 54.1603
7.70247 55.7256
7.88135 56.9353
8.06026 61.9811
8.23919 68.7725
8.41812 83.1825
8.59709 1213.22
8.77609 96.7648
8.9551 88.5395
9.13412 81.7508
9.31318 82.9188
9.49226 83.7679
9.67134 94.5743
9.85047 100.103
10.0296 343.132
10.2088 341.414
10.388 103.618
10.5672 536.414
10.7465 85.2871
10.9257 77.0685
11.105 70.8383
11.2844 68.4069
11.4637 63.9674
11.6431 62.7332
11.8225 61.7127
12.002 63.4951
12.1814 157.437
12.3609 67.0121
12.5405 64.0276
12.72 67.5917
12.8996 70.4049
13.0792 79.0793
13.2589 246.74
13.4386 116.901
13.6183 255.574
13.7981 92.5155
13.9779 74.9003
14.1577 71.0755
14.3376 69.8018
14.5175 68.1383
14.6974 69.9821
14.8774 111.059
15.0574 141.643
15.2374 69.0143
15.4175 65.5779
15.5976 65.2856
15.7778 94.5982
15.958 146.468
16.1382 61.0054
16.3185 57.5152
16.4988 54.859
16.6792 53.7429
16.8596 54.2314
17.04 55.5374
17.2205 66.7042
17.401 68.753
17.5815 58.4621
17.7622 60.6837
17.9428 73.1965
18.1237 141.829
18.3044 91.2262
18.4852 74.0888
18.666 59.7512
18.8469 57.4335
19.0278 55.9772
19.2088 58.8595
19.3898 75.8218
19.5709 53.5066
19.752 52.8219
19.9332 55.7081
20.1144 69.8935
20.2957 64.0631
20.477 52.3507
20.6586 49.19
20.84 48.2442
21.0215 48.199
21.203 50.3969
21.3846 48.2459
21.5662 48.5594
21.7479 52.2031
21.9297 64.3079
22.1115 55.7731
22.2933 48.9754
22.4753 48.2784
22.6572 48.4883
22.8393 51.5341
23.0214 56.5795
23.2037 48.2098
23.3859 49.3213
23.5682 57.0629
23.7505 47.369
23.9329 44.6588
24.1154 43.6745
24.2979 43.0374
24.4805 42.5678
24.6631 42.2263
24.8458 41.8594
25.0286 42.5254
25.2114 44.1526
25.3943 44.125
25.5773 40.5183
25.7605 40.1033
25.9436 40.4049
26.1268 41.3329
26.31 39.5875
26.4933 40.4542
26.6767 41.7035
26.8601 39.9496
27.0437 38.5241
27.2272 38.1859
27.4109 38.0772
27.5946 37.9877
27.7784 37.5265
27.9623 38.1338
28.1462 38.5537
28.3304 36.6543
28.5145 35.5604
28.6987 35.1896
28.8829 34.9977
29.0673 34.3342
29.2517 34.0583
29.4361 33.8071
29.6207 32.7348
29.8053 32.5895
29.99 32.2282
30.1748 32.0628
30.3597 31.8963
30.5447 31.8432
30.7297 31.9346
30.915 31.2282
31.1002 30.8061
31.2855 30.5881
31.4708 30.438
31.6563 30.02
31.8418 29.8235
32.0275 29.69
32.2132 29.0795
32.399 28.6353
32.5848 28.1391
32.7708 27.8804
32.9569 27.8134
33.143 27.4567
33.3293 27.2149
33.5158 26.7647
33.7022 26.2114
33.8887 26.1137
34.0753 25.7761
34.262 25.3622
34.4488 24.9729
34.6357 24.7311
34.8227 24.475
35.0098 24.2775
35.1969 23.9514
35.3842 23.6892
35.5716 23.532
35.759 23.196
35.9468 22.848
36.1345 22.6567
36.3222 22.4422
36.5101 22.1836
36.6981 21.8971
36.8861 21.5645
37.0743 21.3011
37.2626 21.0982
37.451 20.8017
37.6395 20.6297
37.8281 20.3135
38.0168 20.0154
38.2056 19.7642
38.3945 19.4664
38.5837 19.2075
38.7728 18.9847
38.9621 18.7754
39.1514 18.5351
39.3409 18.3027
39.5304 18.0763
39.7201 17.8779
39.9099 17.6631
40.0999 17.3632
40.2899 17.179
40.48 16.9303
40.6703 16.7858
40.8607 16.5316
41.0512 16.3591
41.242 16.0811
41.4327 15.8799
41.6236 15.6989
41.8146 15.4961
42.0057 15.279
42.1969 15.0578
42.3882 14.8866
42.5797 14.6763
42.7713 14.5197
42.963 14.301
43.1549 14.1151
43.3468 13.8548
43.5389 13.6944
43.7312 13.5393
43.9237 13.2663
44.1162 13.1205
44.3088 12.9342
44.5016 12.744
44.6945 12.6156
44.8875 12.3821
45.0806 12.2122
45.2739 12.082
45.4673 11.9177
45.6609 11.7378
45.8546 11.5814
46.0484 11.3789
46.2424 11.2458
46.4365 11.1212
46.631 10.9377
46.8254 10.7718
47.0199 10.592
47.2146 10.4277
47.4095 10.2662
47.6044 10.1286
47.7996 9.95699
47.9948 9.82191
48.1902 9.68155
48.3858 9.58658
48.5815 9.4561
48.7774 9.30381
48.9734 9.13151
49.1696 9.00722
49.3661 8.8493
49.5626 8.69284
49.7592 8.59146
49.956 8.51065
50.153 8.35035
50.3501 8.20163
50.5474 8.09418
50.7448 8.00112
50.9424 7.8802
51.1402 7.72065
51.3381 7.60745
51.5362 7.44687
51.7344 7.33745
51.9328 7.22845
52.1316 7.10118
52.3304 7.00633
52.5293 6.88564
52.7284 6.74211
52.9276 6.66917
53.1271 6.56995
53.3267 6.44349
53.5265 6.29989
53.7264 6.19807
53.9266 6.11719
54.1269 5.98019
54.3274 5.88072
54.528 5.75639
54.7289 5.55479
54.9301 5.43606
55.1314 5.29358
55.3328 5.06467
55.5344 4.90267
55.7361 4.82706

File: Ni3Fe_FD0799.xy
TT I
1.27165 7.25306
1.45013 5.80132
1.62863 5.0403
1.80712 5.20901
1.98562 4.47411
2.16411 4.96104
2.34263 5.81036
2.52115 6.5562
2.69965 8.15474
2.87818 8.07512
3.05672 10.8149
3.23527 15.2019
3.4138 18.5358
3.59237 23.2661
3.77094 26.0437
3.9495 29.7778
4.12809 34.3281
4.30669 130.092
4.4853 56.7184
4.6639 55.0268
4.84253 67.5979
5.02118 86.6908
5.19981 379.514
5.37848 182.573
5.55716 101.328
5.73586 91.6038
5.91455 93.8323
6.09328 4576.61
6.27201 80.2595
6.45075 67.9484
6.62952 62.0371
6.8083 58.4707
6.98711 55.0762
7.16591 54.7246
7.34475 73.2334
7.5236 53.9472
7.70247 55.8717
7.88135 57.1703
8.06026 61.9452
8.23919 68.622
8.41812 83.7045
8.59709 1212.53
8.77609 96.5714
8.9551 88.7166
9.13412 81.8668
9.31318 82.9867
9.49226 84.0507
9.67134 95.4485
9.85047 99.5864
10.0296 344.382
10.2088 338.71
10.388 103.938
10.5672 540.944
10.7465 85.4507
10.9257 77.0232
11.105 70.7049
11.2844 68.1824
11.4637 64.0192
11.6431 62.7791
11.8225 61.8823
12.002 63.5203
12.1814 157.446
12.3609 66.9399
12.5405 64.1803
12.72 67.617
12.8996 70.7396
13.0792 79.314
13.2589 247.867
13.4386 116.275
13.6183 257.534
13.7981 92.4721
13.9779 75.1675
14.1577 71.3143
14.3376 69.7527
14.5175 68.1226
14.6974 69.8083
14.8774 111.285
15.0574 140.547
15.2374 69.2617
15.4175 65.9193
15.5976 65.1565
15.7778 95.0588
15.958 145.251
16.1382 61.102
16.3185 57.3137
16.4988 54.7893
16.6792 53.8185
16.8596 54.384
17.04 55.5018
17.2205 66.8296
17.401 68.6667
17.5815 58.5936
17.7622 60.6362
17.9428 73.1077
18.1237 141.138
18.3044 91.2731
18.4852 73.841
18.666 59.5344
18.8469 57.3012
19.0278 56.234
19.2088 58.7667
19.3898 75.6656
19.5709 53.4178
19.752 52.7148
19.9332 55.839
20.1144 69.7591
20.2957 64.0187
20.477 52.2764
20.6586 49.1845
20.84 48.3364
21.0215 48.0754
21.203 50.5475
21.3846 48.1971
21.5662 48.4229
21.7479 52.2452
21.9297 64.2367
22.1115 55.8447
22.2933 49.0353
22.4753 48.2232
22.6572 48.3268
22.8393 51.5803
23.0214 56.3988
23.2037 48.2367
23.3859 49.2833
23.5682 57.0617
23.7505 47.3969
23.9329 44.5499
24.1154 43.7063
24.2979 42.9793
24.4805 42.4218
24.6631 42.381
24.8458 41.8754
25.0286 42.4907
25.2114 44.224
25.3943 44.1635
25.5773 40.5016
25.7605 39.9957
25.9436 40.4946
26.1268 41.1866
26.31 39.5689
26.4933 40.3336
26.6767 41.8324
26.8601 40.052
27.0437 38.4415
27.2272 38.1239
27.4109 37.9439
27.5946 38.1127
27.7784 37.4107
27.9623 38.0771
28.1462 38.3884
28.3304 36.7306
28.5145 35.6599
28.6987 35.2501
28.8829 35.0664
29.0673 34.232
29.2517 33.9878
29.4361 33.7963
29.6207 32.8165
29.8053 32.6228
29.99 32.1962
30.1748 32.149
30.3597 31.8864
30.5447 31.9122
30.7297 31.9086
30.915 31.1974
31.1002 30.6932
31.2855 30.6143
31.4708 30.5513
31.6563 29.9843
31.8418 29.837
32.0275 29.6837
32.2132 29.0484
32.399 28.602
32.5848 28.1592
32.7708 27.8598
32.9569 27.6856
33.143 27.4708
33.3293 27.184
33.5158 26.7491
33.7022 26.3581
33.8887 26.1091
34.0753 25.7236
34.262 25.3391
34.4488 25.0408
34.6357 24.6612
34.8227 24.437
35.0098 24.2406
35.1969 23.9337
35.3842 23.6771
35.5716 23.5279
35.759 23.2101
35.9468 22.8345
36.1345 22.6985
36.3222 22.3942
36.5101 22.2242
36.6981 21.9549
36.8861 21.5492
37.0743 21.2777
37.2626 21.047
37.451 20.7589
37.6395 20.6214
37.8281 20.2833
38.0168 19.9889
38.2056 19.6928
38.3945 19.4966
38.5837 19.2221
38.7728 19.0257
38.9621 18.7648
39.1514 18.5387
39.3409 18.2987
39.5304 18.0825
39.7201 17.9102
39.9099 17.6562
40.0999 17.3855
40.2899 17.1817
40.48 16.9677
40.6703 16.7203
40.8607 16.5393
41.0512 16.3124
41.242 16.0717
41.4327 15.8716
41.6236 15.6498
41.8146 15.5154
42.0057 15.2178
42.1969 15.0439
42.3882 14.8859
42.5797 14.6335
42.7713 14.4456
42.963 14.2947
43.1549 14.0546
43.3468 13.8685
43.5389 13.7133
43.7312 13.4868
43.9237 13.3342
44.1162 13.1639
44.3088 12.9844
44.5016 12.7191
44.6945 12.5802
44.8875 12.4169
45.0806 12.2365
45.2739 12.0647
45.4673 11.8897
45.6609 11.7225
45.8546 11.6129
46.0484 11.4
46.2424 11.2631
46.4365 11.0384
46.631 10.9318
46.8254 10.7472
47.0199 10.5478
47.2146 10.4394
47.4095 10.2473
47.6044 10.1108
47.7996 9.96555
47.9948 9.83639
48.1902 9.69305
48.3858 9.56222
48.5815 9.43137
48.7774 9.30285
48.9734 9.15309
49.1696 9.00202
49.3661 8.88208
49.5626 8.71837
49.7592 8.64269
49.956 8.47199
50.153 8.3642
50.3501 8.20508
50.5474 8.09689
50.7448 7.96501
50.9424 7.83565
51.1402 7.71556
51.3381 7.54544
51.5362 7.46239
51.7344 7.31976
51.9328 7.19184
52.1316 7.09148
52.3304 6.97556
52.5293 6.88312
52.7284 6.76542
52.9276 6.63389
53.1271 6.54817
53.3267 6.38994
53.5265 6.31289
53.7264 6.20833
53.9266 6.09218
54.1269 5.9719
54.3274 5.87893
54.528 5.73485
54.7289 5.58562
54.9301 5.40874
55.1314 5.25804
55.3328 5.06362
55.5344 4.91615
55.7361 4.75332

File: Ni3Fe_FD0800.xy
TT I
1.27165 7.09272
1.45013 6.06408
1.62863 5.1727
1.80712 4.25334
1.98562 4.46888
2.16411 5.05264
2.34263 5.71062
2.52115 7.24802
2.69965 8.33593
2.87818 8.47295
3.05672 10.9345
3.23527 14.7503
3.4138 18.4107
3.59237 23.1807
3.77094 25.8008
3.9495 29.6944
4.12809 34.3826
4.30669 128.397
4.4853 56.7003
4.6639 55.2192
4.84253 67.5
5.02118 86.7235
5.19981 381.134
5.37848 182.766
5.55716 100.935
5.73586 92.0639
5.91455 94.3182
6.09328 4590.26
6.27201 80.2591
6.45075 68.0014
6.62952 62.1445
6.8083 58.0121
6.98711 55.1683
7.16591 55.0797
7.34475 73.0385
7.5236 53.8254
7.70247 55.9875
7.88135 57.4102
8.06026 62.0379
8.23919 69.2284
8.41812 83.4567
8.59709 1211.59
8.77609 97.2249
8.9551 88.4589
9.13412 82.0604
9.31318 83.1498
9.49226 84.6804
9.67134 94.9483
9.85047 100.174
10.0296 344.801
10.2088 339.918
10.388 103.88
10.5672 540.669
10.7465 85.4273
10.9257 76.9516
11.105 70.7017
11.2844 68.3312
11.4637 63.9946
11.6431 63.0714
11.8225 61.8917
12.002 63.4218
12.1814 157.837
12.3609 66.7243
12.5405 64.2443
12.72 67.7955
12.8996 70.7164
13.0792 79.2219
13.2589 247.867
13.4386 117.034
13.6183 257.596
13.7981 92.262
13.9779 75.2017
14.1577 71.3657
14.3376 69.9169
14.5175 68.0974
14.6974 69.8982
14.8774 111.389
15.0574 140.603
15.2374 69.1378
15.4175 65.765
15.5976 65.2224
15.7778 95.1087
15.958 145.404
16.1382 60.8849
16.3185 57.4477
16.4988 54.8283
16.6792 53.738
16.8596 54.395
17.04 55.4537
17.2205 66.7891
17.401 68.6606
17.5815 58.4694
17.7622 60.6912
17.9428 73.0311
18.1237 141.504
18.3044 91.3778
18.4852 73.7928
18.666 59.5698
18.8469 57.4796
19.0278 56.1517
19.2088 58.6584
19.3898 75.9125
19.5709 53.5753
19.752 52.6577
19.9332 55.6463
20.1144 69.7979
20.2957 64.0452
20.477 52.4603
20.6586 49.09
20.84 48.1891
21.0215 48.0655
21.203 50.4208
21.3846 48.3249
21.5662 48.5607
21.7479 52.261
21.9297 64.3118
22.1115 55.9244
22.2933 49.1592
22.4753 48.3134
22.6572 48.436
22.8393 51.6856
23.0214 56.6136
23.2037 48.286
23.3859 49.4789
23.5682 57.0393
23.7505 47.4246
23.9329 44.7087
24.1154 43.6082
24.2979 42.9743
24.4805 42.624
24.6631 42.3978
24.8458 41.7966
25.0286 42.5051
25.2114 44.2831
25.3943 44.1902
25.5773 40.4399
25.7605 39.9005
25.9436 40.4236
26.1268 41.2652
26.31 39.6957
26.4933 40.3754
26.6767 41.9384
26.8601 40.0669
27.0437 38.5546
27.2272 38.1448
27.4109 38.0524
27.5946 37.9583
27.7784 37.6229
27.9623 38.1461
28.1462 38.3415
28.3304 36.6909
28.5145 35.6325
28.6987 35.3201
28.8829 35.0715
29.0673 34.3947
29.2517 34.0221
29.4361 33.7157
29.6207 32.7354
29.8053 32.5409
29.99 32.1767
30.1748 32.0646
30.3597 31.9208
30.5447 31.7131
30.7297 31.9327
30.915 31.2256
31.1002 30.8891
31.2855 30.6041
31.4708 30.5675
31.6563 30.0343
31.8418 29.793
32.0275 29.5836
32.2132 29.0998
32.399 28.5982
32.5848 28.1882
32.7708 27.871
32.9569 27.6692
33.143 27.5649
33.3293 27.1754
33.5158 26.7683
33.7022 26.2596
33.8887 25.9929
34.0753 25.7374
34.262 25.4158
34.4488 25.0932
34.6357 24.8119
34.8227 24.4306
35.0098 24.3031
35.1969 23.9406
35.3842 23.7862
35.5716 23.5695
35.759 23.2494
35.9468 22.7982
36.1345 22.7187
36.3222 22.4353
36.5101 22.1853
36.6981 21.8734
36.8861 21.5887
37.0743 21.2809
37.2626 20.9837
37.451 20.7596
37.6395 20.5554
37.8281 20.2971
38.0168 19.9636
38.2056 19.7345
38.3945 19.5217
38.5837 19.2169
38.7728 18.9727
38.9621 18.7573
39.1514 18.5242
39.3409 18.2231
39.5304 18.066
39.7201 17.9214
39.9099 17.7019
40.0999 17.3998
40.2899 17.1938
40.48 16.9549
40.6703 16.7288
40.8607 16.5704
41.0512 16.3159
41.242 16.1042
41.4327 15.8838
41.6236 15.7266
41.8146 15.5089
42.0057 15.2359
42.1969 15.0821
42.3882 14.8647
42.5797 14.6713
42.7713 14.4962
42.963 14.301
43.1549 14.0555
43.3468 13.8581
43.5389 13.6876
43.7312 13.4876
43.9237 13.3029
44.1162 13.1512
44.3088 12.959
44.5016 12.7109
44.6945 12.6044
44.8875 12.4679
45.0806 12.1983
45.2739 12.0485
45.4673 11.8907
45.6609 11.7736
45.8546 11.5743
46.0484 11.3962
46.2424 11.2233
46.4365 11.0812
46.631 10.8945
46.8254 10.7378
47.0199 10.5886
47.2146 10.4795
47.4095 10.2911
47.6044 10.1598
47.7996 9.98535
47.9948 9.872
48.1902 9.73089
48.3858 9.56614
48.5815 9.44432
48.7774 9.32613
48.9734 9.19853
49.1696 9.0237
49.3661 8.85394
49.5626 8.72079
49.7592 8.60713
49.956 8.46729
50.153 8.33151
50.3501 8.20741
50.5474 8.08591
50.7448 8.0231
50.9424 7.85043
51.1402 7.68451
51.3381 7.55405
51.5362 7.48468
51.7344 7.35358
51.9328 7.22383
52.1316 7.09869
52.3304 6.99379
52.5293 6.90264
52.7284 6.79652
52.9276 6.68125
53.1271 6.54297
53.3267 6.46315
53.5265 6.35053
53.7264 6.20842
53.9266 6.09424
54.1269 6.03622
54.3274 5.86445
54.528 5.76359
54.7289 5.57444
54.9301 5.3836
55.1314 5.28525
55.3328 5.09791
55.5344 4.91118
55.7361 4.76427

File: Ni3Fe_FD0801.xy
TT I
1.27165 6.98895
1.45013 6.1005
1.62863 5.45296
1.80712 5.09951
1.98562 5.00493
2.16411 4.77737
2.34263 6.07222
2.52115 6.84728
2.69965 8.3242
2.87818 9.15434
3.05672 10.7531
3.23527 14.9253
3.4138 18.8629
3.59237 22.9128
3.77094 25.8696
3.9495 29.1972
4.12809 34.2469
4.30669 125.869
4.4853 56.3788
4.6639 54.9579
4.84253 67.8841
5.02118 86.5883
5.19981 382.265
5.37848 183.604
5.55716 101.277
5.73586 91.9459
5.91455 93.9956
6.09328 4545.75
6.27201 79.405
6.45075 68.0038
6.62952 61.9051
6.8083 58.3964
6.98711 54.863
7.16591 55.2593
7.34475 72.0259
7.5236 53.8061
7.70247 55.7607
7.88135 57.1965
8.06026 61.7241
8.23919 68.7748
8.41812 83.8225
8.59709 1215.21
8.77609 96.5679
8.9551 88.4451
9.13412 81.4589
9.31318 83.3597
9.49226 83.7829
9.67134 94.7882
9.85047 99.8252
10.0296 343.785
10.2088 342.125
10.388 103.617
10.5672 535.173
10.7465 85.0881
10.9257 77.0709
11.105 70.5637
11.2844 67.9873
11.4637 64.0262
11.6431 63.062
11.8225 61.8785
12.002 63.5678
12.1814 157.537
12.3609 66.6905
12.5405 63.9158
12.72 67.7015
12.8996 70.6592
13.0792 79.1031
13.2589 247.802
13.4386 117.128
13.6183 256.598
13.7981 92.3414
13.9779 74.9892
14.1577 71.0933
14.3376 69.6278
14.5175 68.0676
14.6974 69.7837
14.8774 111.383
15.0574 141.456
15.2374 69.1417
15.4175 65.5088
15.5976 65.3115
15.7778 94.689
15.958 145.814
16.1382 60.8587
16.3185 57.33
16.4988 54.8244
16.6792 53.8071
16.8596 54.2135
17.04 55.431
17.2205 66.8661
17.401 68.6527
17.5815 58.5552
17.7622 60.6457
17.9428 73.1337
18.1237 141.474
18.3044 90.9313
18.4852 73.9483
18.666 59.4715
18.8469 57.2337
19.0278 56.3666
19.2088 58.7122
19.3898 75.829
19.5709 53.4547
19.752 52.6417
19.9332 55.4585
20.1144 69.6561
20.2957 63.7747
20.477 52.5606
20.6586 49.0692
20.84 48.2829
21.0215 48.0257
21.203 50.4473
21.3846 48.2147
21.5662 48.2559
21.7479 52.3819
21.9297 64.2462
22.1115 55.8189
22.2933 49.2693
22.4753 48.1488
22.6572 48.4123
22.8393 51.4524
23.0214 56.5485
23.2037 48.1513
23.3859 49.3129
23.5682 56.8621
23.7505 47.3791
23.9329 44.72
24.1154 43.7059
24.2979 42.9048
24.4805 42.4261
24.6631 42.2195
24.8458 41.826
25.0286 42.5163
25.2114 44.2308
25.3943 44.1842
25.5773 40.4519
25.7605 39.9805
25.9436 40.4159
26.1268 41.2713
26.31 39.647
26.4933 40.3981
26.6767 41.7687
26.8601 39.9319
27.0437 38.5019
27.2272 38.1628
27.4109 38.0576
27.5946 37.9778
27.7784 37.4693
27.9623 38.0577
28.1462 38.5142
28.3304 36.6691
28.5145 35.5935
28.6987 35.1929
28.8829 35.0994
29.0673 34.1898
29.2517 34.0181
29.4361 33.8656
29.6207 32.7068
29.8053 32.5476
29.99 32.2104
30.1748 32.1273
30.3597 31.92
30.5447 31.7388
30.7297 31.7744
30.915 31.1625
31.1002 30.7662
31.2855 30.6064
31.4708 30.5996
31.6563 29.94
31.8418 29.8051
32.0275 29.4802
32.2132 29.0326
32.399 28.6148
32.5848 28.1289
32.7708 27.817
32.9569 27.6704
33.143 27.5017
33.3293 27.0984
33.5158 26.6403
33.7022 26.3006
33.8887 25.9828
34.0753 25.6426
34.262 25.4695
34.4488 24.998
34.6357 24.6883
34.8227 24.447
35.0098 24.2627
35.1969 24.0102
35.3842 23.6973
35.5716 23.6201
35.759 23.1885
35.9468 22.8102
36.1345 22.6989
36.3222 22.4063
36.5101 22.1909
36.6981 21.8623
36.8861 21.5366
37.0743 21.3196
37.2626 21.0344
37.451 20.7148
37.6395 20.5393
37.8281 20.2627
38.0168 20.0276
38.2056 19.7622
38.3945 19.455
38.5837 19.1691
38.7728 18.9874
38.9621 18.6941
39.1514 18.4689
39.3409 18.1977
39.5304 18.0603
39.7201 17.8478
39.9099 17.6069
40.0999 17.3302
40.2899 17.1799
40.48 16.9309
40.6703 16.6806
40.8607 16.5677
41.0512 16.3507
41.242 16.0944
41.4327 15.8423
41.6236 15.6429
41.8146 15.4651
42.0057 15.2102
42.1969 15.0888
42.3882 14.9067
42.5797 14.6638
42.7713 14.5195
42.963 14.292
43.1549 14.0202
43.3468 13.8337
43.5389 13.6751
43.7312 13.4508
43.9237 13.3472
44.1162 13.0996
44.3088 12.9725
44.5016 12.7689
44.6945 12.564
44.8875 12.4083
45.0806 12.2439
45.2739 12.0461
45.4673 11.9407
45.6609 11.7454
45.8546 11.5717
46.0484 11.3785
46.2424 11.2214
46.4365 11.104
46.631 10.891
46.8254 10.7403
47.0199 10.5721
47.2146 10.4636
47.4095 10.2913
47.6044 10.149
47.7996 9.92803
47.9948 9.78804
48.1902 9.66199
48.3858 9.55248
48.5815 9.43837
48.7774 9.276
48.9734 9.15297
49.1696 9.00326
49.3661 8.85291
49.5626 8.71217
49.7592 8.61106
49.956 8.43547
50.153 8.3562
50.3501 8.18227
50.5474 8.06431
50.7448 7.98796
50.9424 7.82124
51.1402 7.73484
51.3381 7.5705
51.5362 7.48164
51.7344 7.33805
51.9328 7.22223
52.1316 7.09481
52.3304 7.00874
52.5293 6.8997
52.7284 6.74264
52.9276 6.66485
53.1271 6.54589
53.3267 6.45552
53.5265 6.31159
53.7264 6.19382
53.9266 6.11561
54.1269 6.02306
54.3274 5.85477
54.528 5.74127
54.7289 5.56104
54.9301 5.36701
55.1314 5.26911
55.3328 5.10804
55.5344 4.95522
55.7361 4.7681

File: Ni3Fe_FD0802.xy
TT I
1.27165 7.77776
1.45013 5.93946
1.62863 5.51517
1.80712 4.6737
1.98562 4.76137
2.16411 4.51438
2.34263 5.71052
2.52115 7.07491
2.69965 8.02453
2.87818 8.18832
3.05672 11.2419
3.23527 15.0422
3.4138 18.5618
3.59237 23.1745
3.77094 25.5849
3.9495 29.385
4.12809 33.8015
4.30669 124.625
4.4853 55.6094
4.6639 55.3195
4.84253 67.582
5.02118 86.2157
5.19981 384.096
5.37848 184.656
5.55716 101.478
5.73586 91.64
5.91455 94.1034
6.09328 4536.72
6.27201 80.2342
6.45075 67.9583
6.62952 62.1445
6.8083 58.9823
6.98711 55.1432
7.16591 55.4943
7.34475 72.1144
7.5236 53.9068
7.70247 55.8821
7.88135 56.9439
8.06026 62.1377
8.23919 68.7155
8.41812 83.3328
8.59709 1215.94
8.77609 96.9876
8.9551 88.7292
9.13412 82.0913
9.31318 83.1472
9.49226 83.7944
9.67134 94.5549
9.85047 100.152
10.0296 343.302
10.2088 343.226
10.388 103.909
10.5672 531.73
10.7465 84.988
10.9257 77.4871
11.105 70.8385
11.2844 68.2703
11.4637 64.3338
11.6431 62.4728
11.8225 61.9215
12.002 63.7175
12.1814 157.214
12.3609 66.7312
12.5405 63.784
12.72 67.7305
12.8996 70.6786
13.0792 79.322
13.2589 247.323
13.4386 117.504
13.6183 256.5
13.7981 92.2114
13.9779 75.1012
14.1577 71.2404
14.3376 69.7965
14.5175 68.0865
14.6974 69.825
14.8774 111.415
15.0574 141.06
15.2374 69.0912
15.4175 65.5782
15.5976 65.4005
15.7778 94.9408
15.958 145.802
16.1382 60.7116
16.3185 57.5621
16.4988 54.685
16.6792 54.0587
16.8596 54.2029
17.04 55.4038
17.2205 66.8256
17.401 68.653
17.5815 58.6209
17.7622 60.6927
17.9428 73.0353
18.1237 141.177
18.3044 91.1301
18.4852 74.3557
18.666 59.8435
18.8469 57.3692
19.0278 56.182
19.2088 58.5235
19.3898 75.7283
19.5709 53.3877
19.752 52.712
19.9332 55.7457
20.1144 69.8513
20.2957 63.9071
20.477 52.5975
20.6586 49.0297
20.84 48.224
21.0215 47.9357
21.203 50.5749
21.3846 48.4333
21.5662 48.4229
21.7479 52.2587
21.9297 64.2967
22.1115 55.8763
22.2933 49.2474
22.4753 48.2994
22.6572 48.4793
22.8393 51.7607
23.0214 56.5776
23.2037 48.2258
23.3859 49.2597
23.5682 57.1896
23.7505 47.3774
23.9329 44.731
24.1154 43.6225
24.2979 42.9585
24.4805 42.5111
24.6631 42.4449
24.8458 41.8027
25.0286 42.4706
25.2114 44.0982
25.3943 44.1939
25.5773 40.5479
25.7605 40.015
25.9436 40.4522
26.1268 41.2654
26.31 39.6671
26.4933 40.3247
26.6767 41.7069
26.8601 39.9809
27.0437 38.4954
27.2272 38.0346
27.4109 37.9601
27.5946 38.0005
27.7784 37.544
27.9623 38.0673
28.1462 38.2673
28.3304 36.5985
28.5145 35.4964
28.6987 35.3034
28.8829 35.1418
29.0673 34.278
29.2517 34.059
29.4361 33.8172
29.6207 32.7578
29.8053 32.5629
29.99 32.2527
30.1748 32.1065
30.3597 31.932
30.5447 31.8738
30.7297 31.9822
30.915 31.285
31.1002 30.7541
31.2855 30.6495
31.4708 30.5678
31.6563 30.0376
31.8418 29.8692
32.0275 29.6745
32.2132 29.1129
32.399 28.6478
32.5848 28.2008
32.7708 27.8826
32.9569 27.6741
33.143 27.5256
33.3293 27.0987
33.5158 26.6997
33.7022 26.3202
33.8887 26.1459
34.0753 25.7293
34.262 25.3961
34.4488 25.0791
34.6357 24.6804
34.8227 24.4339
35.0098 24.1939
35.1969 23.9312
35.3842 23.7866
35.5716 23.5596
35.759 23.2629
35.9468 22.8347
36.1345 22.6912
36.3222 22.4019
36.5101 22.1234
36.6981 21.9439
36.8861 21.6282
37.0743 21.3207
37.2626 21.0438
37.451 20.7449
37.6395 20.6227
37.8281 20.3194
38.0168 19.9795
38.2056 19.8029
38.3945 19.4401
38.5837 19.2486
38.7728 19.0525
38.9621 18.7326
39.1514 18.4658
39.3409 18.2716
39.5304 18.0722
39.7201 17.866
39.9099 17.6819
40.0999 17.4325
40.2899 17.175
40.48 16.9461
40.6703 16.7009
40.8607 16.5605
41.0512 16.3574
41.242 16.0973
41.4327 15.9349
41.6236 15.6764
41.8146 15.4862
42.0057 15.2692
42.1969 15.0606
42.3882 14.916
42.5797 14.667
42.7713 14.4866
42.963 14.2631
43.1549 14.0687
43.3468 13.8689
43.5389 13.6944
43.7312 13.5286
43.9237 13.3069
44.1162 13.1399
44.3088 12.9241
44.5016 12.7776
44.6945 12.5891
44.8875 12.4206
45.0806 12.2727
45.2739 12.0467
45.4673 11.9132
45.6609 11.6915
45.8546 11.6186
46.0484 11.4186
46.2424 11.2717
46.4365 11.1048
46.631 10.9168
46.8254 10.7378
47.0199 10.6037
47.2146 10.4647
47.4095 10.2911
47.6044 10.1483
47.7996 10.0053
47.9948 9.82964
48.1902 9.67832
48.3858 9.5809
48.5815 9.42442
48.7774 9.32902
48.9734 9.17377
49.1696 9.00309
49.3661 8.87715
49.5626 8.69177
49.7592 8.6167
49.956 8.46661
50.153 8.34884
50.3501 8.20294
50.5474 8.11017
50.7448 7.98473
50.9424 7.84557
51.1402 7.75667
51.3381 7.61187
51.5362 7.45243
51.7344 7.35373
51.9328 7.21065
52.1316 7.07481
52.3304 6.97213
52.5293 6.88063
52.7284 6.78681
52.9276 6.65093
53.1271 6.54102
53.3267 6.41528
53.5265 6.27335
53.7264 6.21505
53.9266 6.06131
54.1269 6.00729
54.3274 5.90288
54.528 5.7632
54.7289 5.5937
54.9301 5.40685
55.1314 5.33126
55.3328 5.0841
55.5344 4.86545
55.7361 4.78096