Folder: NiFe_MOF_catalyst_paper/XRD (part 12)

File: Ni3Fe_FD0059.xy
TT I
1.27165 32.5376
1.45013 26.9451
1.62863 23.065
1.80712 20.6705
1.98562 20.3508
2.16411 19.9198
2.34263 20.6632
2.52115 21.9241
2.69965 25.6601
2.87818 36.1516
3.05672 63.9853
3.23527 63.6471
3.4138 33.5973
3.59237 26.6199
3.77094 25.7031
3.9495 27.2708
4.12809 29.6597
4.30669 37.7012
4.4853 37.8281
4.6639 43.6317
4.84253 55.9396
5.02118 106.175
5.19981 331.819
5.37848 2874.01
5.55716 149.436
5.73586 103.517
5.91455 121.125
6.09328 603.99
6.27201 203.688
6.45075 64.1685
6.62952 48.1799
6.8083 42.2517
6.98711 41.4605
7.16591 43.8235
7.34475 39.8926
7.5236 64.2573
7.70247 44.1794
7.88135 39.4539
8.06026 41.4877
8.23919 47.4592
8.41812 61.0369
8.59709 194.874
8.77609 317.163
8.9551 74.2243
9.13412 66.5594
9.31318 304.843
9.49226 60.3847
9.67134 59.1112
9.85047 65.6903
10.0296 128.885
10.2088 703.377
10.388 96.4439
10.5672 101.353
10.7465 178.915
10.9257 52.7035
11.105 45.8298
11.2844 43.8625
11.4637 40.9452
11.6431 40.2326
11.8225 41.1769
12.002 116.535
12.1814 51.4308
12.3609 80.4033
12.5405 42.6402
12.72 40.7963
12.8996 42.6428
13.0792 50.0094
13.2589 70.1118
13.4386 188.58
13.6183 79.5678
13.7981 176.3
13.9779 54.2113
14.1577 70.1431
14.3376 47.1277
14.5175 42.7651
14.6974 42.545
14.8774 50.3007
15.0574 82.191
15.2374 57.0126
15.4175 42.4629
15.5976 41.5037
15.7778 46.9829
15.958 67.9648
16.1382 72.9997
16.3185 38.5924
16.4988 35.423
16.6792 34.5551
16.8596 34.7754
17.04 41.1249
17.2205 36.2184
17.401 42.1191
17.5815 38.8369
17.7622 39.1608
17.9428 41.5147
18.1237 46.7565
18.3044 75.2578
18.4852 57.0284
18.666 46.5687
18.8469 37.4326
19.0278 35.9932
19.2088 36.3921
19.3898 47.6897
19.5709 43.0988
19.752 34.3828
19.9332 33.9197
20.1144 34.8121
20.2957 41.5862
20.477 39.5789
20.6586 33.0931
20.84 35.1465
21.0215 30.6714
21.203 30.5941
21.3846 31.7057
21.5662 31.6434
21.7479 31.4518
21.9297 32.7504
22.1115 39.8899
22.2933 36.4681
22.4753 31.6116
22.6572 30.7965
22.8393 32.2744
23.0214 32.1057
23.2037 35.9294
23.3859 31.8442
23.5682 32.7486
23.7505 35.8052
23.9329 31.0855
24.1154 29.5173
24.2979 28.1489
24.4805 27.5784
24.6631 28.0494
24.8458 27.4343
25.0286 27.0117
25.2114 27.3523
25.3943 28.4598
25.5773 28.6169
25.7605 26.546
25.9436 26.6128
26.1268 25.9969
26.31 26.8652
26.4933 26.0139
26.6767 26.0303
26.8601 27.3165
27.0437 27.0179
27.2272 25.2816
27.4109 24.8847
27.5946 24.9151
27.7784 24.9844
27.9623 24.4794
28.1462 25.0783
28.3304 25.3176
28.5145 24.3644
28.6987 23.5517
28.8829 23.022
29.0673 22.8814
29.2517 22.5598
29.4361 22.0167
29.6207 22.0285
29.8053 21.5959
29.99 21.3431
30.1748 21.3703
30.3597 21.0741
30.5447 21.1152
30.7297 20.7772
30.915 21.0808
31.1002 20.8904
31.2855 20.424
31.4708 20.2183
31.6563 20.2005
31.8418 20.0682
32.0275 19.7468
32.2132 19.6495
32.399 19.4311
32.5848 19.0826
32.7708 18.626
32.9569 18.5915
33.143 18.4254
33.3293 18.2472
33.5158 18.2115
33.7022 17.8171
33.8887 17.5696
34.0753 17.2767
34.262 17.0677
34.4488 16.8444
34.6357 16.7582
34.8227 16.4906
35.0098 16.3962
35.1969 16.0986
35.3842 15.9314
35.5716 15.9271
35.759 15.8418
35.9468 15.6172
36.1345 15.3356
36.3222 15.2679
36.5101 15.0792
36.6981 14.897
36.8861 14.6739
37.0743 14.4574
37.2626 14.3693
37.451 14.1378
37.6395 14.0558
37.8281 13.8279
38.0168 13.6635
38.2056 13.5139
38.3945 13.3247
38.5837 13.0954
38.7728 12.9726
38.9621 12.8556
39.1514 12.6926
39.3409 12.4918
39.5304 12.4279
39.7201 12.2535
39.9099 12.08
40.0999 11.9464
40.2899 11.7898
40.48 11.6446
40.6703 11.5151
40.8607 11.4011
41.0512 11.311
41.242 11.082
41.4327 10.9718
41.6236 10.8891
41.8146 10.6788
42.0057 10.5889
42.1969 10.4078
42.3882 10.2889
42.5797 10.1385
42.7713 9.99054
42.963 9.86079
43.1549 9.73618
43.3468 9.62288
43.5389 9.50559
43.7312 9.38699
43.9237 9.29321
44.1162 9.0932
44.3088 9.03644
44.5016 8.90075
44.6945 8.73556
44.8875 8.67499
45.0806 8.55545
45.2739 8.41644
45.4673 8.33995
45.6609 8.17988
45.8546 8.0745
46.0484 7.98104
46.2424 7.87207
46.4365 7.76266
46.631 7.65248
46.8254 7.56469
47.0199 7.4587
47.2146 7.35484
47.4095 7.21416
47.6044 7.12814
47.7996 7.00277
47.9948 6.94217
48.1902 6.82503
48.3858 6.7331
48.5815 6.65956
48.7774 6.53083
48.9734 6.43684
49.1696 6.35226
49.3661 6.26392
49.5626 6.15262
49.7592 6.11178
49.956 6.01572
50.153 5.90648
50.3501 5.83067
50.5474 5.77289
50.7448 5.66906
50.9424 5.59406
51.1402 5.50895
51.3381 5.39449
51.5362 5.31776
51.7344 5.25136
51.9328 5.18751
52.1316 5.08415
52.3304 5.02525
52.5293 4.93225
52.7284 4.86233
52.9276 4.76585
53.1271 4.72684
53.3267 4.63565
53.5265 4.56776
53.7264 4.44041
53.9266 4.38152
54.1269 4.27119
54.3274 4.19529
54.528 4.05866
54.7289 3.96652
54.9301 3.85183
55.1314 3.7565
55.3328 3.55122
55.5344 3.45608
55.7361 3.35233

File: Ni3Fe_FD0060.xy
TT I
1.27165 32.3936
1.45013 26.2378
1.62863 22.9666
1.80712 21.2369
1.98562 20.0609
2.16411 20.0508
2.34263 20.3107
2.52115 21.0108
2.69965 25.5681
2.87818 35.2072
3.05672 63.2051
3.23527 63.899
3.4138 33.4303
3.59237 26.6752
3.77094 25.1926
3.9495 26.5306
4.12809 29.3746
4.30669 37.693
4.4853 38.0136
4.6639 43.4119
4.84253 55.7955
5.02118 105.245
5.19981 333.521
5.37848 2843.01
5.55716 148.54
5.73586 104.097
5.91455 121.31
6.09328 608.393
6.27201 201.656
6.45075 63.8979
6.62952 48.3122
6.8083 42.2905
6.98711 41.9036
7.16591 43.508
7.34475 39.8019
7.5236 64.81
7.70247 43.8809
7.88135 39.4894
8.06026 41.595
8.23919 47.4486
8.41812 61.0609
8.59709 196.532
8.77609 311.839
8.9551 74.2768
9.13412 66.4554
9.31318 301.658
9.49226 59.773
9.67134 58.9961
9.85047 65.825
10.0296 130.232
10.2088 703.283
10.388 95.8767
10.5672 101.7
10.7465 176.62
10.9257 52.4157
11.105 46.0509
11.2844 43.6823
11.4637 41.1481
11.6431 40.4553
11.8225 40.8179
12.002 116.26
12.1814 51.6844
12.3609 79.5856
12.5405 42.5836
12.72 40.6062
12.8996 42.7275
13.0792 49.8194
13.2589 70.1401
13.4386 188.027
13.6183 79.3279
13.7981 175.03
13.9779 54.3374
14.1577 70.6219
14.3376 47.0468
14.5175 42.8524
14.6974 42.6081
14.8774 50.4549
15.0574 82.6768
15.2374 56.4078
15.4175 42.6253
15.5976 41.582
15.7778 46.9795
15.958 68.2089
16.1382 72.1379
16.3185 38.4515
16.4988 35.6916
16.6792 34.5519
16.8596 34.5915
17.04 40.9004
17.2205 36.4421
17.401 42.3745
17.5815 38.8357
17.7622 39.2818
17.9428 41.6156
18.1237 46.8013
18.3044 74.4568
18.4852 56.9478
18.666 46.3664
18.8469 37.4378
19.0278 35.8581
19.2088 36.4627
19.3898 47.4538
19.5709 42.792
19.752 34.4058
19.9332 33.7281
20.1144 34.8409
20.2957 41.3497
20.477 39.5498
20.6586 33.0434
20.84 35.1908
21.0215 30.7774
21.203 30.46
21.3846 31.623
21.5662 31.5384
21.7479 31.3503
21.9297 32.7347
22.1115 39.7651
22.2933 36.3597
22.4753 31.6107
22.6572 30.7636
22.8393 32.1841
23.0214 32.0816
23.2037 35.8858
23.3859 31.7417
23.5682 32.6813
23.7505 35.6514
23.9329 30.9357
24.1154 29.3898
24.2979 28.1925
24.4805 27.6269
24.6631 28.0501
24.8458 27.4561
25.0286 27.0003
25.2114 27.229
25.3943 28.3169
25.5773 28.6612
25.7605 26.493
25.9436 26.5763
26.1268 25.8341
26.31 26.8516
26.4933 25.9561
26.6767 25.8727
26.8601 27.3128
27.0437 26.9758
27.2272 25.3831
27.4109 24.7985
27.5946 24.9038
27.7784 24.9326
27.9623 24.5369
28.1462 24.9871
28.3304 25.2144
28.5145 24.2246
28.6987 23.3834
28.8829 22.8652
29.0673 22.8095
29.2517 22.4508
29.4361 22.0051
29.6207 21.9933
29.8053 21.5955
29.99 21.3295
30.1748 21.2942
30.3597 21.0558
30.5447 20.9247
30.7297 20.7552
30.915 20.8678
31.1002 20.8682
31.2855 20.3942
31.4708 20.0955
31.6563 20.1434
31.8418 19.983
32.0275 19.8131
32.2132 19.7389
32.399 19.3316
32.5848 18.9702
32.7708 18.682
32.9569 18.6532
33.143 18.4017
33.3293 18.1391
33.5158 18.0717
33.7022 17.8183
33.8887 17.4859
34.0753 17.3726
34.262 17.0923
34.4488 16.7872
34.6357 16.6764
34.8227 16.4863
35.0098 16.2797
35.1969 16.1234
35.3842 15.891
35.5716 15.8089
35.759 15.8135
35.9468 15.5662
36.1345 15.3445
36.3222 15.2036
36.5101 15.0966
36.6981 14.8155
36.8861 14.6648
37.0743 14.4948
37.2626 14.3122
37.451 14.1293
37.6395 13.9478
37.8281 13.7632
38.0168 13.6023
38.2056 13.438
38.3945 13.3049
38.5837 13.1331
38.7728 13.0141
38.9621 12.7838
39.1514 12.6685
39.3409 12.4715
39.5304 12.3094
39.7201 12.1716
39.9099 12.0691
40.0999 11.8602
40.2899 11.8165
40.48 11.6473
40.6703 11.5269
40.8607 11.3787
41.0512 11.2552
41.242 11.1498
41.4327 10.9807
41.6236 10.8047
41.8146 10.7185
42.0057 10.5592
42.1969 10.4133
42.3882 10.3086
42.5797 10.1665
42.7713 10.017
42.963 9.86529
43.1549 9.72723
43.3468 9.60255
43.5389 9.49314
43.7312 9.32241
43.9237 9.23132
44.1162 9.11027
44.3088 8.97078
44.5016 8.88102
44.6945 8.75643
44.8875 8.64178
45.0806 8.51526
45.2739 8.4091
45.4673 8.32903
45.6609 8.20094
45.8546 8.11068
46.0484 7.92838
46.2424 7.8615
46.4365 7.79395
46.631 7.64028
46.8254 7.54056
47.0199 7.4529
47.2146 7.31116
47.4095 7.18809
47.6044 7.11983
47.7996 7.00161
47.9948 6.89653
48.1902 6.78906
48.3858 6.72778
48.5815 6.63323
48.7774 6.51316
48.9734 6.4478
49.1696 6.35528
49.3661 6.23985
49.5626 6.1331
49.7592 6.06149
49.956 5.98636
50.153 5.95181
50.3501 5.83387
50.5474 5.75432
50.7448 5.67067
50.9424 5.5819
51.1402 5.52311
51.3381 5.38258
51.5362 5.32075
51.7344 5.21418
51.9328 5.15672
52.1316 5.07466
52.3304 5.00745
52.5293 4.94249
52.7284 4.84229
52.9276 4.77257
53.1271 4.73244
53.3267 4.61299
53.5265 4.53479
53.7264 4.46014
53.9266 4.37408
54.1269 4.28978
54.3274 4.16909
54.528 4.06938
54.7289 3.92196
54.9301 3.7923
55.1314 3.74241
55.3328 3.55318
55.5344 3.40588
55.7361 3.31214

File: Ni3Fe_FD0061.xy
TT I
1.27165 33.1172
1.45013 26.1239
1.62863 22.6447
1.80712 20.7596
1.98562 20.1044
2.16411 19.8752
2.34263 21.1487
2.52115 21.5291
2.69965 25.3993
2.87818 35.517
3.05672 63.2497
3.23527 63.2684
3.4138 33.137
3.59237 26.6031
3.77094 25.2423
3.9495 27.1125
4.12809 29.8389
4.30669 37.9822
4.4853 38.301
4.6639 43.6839
4.84253 56.18
5.02118 105.457
5.19981 337.999
5.37848 2790.99
5.55716 148.276
5.73586 104.036
5.91455 122.141
6.09328 616.886
6.27201 199.106
6.45075 64.1569
6.62952 48.3515
6.8083 42.78
6.98711 41.7903
7.16591 43.3197
7.34475 39.9569
7.5236 65.8468
7.70247 43.6183
7.88135 39.9012
8.06026 42.0907
8.23919 47.9011
8.41812 61.6313
8.59709 198.119
8.77609 303.026
8.9551 74.1281
9.13412 66.5797
9.31318 295.81
9.49226 60.4803
9.67134 59.5968
9.85047 66.1341
10.0296 132.454
10.2088 704.958
10.388 95.2843
10.5672 102.41
10.7465 172.843
10.9257 52.612
11.105 46.4728
11.2844 43.8542
11.4637 41.2046
11.6431 40.5573
11.8225 41.2324
12.002 115.969
12.1814 51.5172
12.3609 78.9081
12.5405 42.7728
12.72 41.0904
12.8996 42.8409
13.0792 50.4877
13.2589 70.7333
13.4386 187.489
13.6183 79.4372
13.7981 173.163
13.9779 54.1385
14.1577 71.5881
14.3376 46.8502
14.5175 42.9984
14.6974 42.9792
14.8774 50.7473
15.0574 83.8324
15.2374 55.6635
15.4175 42.7305
15.5976 41.5417
15.7778 47.0607
15.958 68.7675
16.1382 70.7213
16.3185 38.5314
16.4988 35.4924
16.6792 34.6481
16.8596 34.6668
17.04 40.6782
17.2205 36.2966
17.401 42.5893
17.5815 38.8398
17.7622 39.3592
17.9428 41.7814
18.1237 47.0434
18.3044 73.2942
18.4852 57.2892
18.666 46.0882
18.8469 37.5725
19.0278 36.0844
19.2088 36.5032
19.3898 47.6754
19.5709 42.7091
19.752 34.2561
19.9332 33.9755
20.1144 34.7916
20.2957 41.0306
20.477 39.4217
20.6586 33.1036
20.84 35.2019
21.0215 30.7596
21.203 30.4874
21.3846 31.7229
21.5662 31.6402
21.7479 31.2764
21.9297 32.7523
22.1115 39.5097
22.2933 36.1373
22.4753 31.44
22.6572 30.8137
22.8393 32.1934
23.0214 32.0912
23.2037 35.5021
23.3859 31.8497
23.5682 32.5153
23.7505 35.7115
23.9329 30.7595
24.1154 29.3421
24.2979 28.211
24.4805 27.5729
24.6631 28.0356
24.8458 27.4013
25.0286 27.0801
25.2114 27.2648
25.3943 28.281
25.5773 28.5787
25.7605 26.411
25.9436 26.4873
26.1268 25.8992
26.31 26.6408
26.4933 25.9289
26.6767 25.8019
26.8601 27.1883
27.0437 26.8766
27.2272 25.1671
27.4109 24.7591
27.5946 24.8183
27.7784 24.9537
27.9623 24.4177
28.1462 24.9745
28.3304 25.0831
28.5145 24.3507
28.6987 23.4928
28.8829 22.8928
29.0673 22.6977
29.2517 22.4495
29.4361 22.0586
29.6207 22.0037
29.8053 21.6068
29.99 21.2332
30.1748 21.3246
30.3597 21.0765
30.5447 21.0088
30.7297 20.714
30.915 20.9694
31.1002 20.8842
31.2855 20.3666
31.4708 20.1623
31.6563 20.1465
31.8418 19.9107
32.0275 19.7411
32.2132 19.7196
32.399 19.3599
32.5848 18.8839
32.7708 18.6997
32.9569 18.6157
33.143 18.3405
33.3293 18.1404
33.5158 18.143
33.7022 17.7442
33.8887 17.4706
34.0753 17.2237
34.262 17.097
34.4488 16.8059
34.6357 16.676
34.8227 16.4349
35.0098 16.2924
35.1969 16.1374
35.3842 15.9198
35.5716 15.8598
35.759 15.8194
35.9468 15.5087
36.1345 15.3658
36.3222 15.1693
36.5101 15.006
36.6981 14.8453
36.8861 14.7067
37.0743 14.4772
37.2626 14.2896
37.451 14.1363
37.6395 13.9901
37.8281 13.762
38.0168 13.6046
38.2056 13.4559
38.3945 13.2726
38.5837 13.12
38.7728 12.9631
38.9621 12.8728
39.1514 12.6454
39.3409 12.5206
39.5304 12.335
39.7201 12.1736
39.9099 12.0447
40.0999 11.9104
40.2899 11.7987
40.48 11.6235
40.6703 11.5065
40.8607 11.322
41.0512 11.2693
41.242 11.0663
41.4327 10.9277
41.6236 10.7667
41.8146 10.6847
42.0057 10.558
42.1969 10.4126
42.3882 10.2686
42.5797 10.1628
42.7713 10.0097
42.963 9.85773
43.1549 9.70451
43.3468 9.57775
43.5389 9.46339
43.7312 9.31934
43.9237 9.21446
44.1162 9.12836
44.3088 8.96699
44.5016 8.85744
44.6945 8.7236
44.8875 8.62244
45.0806 8.54051
45.2739 8.38516
45.4673 8.32796
45.6609 8.15112
45.8546 8.05635
46.0484 7.95817
46.2424 7.81968
46.4365 7.76677
46.631 7.6417
46.8254 7.48525
47.0199 7.41323
47.2146 7.32787
47.4095 7.16508
47.6044 7.06945
47.7996 7.00693
47.9948 6.89396
48.1902 6.79992
48.3858 6.69003
48.5815 6.62007
48.7774 6.52787
48.9734 6.4523
49.1696 6.35177
49.3661 6.21998
49.5626 6.14717
49.7592 6.0451
49.956 5.9951
50.153 5.89928
50.3501 5.78116
50.5474 5.73358
50.7448 5.65741
50.9424 5.59378
51.1402 5.49985
51.3381 5.38986
51.5362 5.32966
51.7344 5.20717
51.9328 5.17995
52.1316 5.06802
52.3304 4.98276
52.5293 4.90183
52.7284 4.82765
52.9276 4.79014
53.1271 4.7338
53.3267 4.60375
53.5265 4.53707
53.7264 4.44853
53.9266 4.38135
54.1269 4.31365
54.3274 4.16401
54.528 4.02204
54.7289 3.93112
54.9301 3.84299
55.1314 3.68104
55.3328 3.5594
55.5344 3.42578
55.7361 3.26351

File: Ni3Fe_FD0062.xy
TT I
1.27165 31.7617
1.45013 25.9586
1.62863 22.8633
1.80712 20.4493
1.98562 19.7343
2.16411 19.9251
2.34263 20.4516
2.52115 21.2545
2.69965 25.5147
2.87818 35.7431
3.05672 63.0467
3.23527 62.6366
3.4138 32.8494
3.59237 26.1604
3.77094 25.5772
3.9495 26.9213
4.12809 29.9374
4.30669 37.7769
4.4853 38.0958
4.6639 43.638
4.84253 56.6218
5.02118 105.659
5.19981 342.53
5.37848 2745.89
5.55716 146.963
5.73586 103.899
5.91455 122.558
6.09328 624.001
6.27201 196.191
6.45075 63.7361
6.62952 48.3522
6.8083 42.8917
6.98711 42.4657
7.16591 43.2806
7.34475 40.3139
7.5236 66.4949
7.70247 43.831
7.88135 39.874
8.06026 42.3643
8.23919 48.1467
8.41812 61.8355
8.59709 201.042
8.77609 296.167
8.9551 74.1427
9.13412 67.0139
9.31318 290.113
9.49226 60.6653
9.67134 59.6056
9.85047 66.3924
10.0296 134.247
10.2088 707.01
10.388 94.7635
10.5672 102.845
10.7465 169.786
10.9257 52.6939
11.105 46.5537
11.2844 44.1893
11.4637 41.3102
11.6431 40.589
11.8225 41.3901
12.002 115.657
12.1814 51.8959
12.3609 78.1304
12.5405 42.8783
12.72 41.1078
12.8996 42.9411
13.0792 50.6611
13.2589 70.6798
13.4386 187.261
13.6183 79.1989
13.7981 172.056
13.9779 54.1383
14.1577 72.3133
14.3376 46.6967
14.5175 42.9841
14.6974 43.0566
14.8774 51.1085
15.0574 84.5899
15.2374 55.0425
15.4175 42.6664
15.5976 41.6937
15.7778 47.4144
15.958 69.5343
16.1382 69.8404
16.3185 38.6941
16.4988 35.6163
16.6792 34.5677
16.8596 34.8006
17.04 40.7209
17.2205 36.5294
17.401 42.6902
17.5815 38.7584
17.7622 39.7173
17.9428 41.9943
18.1237 47.0817
18.3044 72.2514
18.4852 57.3218
18.666 45.785
18.8469 37.4869
19.0278 36.1077
19.2088 36.5062
19.3898 47.559
19.5709 42.2496
19.752 34.3507
19.9332 34.055
20.1144 34.9406
20.2957 40.9763
20.477 39.5301
20.6586 32.9008
20.84 35.1483
21.0215 30.76
21.203 30.546
21.3846 31.9406
21.5662 31.5733
21.7479 31.4496
21.9297 32.8152
22.1115 39.1976
22.2933 36.1118
22.4753 31.5462
22.6572 30.8737
22.8393 32.2911
23.0214 32.0077
23.2037 35.3566
23.3859 31.841
23.5682 32.3872
23.7505 35.7241
23.9329 30.7305
24.1154 29.3793
24.2979 28.1797
24.4805 27.6036
24.6631 28.0052
24.8458 27.3773
25.0286 26.9904
25.2114 27.3254
25.3943 28.2129
25.5773 28.3888
25.7605 26.3867
25.9436 26.3991
26.1268 25.8833
26.31 26.6684
26.4933 25.9085
26.6767 25.8848
26.8601 27.1765
27.0437 26.8122
27.2272 25.2571
27.4109 24.7385
27.5946 24.8565
27.7784 24.8943
27.9623 24.4033
28.1462 24.9015
28.3304 25.0145
28.5145 24.256
28.6987 23.5724
28.8829 22.9038
29.0673 22.6788
29.2517 22.4378
29.4361 21.9971
29.6207 21.9202
29.8053 21.5383
29.99 21.3193
30.1748 21.2505
30.3597 21.0063
30.5447 20.9746
30.7297 20.7307
30.915 21.0029
31.1002 20.7855
31.2855 20.3484
31.4708 20.1243
31.6563 20.1572
31.8418 19.896
32.0275 19.6887
32.2132 19.6307
32.399 19.3084
32.5848 18.8318
32.7708 18.633
32.9569 18.5912
33.143 18.3054
33.3293 18.1214
33.5158 18.0622
33.7022 17.7423
33.8887 17.474
34.0753 17.2745
34.262 16.9895
34.4488 16.8547
34.6357 16.6251
34.8227 16.4067
35.0098 16.2378
35.1969 16.0709
35.3842 15.9633
35.5716 15.8625
35.759 15.7381
35.9468 15.4766
36.1345 15.3094
36.3222 15.1398
36.5101 14.9367
36.6981 14.846
36.8861 14.6506
37.0743 14.4351
37.2626 14.2239
37.451 14.0647
37.6395 14.0193
37.8281 13.7816
38.0168 13.6233
38.2056 13.4198
38.3945 13.2024
38.5837 13.1351
38.7728 12.8783
38.9621 12.7713
39.1514 12.6394
39.3409 12.4381
39.5304 12.2992
39.7201 12.2544
39.9099 12.0438
40.0999 11.9203
40.2899 11.7824
40.48 11.5749
40.6703 11.4862
40.8607 11.3766
41.0512 11.1895
41.242 11.0698
41.4327 10.942
41.6236 10.774
41.8146 10.6493
42.0057 10.502
42.1969 10.3822
42.3882 10.2413
42.5797 10.114
42.7713 9.95354
42.963 9.81042
43.1549 9.68531
43.3468 9.5784
43.5389 9.50047
43.7312 9.3153
43.9237 9.18973
44.1162 9.09377
44.3088 8.95996
44.5016 8.85246
44.6945 8.7217
44.8875 8.6317
45.0806 8.52249
45.2739 8.39017
45.4673 8.29358
45.6609 8.14324
45.8546 8.07864
46.0484 7.96282
46.2424 7.82525
46.4365 7.73404
46.631 7.60807
46.8254 7.49747
47.0199 7.39543
47.2146 7.287
47.4095 7.15025
47.6044 7.09195
47.7996 6.9827
47.9948 6.90914
48.1902 6.81159
48.3858 6.73571
48.5815 6.59907
48.7774 6.5113
48.9734 6.41526
49.1696 6.31432
49.3661 6.23137
49.5626 6.12313
49.7592 6.04892
49.956 5.98675
50.153 5.88819
50.3501 5.80351
50.5474 5.72382
50.7448 5.62882
50.9424 5.56297
51.1402 5.50365
51.3381 5.39698
51.5362 5.31147
51.7344 5.23665
51.9328 5.09902
52.1316 5.0403
52.3304 5.04548
52.5293 4.92007
52.7284 4.86905
52.9276 4.73953
53.1271 4.69029
53.3267 4.55588
53.5265 4.53016
53.7264 4.43515
53.9266 4.33741
54.1269 4.2655
54.3274 4.20909
54.528 4.03723
54.7289 3.92663
54.9301 3.81196
55.1314 3.69032
55.3328 3.567
55.5344 3.38077
55.7361 3.29227

File: Ni3Fe_FD0063.xy
TT I
1.27165 31.6325
1.45013 25.3245
1.62863 21.691
1.80712 20.2665
1.98562 19.7035
2.16411 19.5468
2.34263 19.8722
2.52115 20.7863
2.69965 25.0374
2.87818 35.569
3.05672 62.1199
3.23527 61.8386
3.4138 32.5319
3.59237 26.2354
3.77094 25.6771
3.9495 26.7664
4.12809 29.5237
4.30669 37.7222
4.4853 37.6858
4.6639 43.7521
4.84253 56.4399
5.02118 106.099
5.19981 347.26
5.37848 2696.24
5.55716 147.002
5.73586 104.06
5.91455 122.615
6.09328 632.236
6.27201 193.58
6.45075 63.8434
6.62952 48.2313
6.8083 42.9138
6.98711 41.8685
7.16591 43.1945
7.34475 40.3564
7.5236 67.4737
7.70247 44.0295
7.88135 40.252
8.06026 42.1061
8.23919 48.1024
8.41812 62.1114
8.59709 204.059
8.77609 287.76
8.9551 74.27
9.13412 67.1671
9.31318 284.971
9.49226 60.8058
9.67134 59.9033
9.85047 66.6947
10.0296 137.011
10.2088 707.652
10.388 94.1879
10.5672 104.012
10.7465 166.141
10.9257 52.8316
11.105 46.7572
11.2844 43.9718
11.4637 41.6399
11.6431 41.1219
11.8225 41.4905
12.002 115.096
12.1814 51.8709
12.3609 77.6192
12.5405 42.8817
12.72 41.3974
12.8996 43.0588
13.0792 50.9179
13.2589 71.2468
13.4386 186.554
13.6183 79.0388
13.7981 170.137
13.9779 53.5808
14.1577 73.2819
14.3376 46.8086
14.5175 43.2309
14.6974 43.0954
14.8774 51.2883
15.0574 85.5351
15.2374 54.7734
15.4175 42.8574
15.5976 41.8933
15.7778 47.7694
15.958 70.3186
16.1382 68.4515
16.3185 38.6258
16.4988 35.7978
16.6792 34.7371
16.8596 34.8126
17.04 40.3587
17.2205 36.6268
17.401 42.9293
17.5815 38.6157
17.7622 39.6871
17.9428 41.7897
18.1237 47.3465
18.3044 70.9629
18.4852 57.4923
18.666 45.1243
18.8469 37.6531
19.0278 36.0944
19.2088 36.4978
19.3898 47.3829
19.5709 42.0403
19.752 34.4261
19.9332 34.0267
20.1144 34.9131
20.2957 40.6973
20.477 39.5039
20.6586 32.9096
20.84 35.2036
21.0215 30.82
21.203 30.6619
21.3846 31.8253
21.5662 31.5404
21.7479 31.3599
21.9297 32.7986
22.1115 39.0874
22.2933 35.8584
22.4753 31.434
22.6572 30.8286
22.8393 32.2103
23.0214 32.1128
23.2037 35.2198
23.3859 31.7654
23.5682 32.325
23.7505 35.7042
23.9329 30.7115
24.1154 29.3427
24.2979 28.1079
24.4805 27.6111
24.6631 28.1009
24.8458 27.4927
25.0286 27.1282
25.2114 27.1653
25.3943 28.2511
25.5773 28.3239
25.7605 26.3968
25.9436 26.3852
26.1268 25.894
26.31 26.6184
26.4933 25.9295
26.6767 25.7966
26.8601 27.1379
27.0437 26.6245
27.2272 25.1811
27.4109 24.7153
27.5946 24.7213
27.7784 24.846
27.9623 24.4701
28.1462 24.8715
28.3304 24.9925
28.5145 24.1061
28.6987 23.403
28.8829 22.8582
29.0673 22.7559
29.2517 22.4713
29.4361 21.9754
29.6207 21.9016
29.8053 21.5209
29.99 21.3319
30.1748 21.2333
30.3597 21.1045
30.5447 20.8334
30.7297 20.6768
30.915 20.9384
31.1002 20.8056
31.2855 20.25
31.4708 20.0712
31.6563 20.1355
31.8418 19.9111
32.0275 19.6616
32.2132 19.5995
32.399 19.2158
32.5848 18.9201
32.7708 18.6427
32.9569 18.5583
33.143 18.3408
33.3293 18.0873
33.5158 18.0788
33.7022 17.7115
33.8887 17.4915
34.0753 17.271
34.262 17.0604
34.4488 16.7925
34.6357 16.6483
34.8227 16.3705
35.0098 16.2553
35.1969 16.0665
35.3842 15.8642
35.5716 15.818
35.759 15.7538
35.9468 15.4366
36.1345 15.2725
36.3222 15.0592
36.5101 14.9825
36.6981 14.8208
36.8861 14.6173
37.0743 14.4314
37.2626 14.2571
37.451 14.0657
37.6395 13.9591
37.8281 13.7046
38.0168 13.5527
38.2056 13.4032
38.3945 13.2106
38.5837 13.051
38.7728 12.9302
38.9621 12.7228
39.1514 12.5832
39.3409 12.4138
39.5304 12.2568
39.7201 12.1923
39.9099 12.0955
40.0999 11.9035
40.2899 11.7482
40.48 11.5823
40.6703 11.4396
40.8607 11.3196
41.0512 11.1669
41.242 11.0316
41.4327 10.8873
41.6236 10.7871
41.8146 10.6586
42.0057 10.5605
42.1969 10.3525
42.3882 10.2396
42.5797 10.0586
42.7713 9.96347
42.963 9.82949
43.1549 9.68866
43.3468 9.54945
43.5389 9.46587
43.7312 9.331
43.9237 9.18034
44.1162 9.06984
44.3088 8.97093
44.5016 8.82689
44.6945 8.73087
44.8875 8.58733
45.0806 8.50612
45.2739 8.35792
45.4673 8.24175
45.6609 8.16437
45.8546 8.03012
46.0484 7.94368
46.2424 7.78306
46.4365 7.70489
46.631 7.591
46.8254 7.50617
47.0199 7.40929
47.2146 7.26731
47.4095 7.15693
47.6044 7.07034
47.7996 6.95365
47.9948 6.87483
48.1902 6.82017
48.3858 6.66789
48.5815 6.62226
48.7774 6.5138
48.9734 6.43875
49.1696 6.32728
49.3661 6.19815
49.5626 6.11032
49.7592 6.06638
49.956 5.98936
50.153 5.87877
50.3501 5.78671
50.5474 5.71562
50.7448 5.61364
50.9424 5.5554
51.1402 5.48369
51.3381 5.41719
51.5362 5.27832
51.7344 5.20872
51.9328 5.13265
52.1316 5.01955
52.3304 4.98242
52.5293 4.91791
52.7284 4.86042
52.9276 4.75235
53.1271 4.65657
53.3267 4.60054
53.5265 4.52893
53.7264 4.42507
53.9266 4.33906
54.1269 4.27603
54.3274 4.14625
54.528 4.07258
54.7289 3.91217
54.9301 3.76029
55.1314 3.68518
55.3328 3.50817
55.5344 3.42083
55.7361 3.32277