Folder: NiFe_MOF_catalyst_paper/XRD (part 165)

File: Ni3Fe_FD0895.xy
TT I
1.27165 7.61726
1.45013 6.21715
1.62863 5.31832
1.80712 4.99772
1.98562 5.14844
2.16411 5.32701
2.34263 5.98158
2.52115 6.94711
2.69965 8.25529
2.87818 8.48828
3.05672 11.6515
3.23527 14.7624
3.4138 18.8547
3.59237 23.5959
3.77094 26.0652
3.9495 29.9459
4.12809 34.8572
4.30669 185.075
4.4853 61.7065
4.6639 54.5952
4.84253 66.2545
5.02118 85.003
5.19981 308.946
5.37848 166.815
5.55716 99.7277
5.73586 90.024
5.91455 91.8941
6.09328 4545.64
6.27201 79.995
6.45075 66.0037
6.62952 61.3781
6.8083 57.3547
6.98711 54.875
7.16591 54.3493
7.34475 83.4403
7.5236 53.9263
7.70247 55.4029
7.88135 57.0273
8.06026 61.0263
8.23919 68.6123
8.41812 83.171
8.59709 1181.18
8.77609 95.8374
8.9551 89.129
9.13412 80.2264
9.31318 80.9085
9.49226 82.8395
9.67134 95.6546
9.85047 98.3404
10.0296 318.119
10.2088 332.638
10.388 101.95
10.5672 532.288
10.7465 84.5698
10.9257 77.0722
11.105 70.4958
11.2844 68.8233
11.4637 63.5815
11.6431 62.4154
11.8225 61.4487
12.002 62.4484
12.1814 157.147
12.3609 67.8871
12.5405 63.3211
12.72 68.2207
12.8996 69.5714
13.0792 77.8851
13.2589 237.346
13.4386 113.986
13.6183 252.793
13.7981 91.0695
13.9779 74.5289
14.1577 70.9005
14.3376 69.8282
14.5175 67.5798
14.6974 69.0152
14.8774 107.689
15.0574 136.431
15.2374 69.4641
15.4175 65.2122
15.5976 64.5637
15.7778 91.965
15.958 148.79
16.1382 61.174
16.3185 57.3223
16.4988 54.348
16.6792 53.4681
16.8596 53.9388
17.04 54.7057
17.2205 65.3337
17.401 67.8606
17.5815 58.148
17.7622 60.2711
17.9428 71.7211
18.1237 139.393
18.3044 90.0854
18.4852 73.2754
18.666 59.2068
18.8469 56.9598
19.0278 55.8903
19.2088 58.1172
19.3898 75.9503
19.5709 53.0428
19.752 52.2088
19.9332 55.1735
20.1144 69.3115
20.2957 64.1434
20.477 52.1889
20.6586 48.7979
20.84 48.0368
21.0215 47.5842
21.203 50.1269
21.3846 47.7074
21.5662 47.7661
21.7479 51.5601
21.9297 63.9916
22.1115 55.5487
22.2933 48.7258
22.4753 47.9422
22.6572 47.9083
22.8393 51.1115
23.0214 56.3581
23.2037 47.8944
23.3859 48.7899
23.5682 56.9393
23.7505 46.9928
23.9329 44.3713
24.1154 43.3406
24.2979 42.5766
24.4805 42.133
24.6631 42.1262
24.8458 41.5096
25.0286 42.1574
25.2114 43.9165
25.3943 43.7496
25.5773 40.1791
25.7605 39.8253
25.9436 40.0357
26.1268 41.1328
26.31 39.3245
26.4933 40.0677
26.6767 41.4654
26.8601 39.6848
27.0437 38.1346
27.2272 37.8504
27.4109 37.7514
27.5946 37.6213
27.7784 37.2175
27.9623 37.8043
28.1462 37.9804
28.3304 36.4238
28.5145 35.4023
28.6987 34.9859
28.8829 34.9085
29.0673 34.1236
29.2517 33.7649
29.4361 33.5193
29.6207 32.507
29.8053 32.285
29.99 32.0146
30.1748 31.8974
30.3597 31.7208
30.5447 31.5958
30.7297 31.6594
30.915 31.0657
31.1002 30.4696
31.2855 30.304
31.4708 30.3716
31.6563 29.7488
31.8418 29.6453
32.0275 29.3874
32.2132 28.8963
32.399 28.4431
32.5848 27.9746
32.7708 27.6462
32.9569 27.4836
33.143 27.3097
33.3293 26.8605
33.5158 26.5801
33.7022 26.1655
33.8887 25.8125
34.0753 25.4821
34.262 25.1997
34.4488 24.8754
34.6357 24.5633
34.8227 24.2459
35.0098 24.0778
35.1969 23.7096
35.3842 23.6081
35.5716 23.322
35.759 23.0327
35.9468 22.751
36.1345 22.5005
36.3222 22.2658
36.5101 22.0339
36.6981 21.757
36.8861 21.5034
37.0743 21.0945
37.2626 20.8574
37.451 20.645
37.6395 20.4332
37.8281 20.1197
38.0168 19.8562
38.2056 19.6157
38.3945 19.3232
38.5837 19.1229
38.7728 18.8704
38.9621 18.6069
39.1514 18.3743
39.3409 18.1327
39.5304 17.8723
39.7201 17.7801
39.9099 17.5444
40.0999 17.2782
40.2899 17.0997
40.48 16.8072
40.6703 16.642
40.8607 16.4061
41.0512 16.235
41.242 16.0002
41.4327 15.7381
41.6236 15.5667
41.8146 15.4053
42.0057 15.206
42.1969 14.9834
42.3882 14.8095
42.5797 14.5441
42.7713 14.387
42.963 14.1825
43.1549 13.9808
43.3468 13.7847
43.5389 13.5854
43.7312 13.3825
43.9237 13.2364
44.1162 13.0252
44.3088 12.8871
44.5016 12.6642
44.6945 12.5244
44.8875 12.3549
45.0806 12.1556
45.2739 11.9874
45.4673 11.8164
45.6609 11.6428
45.8546 11.5214
46.0484 11.3306
46.2424 11.1826
46.4365 11.0296
46.631 10.8779
46.8254 10.6712
47.0199 10.5119
47.2146 10.3845
47.4095 10.1906
47.6044 10.0263
47.7996 9.90441
47.9948 9.79728
48.1902 9.65354
48.3858 9.49469
48.5815 9.35772
48.7774 9.26104
48.9734 9.09286
49.1696 8.95739
49.3661 8.7818
49.5626 8.64346
49.7592 8.55198
49.956 8.38466
50.153 8.29706
50.3501 8.13936
50.5474 8.05372
50.7448 7.92675
50.9424 7.81141
51.1402 7.67404
51.3381 7.55523
51.5362 7.4243
51.7344 7.29752
51.9328 7.16559
52.1316 7.05335
52.3304 6.93469
52.5293 6.80366
52.7284 6.73265
52.9276 6.62583
53.1271 6.49366
53.3267 6.39759
53.5265 6.2731
53.7264 6.16568
53.9266 6.0782
54.1269 5.96645
54.3274 5.8818
54.528 5.74267
54.7289 5.51452
54.9301 5.38721
55.1314 5.30718
55.3328 5.08471
55.5344 4.84884
55.7361 4.71741

File: Ni3Fe_FD0896.xy
TT I
1.27165 6.94553
1.45013 6.56937
1.62863 5.48034
1.80712 4.55295
1.98562 4.26209
2.16411 4.67934
2.34263 5.49943
2.52115 7.42649
2.69965 7.96643
2.87818 9.45491
3.05672 11.1361
3.23527 15.0579
3.4138 18.8017
3.59237 23.4669
3.77094 25.9328
3.9495 29.5688
4.12809 33.9901
4.30669 182.331
4.4853 61.606
4.6639 54.8882
4.84253 66.0764
5.02118 84.9604
5.19981 309.465
5.37848 169.265
5.55716 99.1646
5.73586 90.2254
5.91455 91.9077
6.09328 4485.18
6.27201 79.4391
6.45075 65.9629
6.62952 61.2846
6.8083 57.2425
6.98711 54.8577
7.16591 54.3401
7.34475 82.9956
7.5236 53.8571
7.70247 54.9974
7.88135 56.6289
8.06026 60.8508
8.23919 68.1179
8.41812 82.9179
8.59709 1183.63
8.77609 95.6072
8.9551 88.3905
9.13412 80.384
9.31318 80.7593
9.49226 82.9319
9.67134 94.5378
9.85047 97.4204
10.0296 316.694
10.2088 339.577
10.388 102.149
10.5672 534.399
10.7465 84.2088
10.9257 76.3698
11.105 70.1965
11.2844 68.6017
11.4637 63.7438
11.6431 62.252
11.8225 61.0189
12.002 62.2334
12.1814 157.21
12.3609 67.7757
12.5405 63.0726
12.72 68.0133
12.8996 69.4179
13.0792 77.5637
13.2589 236.875
13.4386 114.984
13.6183 251.799
13.7981 91.4166
13.9779 74.182
14.1577 70.6511
14.3376 69.6754
14.5175 67.4486
14.6974 68.8362
14.8774 107.386
15.0574 137.123
15.2374 68.937
15.4175 64.8811
15.5976 64.401
15.7778 91.668
15.958 149.921
16.1382 60.9881
16.3185 57.1892
16.4988 54.346
16.6792 53.2395
16.8596 54.0555
17.04 54.662
17.2205 65.0775
17.401 68.0848
17.5815 57.9049
17.7622 60.0548
17.9428 71.221
18.1237 140.029
18.3044 89.7462
18.4852 73.6945
18.666 59.0096
18.8469 56.78
19.0278 55.6359
19.2088 58.0846
19.3898 75.8758
19.5709 53.1268
19.752 52.0355
19.9332 55.1813
20.1144 69.1676
20.2957 63.9346
20.477 52.0811
20.6586 48.6879
20.84 47.7488
21.0215 47.5842
21.203 50.2168
21.3846 47.9231
21.5662 47.7777
21.7479 51.5401
21.9297 64.2546
22.1115 55.5119
22.2933 48.5461
22.4753 47.9897
22.6572 47.7691
22.8393 50.9995
23.0214 56.3584
23.2037 47.8382
23.3859 48.8733
23.5682 57.0296
23.7505 47.0709
23.9329 44.4171
24.1154 43.2243
24.2979 42.502
24.4805 41.9055
24.6631 41.8073
24.8458 41.3514
25.0286 41.9784
25.2114 43.9518
25.3943 43.7589
25.5773 40.2427
25.7605 39.6412
25.9436 40.0132
26.1268 41.0688
26.31 39.2741
26.4933 40.1519
26.6767 41.431
26.8601 39.7385
27.0437 38.1459
27.2272 37.7245
27.4109 37.6711
27.5946 37.6216
27.7784 37.2338
27.9623 37.756
28.1462 38.251
28.3304 36.4314
28.5145 35.3114
28.6987 35.0781
28.8829 34.7798
29.0673 34.1599
29.2517 33.6373
29.4361 33.4826
29.6207 32.5656
29.8053 32.2223
29.99 32.051
30.1748 31.8352
30.3597 31.5685
30.5447 31.6212
30.7297 31.6716
30.915 31.0697
31.1002 30.5326
31.2855 30.2699
31.4708 30.2636
31.6563 29.7467
31.8418 29.6305
32.0275 29.3024
32.2132 28.9228
32.399 28.4573
32.5848 28.0018
32.7708 27.7288
32.9569 27.4822
33.143 27.3522
33.3293 26.8935
33.5158 26.5236
33.7022 26.0581
33.8887 25.8662
34.0753 25.4555
34.262 25.1882
34.4488 24.8356
34.6357 24.4928
34.8227 24.2816
35.0098 24.0638
35.1969 23.7823
35.3842 23.5581
35.5716 23.4219
35.759 23.1079
35.9468 22.7715
36.1345 22.4662
36.3222 22.2866
36.5101 22.0624
36.6981 21.7802
36.8861 21.3965
37.0743 21.1222
37.2626 20.8512
37.451 20.6167
37.6395 20.3962
37.8281 20.2316
38.0168 19.8288
38.2056 19.5447
38.3945 19.2663
38.5837 19.1158
38.7728 18.8849
38.9621 18.579
39.1514 18.3908
39.3409 18.1585
39.5304 17.9339
39.7201 17.7828
39.9099 17.5103
40.0999 17.2901
40.2899 17.0646
40.48 16.8333
40.6703 16.5904
40.8607 16.4472
41.0512 16.2005
41.242 15.9392
41.4327 15.8016
41.6236 15.5735
41.8146 15.3665
42.0057 15.1753
42.1969 14.9424
42.3882 14.7603
42.5797 14.5827
42.7713 14.3737
42.963 14.1537
43.1549 13.9838
43.3468 13.7599
43.5389 13.6133
43.7312 13.3577
43.9237 13.2129
44.1162 13.036
44.3088 12.8461
44.5016 12.6738
44.6945 12.475
44.8875 12.3356
45.0806 12.1515
45.2739 11.9628
45.4673 11.8097
45.6609 11.6297
45.8546 11.4909
46.0484 11.3246
46.2424 11.1436
46.4365 10.999
46.631 10.8482
46.8254 10.7058
47.0199 10.5058
47.2146 10.3886
47.4095 10.2197
47.6044 10.0391
47.7996 9.91633
47.9948 9.75778
48.1902 9.64654
48.3858 9.49142
48.5815 9.35722
48.7774 9.26686
48.9734 9.11693
49.1696 8.95331
49.3661 8.80166
49.5626 8.65955
49.7592 8.53924
49.956 8.39081
50.153 8.27983
50.3501 8.16222
50.5474 8.03264
50.7448 7.91834
50.9424 7.80601
51.1402 7.64526
51.3381 7.5277
51.5362 7.42641
51.7344 7.33584
51.9328 7.16924
52.1316 7.09222
52.3304 6.95006
52.5293 6.84623
52.7284 6.73147
52.9276 6.62003
53.1271 6.51668
53.3267 6.39461
53.5265 6.26637
53.7264 6.19098
53.9266 6.02834
54.1269 5.94849
54.3274 5.8628
54.528 5.70703
54.7289 5.55018
54.9301 5.40227
55.1314 5.24805
55.3328 5.05577
55.5344 4.87439
55.7361 4.71404

File: Ni3Fe_FD0897.xy
TT I
1.27165 6.90493
1.45013 6.08574
1.62863 5.35993
1.80712 4.44566
1.98562 4.39685
2.16411 4.81299
2.34263 5.31654
2.52115 7.6643
2.69965 8.40763
2.87818 8.63526
3.05672 10.9859
3.23527 15.3516
3.4138 19.1945
3.59237 23.4872
3.77094 25.9072
3.9495 29.3457
4.12809 34.3002
4.30669 176.511
4.4853 60.8474
4.6639 54.6355
4.84253 66.4839
5.02118 85.2995
5.19981 315.148
5.37848 168.543
5.55716 99.8208
5.73586 90.5064
5.91455 92.0148
6.09328 4519.35
6.27201 79.9579
6.45075 65.8574
6.62952 60.9083
6.8083 57.5986
6.98711 54.971
7.16591 54.2089
7.34475 81.8052
7.5236 53.6716
7.70247 55.0764
7.88135 56.5363
8.06026 61.1866
8.23919 68.4223
8.41812 83.3106
8.59709 1184.3
8.77609 95.6747
8.9551 88.2171
9.13412 80.3938
9.31318 81.0929
9.49226 83.1849
9.67134 95.1131
9.85047 97.8906
10.0296 319.724
10.2088 334.371
10.388 102.214
10.5672 536.313
10.7465 84.428
10.9257 76.4547
11.105 70.678
11.2844 68.6974
11.4637 63.6023
11.6431 62.4857
11.8225 61.2717
12.002 62.2363
12.1814 156.439
12.3609 67.2804
12.5405 63.2613
12.72 68.1464
12.8996 69.8688
13.0792 77.4054
13.2589 239.312
13.4386 114.259
13.6183 252.318
13.7981 90.8737
13.9779 74.376
14.1577 70.8497
14.3376 69.6794
14.5175 67.4416
14.6974 69.1328
14.8774 107.957
15.0574 135.84
15.2374 68.9307
15.4175 64.9486
15.5976 64.7696
15.7778 92.1587
15.958 149.057
16.1382 60.8938
16.3185 57.0808
16.4988 54.0943
16.6792 53.4801
16.8596 53.9378
17.04 54.7461
17.2205 65.3374
17.401 67.9
17.5815 57.9659
17.7622 60.1626
17.9428 71.6686
18.1237 139.152
18.3044 90.3965
18.4852 73.3858
18.666 59.1257
18.8469 56.9116
19.0278 55.9033
19.2088 58.0967
19.3898 75.7188
19.5709 53.1996
19.752 52.3112
19.9332 55.0671
20.1144 69.1365
20.2957 63.961
20.477 51.91
20.6586 48.7177
20.84 47.9136
21.0215 47.609
21.203 50.1046
21.3846 47.8496
21.5662 48.0762
21.7479 51.5828
21.9297 63.9232
22.1115 55.685
22.2933 48.6969
22.4753 48.0302
22.6572 47.94
22.8393 50.9665
23.0214 56.152
23.2037 47.7555
23.3859 48.8022
23.5682 56.9478
23.7505 46.9992
23.9329 44.4053
24.1154 43.2881
24.2979 42.6231
24.4805 42.1935
24.6631 41.9142
24.8458 41.4669
25.0286 42.1568
25.2114 43.9684
25.3943 43.6307
25.5773 40.065
25.7605 39.6921
25.9436 40.1319
26.1268 41.0101
26.31 39.3691
26.4933 40.1228
26.6767 41.4657
26.8601 39.6851
27.0437 38.1262
27.2272 37.8285
27.4109 37.7325
27.5946 37.6415
27.7784 37.1994
27.9623 37.8819
28.1462 38.1775
28.3304 36.4205
28.5145 35.2713
28.6987 34.9174
28.8829 34.6966
29.0673 34.1105
29.2517 33.721
29.4361 33.5245
29.6207 32.5205
29.8053 32.2944
29.99 32.0158
30.1748 31.9168
30.3597 31.701
30.5447 31.6605
30.7297 31.6254
30.915 31.013
31.1002 30.6
31.2855 30.2785
31.4708 30.2658
31.6563 29.7825
31.8418 29.602
32.0275 29.4557
32.2132 28.8011
32.399 28.4463
32.5848 28.0322
32.7708 27.6201
32.9569 27.5034
33.143 27.269
33.3293 26.8694
33.5158 26.5274
33.7022 26.0471
33.8887 25.8192
34.0753 25.4759
34.262 25.1179
34.4488 24.8404
34.6357 24.5484
34.8227 24.2114
35.0098 24.0159
35.1969 23.7353
35.3842 23.6133
35.5716 23.2972
35.759 23.029
35.9468 22.722
36.1345 22.438
36.3222 22.3119
36.5101 21.967
36.6981 21.7582
36.8861 21.4383
37.0743 21.1475
37.2626 20.9196
37.451 20.6235
37.6395 20.4394
37.8281 20.0859
38.0168 19.8718
38.2056 19.634
38.3945 19.328
38.5837 19.1432
38.7728 18.8532
38.9621 18.6284
39.1514 18.3399
39.3409 18.1183
39.5304 17.95
39.7201 17.7169
39.9099 17.5475
40.0999 17.2838
40.2899 17.0302
40.48 16.8224
40.6703 16.5618
40.8607 16.4668
41.0512 16.2315
41.242 15.9901
41.4327 15.7361
41.6236 15.5536
41.8146 15.3589
42.0057 15.1517
42.1969 14.9552
42.3882 14.8332
42.5797 14.5468
42.7713 14.3892
42.963 14.184
43.1549 13.9935
43.3468 13.7539
43.5389 13.5841
43.7312 13.4352
43.9237 13.2076
44.1162 13.0647
44.3088 12.842
44.5016 12.6975
44.6945 12.5201
44.8875 12.3149
45.0806 12.1879
45.2739 11.9695
45.4673 11.8346
45.6609 11.6143
45.8546 11.5363
46.0484 11.3167
46.2424 11.1408
46.4365 11.0096
46.631 10.8876
46.8254 10.6704
47.0199 10.5057
47.2146 10.3718
47.4095 10.2402
47.6044 10.0579
47.7996 9.88452
47.9948 9.7684
48.1902 9.60999
48.3858 9.48819
48.5815 9.34888
48.7774 9.23471
48.9734 9.10942
49.1696 8.94245
49.3661 8.80821
49.5626 8.65944
49.7592 8.56628
49.956 8.41475
50.153 8.26504
50.3501 8.18219
50.5474 8.04271
50.7448 7.91249
50.9424 7.80576
51.1402 7.66315
51.3381 7.51159
51.5362 7.44155
51.7344 7.32268
51.9328 7.17056
52.1316 7.08183
52.3304 6.94843
52.5293 6.78021
52.7284 6.75116
52.9276 6.60101
53.1271 6.54143
53.3267 6.40551
53.5265 6.27306
53.7264 6.20377
53.9266 6.05269
54.1269 5.90434
54.3274 5.83684
54.528 5.68073
54.7289 5.54669
54.9301 5.40363
55.1314 5.27174
55.3328 5.0921
55.5344 4.90879
55.7361 4.76271

File: Ni3Fe_FD0898.xy
TT I
1.27165 7.0631
1.45013 6.25658
1.62863 4.78238
1.80712 4.51644
1.98562 4.9282
2.16411 5.32733
2.34263 5.68546
2.52115 7.47728
2.69965 8.62757
2.87818 8.9157
3.05672 11.5057
3.23527 15.1496
3.4138 18.6468
3.59237 23.4064
3.77094 25.8332
3.9495 29.4846
4.12809 34.2428
4.30669 171.729
4.4853 60.4617
4.6639 54.7822
4.84253 66.4891
5.02118 85.7667
5.19981 320.893
5.37848 168.442
5.55716 99.6029
5.73586 90.927
5.91455 92.2975
6.09328 4545.74
6.27201 79.828
6.45075 66.4943
6.62952 61.2634
6.8083 57.3722
6.98711 54.8744
7.16591 54.4516
7.34475 80.056
7.5236 54.0863
7.70247 55.3455
7.88135 57.108
8.06026 60.9695
8.23919 68.1854
8.41812 83.2056
8.59709 1185.73
8.77609 95.7852
8.9551 88.6002
9.13412 80.5394
9.31318 81.2399
9.49226 83.182
9.67134 95.1468
9.85047 97.8286
10.0296 321.882
10.2088 329.0
10.388 102.75
10.5672 537.325
10.7465 84.6527
10.9257 76.5861
11.105 70.3936
11.2844 68.4984
11.4637 63.5554
11.6431 62.6239
11.8225 61.4196
12.002 62.6219
12.1814 157.207
12.3609 67.1944
12.5405 63.2349
12.72 68.115
12.8996 69.9099
13.0792 77.8256
13.2589 238.988
13.4386 114.385
13.6183 254.916
13.7981 91.0076
13.9779 74.4246
14.1577 70.9795
14.3376 69.6517
14.5175 67.52
14.6974 69.058
14.8774 108.631
15.0574 135.747
15.2374 69.1134
15.4175 65.0495
15.5976 64.4729
15.7778 92.0863
15.958 148.122
16.1382 60.987
16.3185 57.3066
16.4988 54.2937
16.6792 53.4804
16.8596 54.0845
17.04 54.7953
17.2205 65.8245
17.401 67.7432
17.5815 57.9865
17.7622 60.3101
17.9428 71.8655
18.1237 139.356
18.3044 90.1229
18.4852 73.2646
18.666 59.0739
18.8469 56.8411
19.0278 55.7699
19.2088 58.282
19.3898 75.7017
19.5709 53.0509
19.752 52.3753
19.9332 55.15
20.1144 69.0721
20.2957 64.0145
20.477 52.199
20.6586 48.9682
20.84 48.0425
21.0215 47.743
21.203 50.1639
21.3846 47.9179
21.5662 47.867
21.7479 51.6885
21.9297 64.1304
22.1115 55.5905
22.2933 48.6168
22.4753 47.9958
22.6572 47.951
22.8393 51.1356
23.0214 56.3563
23.2037 47.8786
23.3859 48.7563
23.5682 56.9182
23.7505 47.1175
23.9329 44.3759
24.1154 43.3863
24.2979 42.5761
24.4805 42.2073
24.6631 42.0034
24.8458 41.5737
25.0286 42.0671
25.2114 43.9569
25.3943 43.8146
25.5773 40.0646
25.7605 39.5466
25.9436 40.1028
26.1268 40.9649
26.31 39.3493
26.4933 39.9534
26.6767 41.5816
26.8601 39.7309
27.0437 38.2296
27.2272 37.795
27.4109 37.6708
27.5946 37.6729
27.7784 37.1348
27.9623 37.9048
28.1462 38.1095
28.3304 36.5049
28.5145 35.3176
28.6987 34.9954
28.8829 34.9331
29.0673 33.9911
29.2517 33.6704
29.4361 33.5162
29.6207 32.5799
29.8053 32.4082
29.99 32.0816
30.1748 31.8602
30.3597 31.744
30.5447 31.6968
30.7297 31.7181
30.915 31.0372
31.1002 30.6787
31.2855 30.3345
31.4708 30.2542
31.6563 29.8468
31.8418 29.6498
32.0275 29.3715
32.2132 28.9277
32.399 28.2989
32.5848 27.9361
32.7708 27.7033
32.9569 27.4709
33.143 27.3583
33.3293 26.9114
33.5158 26.4637
33.7022 26.1186
33.8887 25.9034
34.0753 25.5344
34.262 25.2109
34.4488 24.9211
34.6357 24.5062
34.8227 24.3132
35.0098 24.0995
35.1969 23.7277
35.3842 23.4936
35.5716 23.3889
35.759 23.0789
35.9468 22.6875
36.1345 22.4973
36.3222 22.2343
36.5101 22.1082
36.6981 21.7209
36.8861 21.4455
37.0743 21.1195
37.2626 20.9004
37.451 20.6258
37.6395 20.4255
37.8281 20.1513
38.0168 19.843
38.2056 19.5928
38.3945 19.3771
38.5837 19.1501
38.7728 18.8553
38.9621 18.6262
39.1514 18.3738
39.3409 18.1585
39.5304 17.8919
39.7201 17.7783
39.9099 17.5477
40.0999 17.2864
40.2899 17.0738
40.48 16.831
40.6703 16.6592
40.8607 16.412
41.0512 16.2492
41.242 15.9952
41.4327 15.7734
41.6236 15.5696
41.8146 15.376
42.0057 15.1683
42.1969 14.9516
42.3882 14.766
42.5797 14.588
42.7713 14.349
42.963 14.1912
43.1549 13.9887
43.3468 13.7838
43.5389 13.5637
43.7312 13.4078
43.9237 13.2191
44.1162 13.0329
44.3088 12.8645
44.5016 12.6987
44.6945 12.5292
44.8875 12.3242
45.0806 12.1403
45.2739 11.957
45.4673 11.8214
45.6609 11.6237
45.8546 11.4822
46.0484 11.3019
46.2424 11.1727
46.4365 11.0274
46.631 10.8589
46.8254 10.696
47.0199 10.5255
47.2146 10.4091
47.4095 10.1873
47.6044 10.0893
47.7996 9.92104
47.9948 9.78364
48.1902 9.63899
48.3858 9.49518
48.5815 9.35365
48.7774 9.22098
48.9734 9.08155
49.1696 8.95166
49.3661 8.79782
49.5626 8.67157
49.7592 8.54059
49.956 8.42911
50.153 8.28403
50.3501 8.16051
50.5474 8.04971
50.7448 7.92066
50.9424 7.83249
51.1402 7.68054
51.3381 7.53439
51.5362 7.44573
51.7344 7.31141
51.9328 7.17737
52.1316 7.04204
52.3304 6.95849
52.5293 6.81851
52.7284 6.72634
52.9276 6.61329
53.1271 6.48347
53.3267 6.41584
53.5265 6.29979
53.7264 6.18795
53.9266 6.07704
54.1269 5.97033
54.3274 5.86604
54.528 5.69622
54.7289 5.54523
54.9301 5.37904
55.1314 5.30593
55.3328 5.05186
55.5344 4.87046
55.7361 4.73928

File: Ni3Fe_FD0899.xy
TT I
1.27165 7.13767
1.45013 6.06202
1.62863 5.54845
1.80712 5.01405
1.98562 4.66985
2.16411 4.61661
2.34263 5.53638
2.52115 7.08864
2.69965 8.5935
2.87818 9.2742
3.05672 11.2565
3.23527 14.8081
3.4138 18.9082
3.59237 23.241
3.77094 26.287
3.9495 29.4514
4.12809 34.2407
4.30669 168.69
4.4853 59.9086
4.6639 55.0283
4.84253 66.2077
5.02118 85.5283
5.19981 321.937
5.37848 169.268
5.55716 99.6479
5.73586 90.0341
5.91455 92.4054
6.09328 4552.83
6.27201 79.9739
6.45075 66.0867
6.62952 61.3809
6.8083 57.4895
6.98711 55.0189
7.16591 54.4739
7.34475 80.2567
7.5236 53.9199
7.70247 55.1375
7.88135 56.7833
8.06026 61.0665
8.23919 68.2089
8.41812 83.0784
8.59709 1186.75
8.77609 95.3541
8.9551 88.5259
9.13412 80.7903
9.31318 81.3364
9.49226 83.0659
9.67134 94.394
9.85047 98.1993
10.0296 321.446
10.2088 334.316
10.388 102.407
10.5672 537.057
10.7465 84.1543
10.9257 76.4582
11.105 70.3468
11.2844 68.0705
11.4637 63.6357
11.6431 62.4763
11.8225 61.3645
12.002 62.5526
12.1814 157.473
12.3609 67.9308
12.5405 63.4786
12.72 67.7144
12.8996 69.5319
13.0792 77.8203
13.2589 239.628
13.4386 114.441
13.6183 253.332
13.7981 91.5878
13.9779 74.3015
14.1577 70.6465
14.3376 69.7854
14.5175 67.7081
14.6974 69.31
14.8774 108.003
15.0574 136.458
15.2374 69.0242
15.4175 65.0824
15.5976 64.5944
15.7778 92.3311
15.958 149.183
16.1382 60.8118
16.3185 57.2895
16.4988 54.4435
16.6792 53.3989
16.8596 54.1332
17.04 54.6985
17.2205 65.5388
17.401 67.9154
17.5815 57.6603
17.7622 59.961
17.9428 71.6809
18.1237 139.67
18.3044 90.2391
18.4852 73.4909
18.666 58.8879
18.8469 56.9399
19.0278 55.7865
19.2088 58.094
19.3898 75.8225
19.5709 53.1629
19.752 52.1646
19.9332 55.22
20.1144 69.3307
20.2957 63.9509
20.477 52.195
20.6586 48.786
20.84 47.7658
21.0215 47.7856
21.203 50.1231
21.3846 47.9619
21.5662 47.941
21.7479 51.5482
21.9297 64.1141
22.1115 55.5337
22.2933 48.852
22.4753 47.9802
22.6572 47.9158
22.8393 51.0928
23.0214 56.3457
23.2037 47.9702
23.3859 48.8876
23.5682 56.8776
23.7505 47.0699
23.9329 44.3255
24.1154 43.2956
24.2979 42.5009
24.4805 42.1618
24.6631 42.084
24.8458 41.5435
25.0286 42.1026
25.2114 43.9496
25.3943 43.7823
25.5773 40.0506
25.7605 39.6437
25.9436 40.1388
26.1268 41.0854
26.31 39.336
26.4933 40.1236
26.6767 41.4952
26.8601 39.7765
27.0437 38.122
27.2272 37.8707
27.4109 37.8078
27.5946 37.6664
27.7784 37.1361
27.9623 37.8413
28.1462 38.0979
28.3304 36.4842
28.5145 35.4509
28.6987 34.9566
28.8829 34.8813
29.0673 33.9637
29.2517 33.868
29.4361 33.5629
29.6207 32.5929
29.8053 32.3415
29.99 32.067
30.1748 31.8522
30.3597 31.6812
30.5447 31.6976
30.7297 31.6824
30.915 31.0353
31.1002 30.6022
31.2855 30.2815
31.4708 30.4224
31.6563 29.7758
31.8418 29.5266
32.0275 29.3802
32.2132 28.8748
32.399 28.4212
32.5848 28.1206
32.7708 27.6142
32.9569 27.3824
33.143 27.3138
33.3293 26.891
33.5158 26.512
33.7022 26.1917
33.8887 25.8655
34.0753 25.5371
34.262 25.2061
34.4488 24.8954
34.6357 24.5198
34.8227 24.1894
35.0098 24.1276
35.1969 23.7886
35.3842 23.5784
35.5716 23.424
35.759 23.1062
35.9468 22.7758
36.1345 22.4718
36.3222 22.2811
36.5101 21.9817
36.6981 21.7988
36.8861 21.3778
37.0743 21.1603
37.2626 20.926
37.451 20.6206
37.6395 20.4881
37.8281 20.0703
38.0168 19.8771
38.2056 19.6318
38.3945 19.3406
38.5837 19.1009
38.7728 18.8979
38.9621 18.7112
39.1514 18.4341
39.3409 18.1642
39.5304 17.9364
39.7201 17.6575
39.9099 17.5396
40.0999 17.2443
40.2899 17.084
40.48 16.7942
40.6703 16.6118
40.8607 16.5016
41.0512 16.2258
41.242 16.0141
41.4327 15.8022
41.6236 15.5898
41.8146 15.4174
42.0057 15.138
42.1969 14.9572
42.3882 14.8314
42.5797 14.6112
42.7713 14.4007
42.963 14.1754
43.1549 13.9795
43.3468 13.8129
43.5389 13.5967
43.7312 13.4338
43.9237 13.2433
44.1162 13.0413
44.3088 12.891
44.5016 12.6945
44.6945 12.4951
44.8875 12.3563
45.0806 12.1943
45.2739 11.951
45.4673 11.8269
45.6609 11.6186
45.8546 11.4925
46.0484 11.3507
46.2424 11.1639
46.4365 11.0148
46.631 10.8403
46.8254 10.721
47.0199 10.5301
47.2146 10.39
47.4095 10.2486
47.6044 10.0811
47.7996 9.90912
47.9948 9.74102
48.1902 9.62474
48.3858 9.53888
48.5815 9.38537
48.7774 9.23871
48.9734 9.08242
49.1696 8.94492
49.3661 8.80287
49.5626 8.67958
49.7592 8.52885
49.956 8.44188
50.153 8.2854
50.3501 8.16139
50.5474 8.02368
50.7448 7.90973
50.9424 7.8065
51.1402 7.68286
51.3381 7.55248
51.5362 7.42823
51.7344 7.28314
51.9328 7.1517
52.1316 7.04426
52.3304 6.94962
52.5293 6.86322
52.7284 6.7361
52.9276 6.61301
53.1271 6.54986
53.3267 6.37871
53.5265 6.25915
53.7264 6.18691
53.9266 6.06058
54.1269 5.98075
54.3274 5.86686
54.528 5.71651
54.7289 5.57573
54.9301 5.36777
55.1314 5.26657
55.3328 5.07532
55.5344 4.90998
55.7361 4.71848