Folder: NiFe_MOF_catalyst_paper/XRD (part 50)

File: Ni3Fe_FD0258.xy
TT I
1.27165 8.16578
1.45013 7.23756
1.62863 5.65716
1.80712 5.41113
1.98562 4.97522
2.16411 4.73621
2.34263 4.19141
2.52115 5.89717
2.69965 6.5681
2.87818 7.84585
3.05672 10.9943
3.23527 15.0777
3.4138 19.072
3.59237 23.6086
3.77094 26.3145
3.9495 30.1571
4.12809 35.6423
4.30669 110.19
4.4853 56.1844
4.6639 57.7894
4.84253 70.7499
5.02118 94.8669
5.19981 580.572
5.37848 280.359
5.55716 111.057
5.73586 98.983
5.91455 106.23
6.09328 3645.35
6.27201 89.3259
6.45075 70.5809
6.62952 64.3347
6.8083 60.4835
6.98711 57.3912
7.16591 57.5228
7.34475 71.6356
7.5236 56.3112
7.70247 58.5071
7.88135 59.9161
8.06026 64.8621
8.23919 72.488
8.41812 89.3536
8.59709 1109.23
8.77609 111.042
8.9551 92.9531
9.13412 86.4257
9.31318 87.4398
9.49226 88.8747
9.67134 98.1398
9.85047 105.386
10.0296 480.411
10.2088 604.736
10.388 110.964
10.5672 440.253
10.7465 91.9983
10.9257 81.1872
11.105 74.72
11.2844 71.3414
11.4637 67.6065
11.6431 66.1937
11.8225 65.5102
12.002 66.6726
12.1814 143.177
12.3609 72.5823
12.5405 67.2029
12.72 70.8638
12.8996 74.4381
13.0792 83.7155
13.2589 235.98
13.4386 152.127
13.6183 232.703
13.7981 116.901
13.9779 79.6583
14.1577 75.0003
14.3376 73.3516
14.5175 72.14
14.6974 73.7015
14.8774 120.847
15.0574 174.978
15.2374 73.0148
15.4175 69.4224
15.5976 69.0724
15.7778 105.331
15.958 173.841
16.1382 64.6339
16.3185 60.5301
16.4988 57.8856
16.6792 56.7712
16.8596 57.3749
17.04 58.2637
17.2205 69.0273
17.401 77.5436
17.5815 61.811
17.7622 64.2342
17.9428 82.3687
18.1237 134.392
18.3044 91.7095
18.4852 85.4999
18.666 63.0978
18.8469 60.8983
19.0278 59.273
19.2088 63.1111
19.3898 76.1057
19.5709 57.1081
19.752 55.6464
19.9332 59.5155
20.1144 71.58
20.2957 64.6189
20.477 57.2271
20.6586 51.8863
20.84 50.9045
21.0215 50.9248
21.203 52.4336
21.3846 51.3046
21.5662 51.1886
21.7479 55.4315
21.9297 66.2826
22.1115 57.5327
22.2933 52.6865
22.4753 50.9086
22.6572 51.2486
22.8393 54.1563
23.0214 59.5909
23.2037 51.1458
23.3859 52.5083
23.5682 57.2287
23.7505 51.6153
23.9329 47.2308
24.1154 46.0436
24.2979 45.3371
24.4805 44.6975
24.6631 44.757
24.8458 44.1593
25.0286 44.7324
25.2114 46.53
25.3943 46.3936
25.5773 42.8225
25.7605 42.3004
25.9436 42.5361
26.1268 43.4776
26.31 42.0282
26.4933 42.5215
26.6767 43.7603
26.8601 42.2996
27.0437 40.5346
27.2272 40.316
27.4109 40.1362
27.5946 40.1769
27.7784 39.6101
27.9623 39.9121
28.1462 40.6061
28.3304 38.9209
28.5145 37.5392
28.6987 37.1616
28.8829 36.8982
29.0673 36.3441
29.2517 35.7792
29.4361 35.5993
29.6207 34.6927
29.8053 34.3737
29.99 33.9624
30.1748 33.8419
30.3597 33.7817
30.5447 33.4921
30.7297 33.6203
30.915 33.0362
31.1002 32.5067
31.2855 32.2028
31.4708 32.012
31.6563 31.7364
31.8418 31.4551
32.0275 31.1985
32.2132 30.7469
32.399 30.1424
32.5848 29.7383
32.7708 29.2803
32.9569 29.2202
33.143 28.9416
33.3293 28.6181
33.5158 28.2768
33.7022 27.7415
33.8887 27.444
34.0753 27.1256
34.262 26.7222
34.4488 26.4253
34.6357 26.0085
34.8227 25.8459
35.0098 25.5603
35.1969 25.1846
35.3842 25.0212
35.5716 24.7681
35.759 24.5164
35.9468 24.1157
36.1345 23.9172
36.3222 23.5711
36.5101 23.319
36.6981 23.0355
36.8861 22.6762
37.0743 22.5186
37.2626 22.1589
37.451 21.9076
37.6395 21.8002
37.8281 21.4177
38.0168 21.1053
38.2056 20.8225
38.3945 20.5278
38.5837 20.2979
38.7728 20.0797
38.9621 19.7562
39.1514 19.5104
39.3409 19.1953
39.5304 18.9707
39.7201 18.8128
39.9099 18.6097
40.0999 18.3708
40.2899 18.146
40.48 17.8503
40.6703 17.6592
40.8607 17.466
41.0512 17.2289
41.242 16.9563
41.4327 16.7533
41.6236 16.5023
41.8146 16.3618
42.0057 16.06
42.1969 15.8611
42.3882 15.6751
42.5797 15.4743
42.7713 15.2189
42.963 15.0742
43.1549 14.8191
43.3468 14.6026
43.5389 14.4128
43.7312 14.2026
43.9237 14.0394
44.1162 13.8019
44.3088 13.6175
44.5016 13.4009
44.6945 13.2513
44.8875 13.0602
45.0806 12.8725
45.2739 12.6717
45.4673 12.5186
45.6609 12.3315
45.8546 12.1607
46.0484 11.9999
46.2424 11.8142
46.4365 11.6759
46.631 11.4793
46.8254 11.3229
47.0199 11.1264
47.2146 10.9887
47.4095 10.8158
47.6044 10.6455
47.7996 10.4866
47.9948 10.3269
48.1902 10.2137
48.3858 10.0506
48.5815 9.95086
48.7774 9.75568
48.9734 9.64995
49.1696 9.46575
49.3661 9.34025
49.5626 9.1897
49.7592 9.06093
49.956 8.90853
50.153 8.77248
50.3501 8.66524
50.5474 8.54656
50.7448 8.38797
50.9424 8.25338
51.1402 8.13661
51.3381 7.981
51.5362 7.88083
51.7344 7.76344
51.9328 7.59061
52.1316 7.47015
52.3304 7.35107
52.5293 7.23317
52.7284 7.11057
52.9276 6.95617
53.1271 6.88441
53.3267 6.73569
53.5265 6.64865
53.7264 6.51669
53.9266 6.39012
54.1269 6.31874
54.3274 6.13983
54.528 6.00801
54.7289 5.81077
54.9301 5.66751
55.1314 5.57156
55.3328 5.3474
55.5344 5.10676
55.7361 4.99965

File: Ni3Fe_FD0259.xy
TT I
1.27165 8.12826
1.45013 6.59002
1.62863 5.09989
1.80712 4.97177
1.98562 5.19478
2.16411 5.3191
2.34263 5.10257
2.52115 5.35887
2.69965 6.13274
2.87818 8.85819
3.05672 11.3189
3.23527 15.1436
3.4138 18.6181
3.59237 23.8475
3.77094 26.4593
3.9495 30.3434
4.12809 35.5312
4.30669 120.088
4.4853 56.6299
4.6639 57.7539
4.84253 71.1358
5.02118 94.9
5.19981 580.879
5.37848 277.809
5.55716 111.616
5.73586 99.5826
5.91455 105.982
6.09328 3650.29
6.27201 90.3863
6.45075 71.1028
6.62952 65.5273
6.8083 60.9027
6.98711 57.6823
7.16591 57.4883
7.34475 73.5993
7.5236 56.7485
7.70247 58.5455
7.88135 60.2904
8.06026 64.994
8.23919 72.6636
8.41812 89.6735
8.59709 1119.98
8.77609 110.831
8.9551 93.2187
9.13412 86.6377
9.31318 87.7751
9.49226 88.9467
9.67134 98.706
9.85047 105.562
10.0296 477.362
10.2088 598.029
10.388 110.739
10.5672 444.978
10.7465 92.0542
10.9257 81.1385
11.105 75.0302
11.2844 71.9293
11.4637 67.7344
11.6431 66.3435
11.8225 65.3812
12.002 67.0874
12.1814 143.656
12.3609 73.2356
12.5405 67.2052
12.72 71.295
12.8996 74.3107
13.0792 83.5276
13.2589 236.13
13.4386 150.893
13.6183 232.934
13.7981 115.786
13.9779 79.6125
14.1577 75.5126
14.3376 73.8118
14.5175 72.0499
14.6974 73.5872
14.8774 120.369
15.0574 174.677
15.2374 73.2415
15.4175 69.5076
15.5976 69.1971
15.7778 104.631
15.958 172.736
16.1382 64.9169
16.3185 60.7452
16.4988 58.0083
16.6792 57.0131
16.8596 57.4203
17.04 58.2766
17.2205 69.0911
17.401 77.7152
17.5815 61.8885
17.7622 63.9434
17.9428 81.9028
18.1237 134.773
18.3044 91.3589
18.4852 85.0108
18.666 63.3679
18.8469 60.7062
19.0278 59.3901
19.2088 63.2895
19.3898 76.184
19.5709 57.0311
19.752 55.728
19.9332 59.4912
20.1144 71.7585
20.2957 64.7387
20.477 57.0071
20.6586 51.8746
20.84 50.9028
21.0215 50.9263
21.203 52.6798
21.3846 51.3851
21.5662 51.0993
21.7479 55.3275
21.9297 66.1407
22.1115 57.6822
22.2933 52.7338
22.4753 50.9
22.6572 51.1751
22.8393 54.1178
23.0214 59.5295
23.2037 51.0693
23.3859 52.4973
23.5682 57.5295
23.7505 51.5711
23.9329 47.3438
24.1154 46.1097
24.2979 45.3539
24.4805 44.878
24.6631 44.6784
24.8458 44.0708
25.0286 44.6977
25.2114 46.3431
25.3943 46.4926
25.5773 42.8622
25.7605 42.2345
25.9436 42.5224
26.1268 43.3772
26.31 42.0946
26.4933 42.4698
26.6767 43.7687
26.8601 42.2685
27.0437 40.763
27.2272 40.2164
27.4109 39.9766
27.5946 40.1389
27.7784 39.6732
27.9623 39.9486
28.1462 40.5335
28.3304 39.0019
28.5145 37.562
28.6987 37.1343
28.8829 37.0041
29.0673 36.1908
29.2517 35.8666
29.4361 35.6335
29.6207 34.6276
29.8053 34.3428
29.99 34.06
30.1748 33.7725
30.3597 33.7597
30.5447 33.5805
30.7297 33.446
30.915 32.983
31.1002 32.475
31.2855 32.2863
31.4708 32.1223
31.6563 31.7475
31.8418 31.5483
32.0275 31.1718
32.2132 30.7544
32.399 30.167
32.5848 29.66
32.7708 29.3985
32.9569 29.2237
33.143 29.0025
33.3293 28.6365
33.5158 28.2278
33.7022 27.7762
33.8887 27.463
34.0753 27.1504
34.262 26.7541
34.4488 26.456
34.6357 26.0633
34.8227 25.7887
35.0098 25.5504
35.1969 25.2384
35.3842 25.079
35.5716 24.859
35.759 24.5413
35.9468 24.1649
36.1345 23.8751
36.3222 23.6826
36.5101 23.459
36.6981 23.0699
36.8861 22.7151
37.0743 22.4419
37.2626 22.2135
37.451 21.8873
37.6395 21.6873
37.8281 21.4655
38.0168 21.1208
38.2056 20.8449
38.3945 20.5786
38.5837 20.2708
38.7728 20.0557
38.9621 19.7719
39.1514 19.4897
39.3409 19.2283
39.5304 19.0332
39.7201 18.8448
39.9099 18.6117
40.0999 18.3387
40.2899 18.1646
40.48 17.8392
40.6703 17.6289
40.8607 17.4178
41.0512 17.2902
41.242 16.9697
41.4327 16.7621
41.6236 16.5509
41.8146 16.3021
42.0057 16.0771
42.1969 15.863
42.3882 15.6653
42.5797 15.5322
42.7713 15.2392
42.963 15.078
43.1549 14.9252
43.3468 14.5526
43.5389 14.4526
43.7312 14.2212
43.9237 14.05
44.1162 13.8517
44.3088 13.6983
44.5016 13.424
44.6945 13.2583
44.8875 13.0745
45.0806 12.8848
45.2739 12.7517
45.4673 12.5834
45.6609 12.3466
45.8546 12.1629
46.0484 12.0301
46.2424 11.8217
46.4365 11.6611
46.631 11.4752
46.8254 11.3216
47.0199 11.1416
47.2146 10.9773
47.4095 10.8045
47.6044 10.6331
47.7996 10.4821
47.9948 10.3269
48.1902 10.2017
48.3858 10.066
48.5815 9.91429
48.7774 9.77883
48.9734 9.60295
49.1696 9.48971
49.3661 9.31855
49.5626 9.18837
49.7592 9.049
49.956 8.9192
50.153 8.78773
50.3501 8.61948
50.5474 8.50367
50.7448 8.37853
50.9424 8.24214
51.1402 8.11924
51.3381 7.95399
51.5362 7.84964
51.7344 7.75876
51.9328 7.59107
52.1316 7.42913
52.3304 7.39069
52.5293 7.24685
52.7284 7.10576
52.9276 6.99676
53.1271 6.87375
53.3267 6.78305
53.5265 6.63712
53.7264 6.56103
53.9266 6.4322
54.1269 6.30726
54.3274 6.20483
54.528 6.03923
54.7289 5.89182
54.9301 5.67256
55.1314 5.55004
55.3328 5.3267
55.5344 5.14683
55.7361 5.03157

File: Ni3Fe_FD0260.xy
TT I
1.27165 7.8199
1.45013 6.09755
1.62863 5.32396
1.80712 5.53379
1.98562 5.07423
2.16411 4.73462
2.34263 4.93535
2.52115 5.60067
2.69965 6.97992
2.87818 8.03148
3.05672 11.191
3.23527 14.9071
3.4138 19.0277
3.59237 24.0045
3.77094 26.6428
3.9495 30.6739
4.12809 35.5552
4.30669 131.088
4.4853 57.7487
4.6639 57.5771
4.84253 70.5846
5.02118 93.8831
5.19981 567.567
5.37848 280.116
5.55716 110.621
5.73586 99.326
5.91455 105.616
6.09328 3654.09
6.27201 89.4502
6.45075 70.8501
6.62952 64.995
6.8083 60.7791
6.98711 57.8243
7.16591 57.1435
7.34475 76.0783
7.5236 56.3826
7.70247 58.2589
7.88135 60.2219
8.06026 64.3779
8.23919 72.6627
8.41812 89.5181
8.59709 1109.07
8.77609 110.459
8.9551 93.5763
9.13412 86.0264
9.31318 87.1992
9.49226 88.8332
9.67134 98.9652
9.85047 105.801
10.0296 468.154
10.2088 607.63
10.388 111.171
10.5672 444.504
10.7465 92.2669
10.9257 81.2109
11.105 74.7531
11.2844 72.0307
11.4637 67.6396
11.6431 66.2768
11.8225 65.1439
12.002 66.773
12.1814 143.7
12.3609 73.3519
12.5405 67.5004
12.72 71.3553
12.8996 74.3501
13.0792 83.1736
13.2589 233.743
13.4386 152.161
13.6183 231.748
13.7981 116.519
13.9779 79.3256
14.1577 75.2502
14.3376 73.6545
14.5175 71.9645
14.6974 73.5419
14.8774 119.56
15.0574 176.94
15.2374 73.1743
15.4175 69.4401
15.5976 69.0273
15.7778 103.547
15.958 174.481
16.1382 64.864
16.3185 60.5687
16.4988 57.8854
16.6792 56.9759
16.8596 57.3684
17.04 58.2389
17.2205 68.9421
17.401 77.7518
17.5815 61.9811
17.7622 64.0205
17.9428 81.4667
18.1237 134.602
18.3044 91.3855
18.4852 85.5087
18.666 63.2052
18.8469 60.7352
19.0278 59.3793
19.2088 63.0763
19.3898 76.4117
19.5709 57.0809
19.752 55.566
19.9332 59.5342
20.1144 71.6154
20.2957 64.7987
20.477 57.03
20.6586 51.9092
20.84 50.9952
21.0215 51.0486
21.203 52.4493
21.3846 51.5674
21.5662 50.9818
21.7479 55.3749
21.9297 66.1036
22.1115 57.7255
22.2933 52.7519
22.4753 50.8588
22.6572 51.1258
22.8393 54.1448
23.0214 59.5733
23.2037 51.1633
23.3859 52.6031
23.5682 57.3891
23.7505 51.6378
23.9329 47.3922
24.1154 45.9442
24.2979 45.2599
24.4805 44.6708
24.6631 44.7799
24.8458 44.1175
25.0286 44.6836
25.2114 46.6321
25.3943 46.5952
25.5773 42.8748
25.7605 42.2518
25.9436 42.5479
26.1268 43.3134
26.31 42.0134
26.4933 42.4965
26.6767 43.7972
26.8601 42.3162
27.0437 40.5961
27.2272 40.2301
27.4109 40.0775
27.5946 40.0434
27.7784 39.5041
27.9623 40.0474
28.1462 40.4678
28.3304 38.9361
28.5145 37.6464
28.6987 37.05
28.8829 36.9913
29.0673 36.2732
29.2517 35.747
29.4361 35.7202
29.6207 34.7012
29.8053 34.2846
29.99 33.934
30.1748 33.8291
30.3597 33.7085
30.5447 33.5625
30.7297 33.601
30.915 33.0752
31.1002 32.4079
31.2855 32.065
31.4708 32.145
31.6563 31.7085
31.8418 31.3985
32.0275 31.23
32.2132 30.6842
32.399 30.0645
32.5848 29.771
32.7708 29.3378
32.9569 29.2422
33.143 28.9492
33.3293 28.5611
33.5158 28.2343
33.7022 27.6622
33.8887 27.4441
34.0753 27.0923
34.262 26.729
34.4488 26.4134
34.6357 26.0902
34.8227 25.7385
35.0098 25.5786
35.1969 25.1522
35.3842 24.953
35.5716 24.7968
35.759 24.5236
35.9468 24.1191
36.1345 23.8508
36.3222 23.6703
36.5101 23.3937
36.6981 23.099
36.8861 22.7444
37.0743 22.4399
37.2626 22.2017
37.451 21.9138
37.6395 21.6681
37.8281 21.3802
38.0168 21.1456
38.2056 20.8708
38.3945 20.534
38.5837 20.2678
38.7728 20.0866
38.9621 19.7275
39.1514 19.5647
39.3409 19.2667
39.5304 19.038
39.7201 18.796
39.9099 18.6592
40.0999 18.3648
40.2899 18.1158
40.48 17.8762
40.6703 17.7035
40.8607 17.4781
41.0512 17.2701
41.242 16.999
41.4327 16.6955
41.6236 16.4862
41.8146 16.3043
42.0057 16.0993
42.1969 15.8439
42.3882 15.683
42.5797 15.4723
42.7713 15.2498
42.963 15.0516
43.1549 14.8362
43.3468 14.6132
43.5389 14.4118
43.7312 14.256
43.9237 14.0168
44.1162 13.8323
44.3088 13.6289
44.5016 13.4112
44.6945 13.3141
44.8875 13.0892
45.0806 12.8653
45.2739 12.7314
45.4673 12.5157
45.6609 12.329
45.8546 12.1667
46.0484 12.0095
46.2424 11.8086
46.4365 11.7143
46.631 11.5188
46.8254 11.3067
47.0199 11.1491
47.2146 11.0192
47.4095 10.795
47.6044 10.6267
47.7996 10.5002
47.9948 10.3635
48.1902 10.2262
48.3858 10.0324
48.5815 9.88866
48.7774 9.77301
48.9734 9.622
49.1696 9.44094
49.3661 9.32625
49.5626 9.15426
49.7592 9.03873
49.956 8.94035
50.153 8.78703
50.3501 8.67999
50.5474 8.5231
50.7448 8.38813
50.9424 8.27999
51.1402 8.13988
51.3381 7.97796
51.5362 7.86214
51.7344 7.69663
51.9328 7.5842
52.1316 7.42747
52.3304 7.37332
52.5293 7.26004
52.7284 7.11102
52.9276 6.99846
53.1271 6.89474
53.3267 6.72367
53.5265 6.62798
53.7264 6.52893
53.9266 6.41562
54.1269 6.30034
54.3274 6.14885
54.528 6.02294
54.7289 5.83695
54.9301 5.73025
55.1314 5.56594
55.3328 5.34288
55.5344 5.12103
55.7361 4.99648

File: Ni3Fe_FD0261.xy
TT I
1.27165 8.11211
1.45013 6.55917
1.62863 5.48944
1.80712 5.32695
1.98562 5.08791
2.16411 5.10144
2.34263 4.9744
2.52115 5.59326
2.69965 6.6629
2.87818 8.24928
3.05672 11.2088
3.23527 15.0738
3.4138 19.1516
3.59237 23.6829
3.77094 26.396
3.9495 30.4853
4.12809 35.4886
4.30669 137.361
4.4853 58.4638
4.6639 57.9105
4.84253 71.0769
5.02118 94.3465
5.19981 566.912
5.37848 276.503
5.55716 110.144
5.73586 98.9613
5.91455 105.289
6.09328 3681.73
6.27201 90.2488
6.45075 70.4703
6.62952 65.215
6.8083 60.9022
6.98711 57.85
7.16591 57.4447
7.34475 77.6805
7.5236 56.4568
7.70247 58.3931
7.88135 60.0083
8.06026 65.0826
8.23919 72.7495
8.41812 89.4645
8.59709 1114.2
8.77609 110.705
8.9551 94.0214
9.13412 86.2475
9.31318 87.377
9.49226 88.907
9.67134 99.2553
9.85047 105.597
10.0296 463.013
10.2088 595.71
10.388 111.149
10.5672 446.323
10.7465 92.0661
10.9257 81.5873
11.105 74.739
11.2844 72.2602
11.4637 67.5692
11.6431 66.3637
11.8225 65.431
12.002 66.8658
12.1814 143.927
12.3609 73.4814
12.5405 67.4238
12.72 71.4587
12.8996 74.2701
13.0792 83.3022
13.2589 233.605
13.4386 151.537
13.6183 231.842
13.7981 115.525
13.9779 79.842
14.1577 75.5346
14.3376 73.9755
14.5175 72.1305
14.6974 73.8155
14.8774 118.915
15.0574 175.843
15.2374 73.5223
15.4175 69.5715
15.5976 68.895
15.7778 103.308
15.958 174.487
16.1382 65.0829
16.3185 60.6927
16.4988 57.9491
16.6792 57.0897
16.8596 57.5958
17.04 58.2559
17.2205 68.934
17.401 77.8433
17.5815 61.7755
17.7622 63.9765
17.9428 81.3185
18.1237 135.033
18.3044 91.5848
18.4852 85.2927
18.666 63.215
18.8469 60.7278
19.0278 59.3267
19.2088 63.1688
19.3898 76.2572
19.5709 56.954
19.752 55.6973
19.9332 59.2086
20.1144 71.566
20.2957 64.8687
20.477 57.3565
20.6586 51.8677
20.84 51.0126
21.0215 50.9274
21.203 52.5111
21.3846 51.4516
21.5662 51.0034
21.7479 55.2757
21.9297 66.0961
22.1115 57.5696
22.2933 52.6653
22.4753 50.9005
22.6572 51.2626
22.8393 54.1434
23.0214 59.6624
23.2037 51.1023
23.3859 52.4098
23.5682 57.526
23.7505 51.5379
23.9329 47.2153
24.1154 46.0655
24.2979 45.3963
24.4805 44.8074
24.6631 44.7572
24.8458 44.1878
25.0286 44.68
25.2114 46.4843
25.3943 46.568
25.5773 42.7836
25.7605 42.3082
25.9436 42.4864
26.1268 43.31
26.31 41.9503
26.4933 42.4669
26.6767 43.7704
26.8601 42.3054
27.0437 40.6667
27.2272 40.2792
27.4109 39.9238
27.5946 40.0368
27.7784 39.5816
27.9623 39.8939
28.1462 40.4322
28.3304 38.9397
28.5145 37.5016
28.6987 37.2154
28.8829 36.7729
29.0673 36.2359
29.2517 35.8129
29.4361 35.4986
29.6207 34.5965
29.8053 34.3701
29.99 33.9163
30.1748 33.738
30.3597 33.7856
30.5447 33.4438
30.7297 33.5646
30.915 33.0754
31.1002 32.4582
31.2855 32.1788
31.4708 32.0601
31.6563 31.6715
31.8418 31.466
32.0275 31.281
32.2132 30.7206
32.399 30.166
32.5848 29.6803
32.7708 29.423
32.9569 29.2408
33.143 29.0069
33.3293 28.578
33.5158 28.2448
33.7022 27.6552
33.8887 27.4586
34.0753 27.1606
34.262 26.7491
34.4488 26.33
34.6357 26.0407
34.8227 25.7372
35.0098 25.5418
35.1969 25.2305
35.3842 24.9741
35.5716 24.8232
35.759 24.3924
35.9468 24.1229
36.1345 23.8966
36.3222 23.705
36.5101 23.3209
36.6981 23.1448
36.8861 22.7515
37.0743 22.4537
37.2626 22.1638
37.451 21.8893
37.6395 21.714
37.8281 21.3786
38.0168 21.0607
38.2056 20.787
38.3945 20.5803
38.5837 20.2516
38.7728 20.0881
38.9621 19.7798
39.1514 19.4703
39.3409 19.2758
39.5304 19.0493
39.7201 18.8372
39.9099 18.5722
40.0999 18.3704
40.2899 18.1108
40.48 17.8675
40.6703 17.6643
40.8607 17.4281
41.0512 17.2331
41.242 16.9192
41.4327 16.7383
41.6236 16.5001
41.8146 16.2703
42.0057 16.1007
42.1969 15.8552
42.3882 15.6552
42.5797 15.4857
42.7713 15.2741
42.963 15.0693
43.1549 14.8182
43.3468 14.6585
43.5389 14.3913
43.7312 14.1961
43.9237 13.9786
44.1162 13.8373
44.3088 13.651
44.5016 13.4521
44.6945 13.2154
44.8875 13.0778
45.0806 12.8476
45.2739 12.7406
45.4673 12.5683
45.6609 12.3415
45.8546 12.2103
46.0484 12.0348
46.2424 11.8145
46.4365 11.6711
46.631 11.4855
46.8254 11.2929
47.0199 11.1361
47.2146 11.0029
47.4095 10.8235
47.6044 10.6558
47.7996 10.5004
47.9948 10.3793
48.1902 10.2181
48.3858 10.095
48.5815 9.9249
48.7774 9.78572
48.9734 9.64137
49.1696 9.44305
49.3661 9.37247
49.5626 9.16656
49.7592 9.08604
49.956 8.94
50.153 8.77685
50.3501 8.64547
50.5474 8.5303
50.7448 8.4099
50.9424 8.24283
51.1402 8.13785
51.3381 7.98326
51.5362 7.88598
51.7344 7.76405
51.9328 7.63562
52.1316 7.49381
52.3304 7.37554
52.5293 7.20444
52.7284 7.12918
52.9276 7.02062
53.1271 6.9142
53.3267 6.772
53.5265 6.66115
53.7264 6.559
53.9266 6.40521
54.1269 6.30209
54.3274 6.1589
54.528 5.99679
54.7289 5.8328
54.9301 5.6921
55.1314 5.52668
55.3328 5.33103
55.5344 5.16249
55.7361 4.99008

File: Ni3Fe_FD0262.xy
TT I
1.27165 7.36817
1.45013 6.81936
1.62863 5.85384
1.80712 5.3092
1.98562 5.07617
2.16411 4.88768
2.34263 4.62151
2.52115 5.06848
2.69965 6.82809
2.87818 8.50098
3.05672 11.3407
3.23527 15.0279
3.4138 19.4089
3.59237 23.6465
3.77094 26.3633
3.9495 30.41
4.12809 35.6659
4.30669 145.685
4.4853 59.6053
4.6639 57.541
4.84253 70.4575
5.02118 93.9647
5.19981 560.448
5.37848 275.217
5.55716 110.309
5.73586 98.6054
5.91455 104.483
6.09328 3671.05
6.27201 89.9171
6.45075 71.0853
6.62952 64.9672
6.8083 61.2763
6.98711 57.4697
7.16591 57.6783
7.34475 79.5268
7.5236 56.6652
7.70247 58.2659
7.88135 60.3631
8.06026 65.1178
8.23919 72.9821
8.41812 89.3234
8.59709 1108.14
8.77609 110.062
8.9551 93.8635
9.13412 86.3023
9.31318 87.7357
9.49226 88.4111
9.67134 99.6126
9.85047 105.547
10.0296 457.086
10.2088 593.836
10.388 110.849
10.5672 448.298
10.7465 92.0859
10.9257 81.4277
11.105 74.7898
11.2844 72.4618
11.4637 67.5563
11.6431 66.4187
11.8225 65.353
12.002 66.6325
12.1814 143.798
12.3609 73.1311
12.5405 67.3783
12.72 71.724
12.8996 74.2009
13.0792 83.3399
13.2589 233.177
13.4386 152.256
13.6183 231.316
13.7981 114.981
13.9779 79.4884
14.1577 75.2477
14.3376 73.9077
14.5175 72.1891
14.6974 73.7683
14.8774 118.74
15.0574 176.131
15.2374 73.2688
15.4175 69.4129
15.5976 68.9374
15.7778 103.141
15.958 174.803
16.1382 64.9308
16.3185 60.8957
16.4988 57.9742
16.6792 56.9586
16.8596 57.3632
17.04 58.2611
17.2205 68.9333
17.401 77.981
17.5815 62.0211
17.7622 63.9583
17.9428 81.2016
18.1237 134.888
18.3044 91.6189
18.4852 85.2503
18.666 63.2531
18.8469 60.7267
19.0278 59.3253
19.2088 62.9923
19.3898 76.41
19.5709 57.1283
19.752 55.6522
19.9332 59.3398
20.1144 71.5241
20.2957 64.6807
20.477 57.204
20.6586 51.9349
20.84 50.9007
21.0215 50.8937
21.203 52.5525
21.3846 51.6244
21.5662 51.1175
21.7479 55.1483
21.9297 66.1204
22.1115 57.8122
22.2933 52.6404
22.4753 51.0154
22.6572 51.1411
22.8393 54.0947
23.0214 59.6598
23.2037 51.0292
23.3859 52.3731
23.5682 57.4708
23.7505 51.4391
23.9329 47.4045
24.1154 46.1598
24.2979 45.2271
24.4805 44.7358
24.6631 44.7214
24.8458 44.1333
25.0286 44.7702
25.2114 46.3439
25.3943 46.5016
25.5773 42.828
25.7605 42.3277
25.9436 42.3764
26.1268 43.1946
26.31 42.1441
26.4933 42.454
26.6767 43.82
26.8601 42.2675
27.0437 40.6935
27.2272 40.1862
27.4109 40.0345
27.5946 40.0485
27.7784 39.6675
27.9623 39.7976
28.1462 40.4989
28.3304 38.9669
28.5145 37.6285
28.6987 37.1515
28.8829 36.8702
29.0673 36.2549
29.2517 35.6847
29.4361 35.5119
29.6207 34.6158
29.8053 34.2737
29.99 33.9124
30.1748 33.7393
30.3597 33.742
30.5447 33.5858
30.7297 33.4907
30.915 33.066
31.1002 32.508
31.2855 32.1078
31.4708 32.1346
31.6563 31.7605
31.8418 31.4094
32.0275 31.2196
32.2132 30.7096
32.399 30.1113
32.5848 29.779
32.7708 29.4121
32.9569 29.1952
33.143 28.9671
33.3293 28.5924
33.5158 28.2286
33.7022 27.7737
33.8887 27.3484
34.0753 27.1593
34.262 26.8525
34.4488 26.3958
34.6357 26.1251
34.8227 25.8155
35.0098 25.5254
35.1969 25.2988
35.3842 24.984
35.5716 24.7915
35.759 24.453
35.9468 24.0708
36.1345 23.9337
36.3222 23.6963
36.5101 23.3826
36.6981 23.0716
36.8861 22.7486
37.0743 22.3685
37.2626 22.19
37.451 21.9304
37.6395 21.7012
37.8281 21.3497
38.0168 21.1301
38.2056 20.8145
38.3945 20.4933
38.5837 20.296
38.7728 20.0076
38.9621 19.7948
39.1514 19.4886
39.3409 19.242
39.5304 19.1239
39.7201 18.8748
39.9099 18.6189
40.0999 18.3538
40.2899 18.1198
40.48 17.8302
40.6703 17.6181
40.8607 17.4594
41.0512 17.1631
41.242 16.9512
41.4327 16.75
41.6236 16.4796
41.8146 16.3165
42.0057 16.119
42.1969 15.8743
42.3882 15.7211
42.5797 15.4416
42.7713 15.2338
42.963 15.0726
43.1549 14.8074
43.3468 14.5854
43.5389 14.4084
43.7312 14.1981
43.9237 14.0467
44.1162 13.8447
44.3088 13.644
44.5016 13.4358
44.6945 13.2363
44.8875 13.0628
45.0806 12.8321
45.2739 12.7644
45.4673 12.559
45.6609 12.3343
45.8546 12.218
46.0484 12.0194
46.2424 11.8767
46.4365 11.6689
46.631 11.4911
46.8254 11.3103
47.0199 11.1758
47.2146 10.9698
47.4095 10.7946
47.6044 10.6484
47.7996 10.5115
47.9948 10.3362
48.1902 10.1962
48.3858 10.057
48.5815 9.93594
48.7774 9.76434
48.9734 9.63814
49.1696 9.53037
49.3661 9.36819
49.5626 9.14787
49.7592 9.04935
49.956 8.90673
50.153 8.81749
50.3501 8.64206
50.5474 8.5219
50.7448 8.41594
50.9424 8.26152
51.1402 8.1578
51.3381 8.02572
51.5362 7.88097
51.7344 7.70082
51.9328 7.60098
52.1316 7.46088
52.3304 7.37636
52.5293 7.22629
52.7284 7.12425
52.9276 6.98765
53.1271 6.88892
53.3267 6.77865
53.5265 6.62318
53.7264 6.52994
53.9266 6.38851
54.1269 6.28263
54.3274 6.17535
54.528 6.03492
54.7289 5.83125
54.9301 5.72602
55.1314 5.57149
55.3328 5.33634
55.5344 5.13185
55.7361 4.97687