Folder: NiFe_MOF_catalyst_paper/XRD (part 49)

File: Ni3Fe_FD0251.xy
TT I
1.27165 7.93747
1.45013 6.35427
1.62863 5.25092
1.80712 5.2186
1.98562 5.12798
2.16411 4.4825
2.34263 4.54149
2.52115 5.70043
2.69965 6.66501
2.87818 7.79106
3.05672 10.7525
3.23527 14.5946
3.4138 19.1905
3.59237 22.7815
3.77094 25.5611
3.9495 29.9178
4.12809 35.0536
4.30669 40.0068
4.4853 48.4213
4.6639 57.9334
4.84253 71.3393
5.02118 96.292
5.19981 884.003
5.37848 262.462
5.55716 111.619
5.73586 100.358
5.91455 109.204
6.09328 3741.52
6.27201 88.4539
6.45075 70.8408
6.62952 64.2087
6.8083 59.9048
6.98711 57.2265
7.16591 56.0892
7.34475 55.6833
7.5236 56.3466
7.70247 57.8713
7.88135 60.2664
8.06026 65.2893
8.23919 72.9858
8.41812 89.9451
8.59709 1089.92
8.77609 109.318
8.9551 90.6059
9.13412 86.4351
9.31318 88.4021
9.49226 89.5604
9.67134 95.5453
9.85047 106.63
10.0296 513.057
10.2088 517.857
10.388 115.081
10.5672 453.348
10.7465 91.8352
10.9257 80.7713
11.105 74.4682
11.2844 70.6336
11.4637 67.5695
11.6431 66.2109
11.8225 65.3891
12.002 68.6589
12.1814 142.123
12.3609 69.4462
12.5405 67.2895
12.72 69.7189
12.8996 74.5689
13.0792 86.4198
13.2589 233.114
13.4386 146.522
13.6183 229.773
13.7981 109.69
13.9779 79.7162
14.1577 75.1275
14.3376 72.8101
14.5175 72.5299
14.6974 74.4453
14.8774 120.083
15.0574 166.784
15.2374 72.2722
15.4175 69.5406
15.5976 69.8241
15.7778 104.284
15.958 168.98
16.1382 63.4922
16.3185 60.2549
16.4988 57.8217
16.6792 56.9103
16.8596 57.2852
17.04 59.0475
17.2205 69.2367
17.401 76.5887
17.5815 62.2075
17.7622 64.5195
17.9428 82.5064
18.1237 138.965
18.3044 90.5866
18.4852 82.9008
18.666 63.1035
18.8469 60.62
19.0278 59.5578
19.2088 62.761
19.3898 76.7137
19.5709 56.8992
19.752 55.9704
19.9332 59.4645
20.1144 72.548
20.2957 64.7704
20.477 56.4404
20.6586 51.9761
20.84 51.0237
21.0215 51.1297
21.203 52.4664
21.3846 51.359
21.5662 51.6533
21.7479 55.6645
21.9297 66.8183
22.1115 57.5376
22.2933 52.3224
22.4753 50.7535
22.6572 51.7815
22.8393 54.1548
23.0214 59.7399
23.2037 51.3248
23.3859 52.5045
23.5682 57.7244
23.7505 50.8645
23.9329 47.3224
24.1154 46.0494
24.2979 45.3821
24.4805 44.6433
24.6631 44.8031
24.8458 44.3339
25.0286 44.8646
25.2114 46.3666
25.3943 46.4398
25.5773 42.7635
25.7605 42.3233
25.9436 42.5574
26.1268 43.4166
26.31 41.9342
26.4933 42.4042
26.6767 43.861
26.8601 42.2208
27.0437 40.649
27.2272 40.377
27.4109 40.0163
27.5946 40.2287
27.7784 39.572
27.9623 39.9195
28.1462 40.3866
28.3304 38.8207
28.5145 37.5833
28.6987 37.0314
28.8829 36.8821
29.0673 36.2385
29.2517 35.7555
29.4361 35.5901
29.6207 34.5004
29.8053 34.351
29.99 33.9286
30.1748 33.9157
30.3597 33.6538
30.5447 33.5184
30.7297 33.6606
30.915 33.0159
31.1002 32.5496
31.2855 32.2775
31.4708 32.0715
31.6563 31.7512
31.8418 31.4291
32.0275 31.1932
32.2132 30.6331
32.399 30.2126
32.5848 29.6626
32.7708 29.3943
32.9569 29.2314
33.143 28.8974
33.3293 28.6401
33.5158 28.2546
33.7022 27.6975
33.8887 27.4558
34.0753 27.1388
34.262 26.7246
34.4488 26.4159
34.6357 26.0882
34.8227 25.7072
35.0098 25.5827
35.1969 25.1955
35.3842 24.9453
35.5716 24.7696
35.759 24.4979
35.9468 24.0789
36.1345 23.8144
36.3222 23.635
36.5101 23.3442
36.6981 23.0617
36.8861 22.706
37.0743 22.4155
37.2626 22.1618
37.451 21.8643
37.6395 21.7579
37.8281 21.3065
38.0168 21.1025
38.2056 20.7589
38.3945 20.5056
38.5837 20.3065
38.7728 20.0072
38.9621 19.752
39.1514 19.5011
39.3409 19.2417
39.5304 19.0144
39.7201 18.8768
39.9099 18.5694
40.0999 18.3266
40.2899 18.0475
40.48 17.8487
40.6703 17.651
40.8607 17.4243
41.0512 17.1478
41.242 16.9222
41.4327 16.7036
41.6236 16.479
41.8146 16.3393
42.0057 16.0967
42.1969 15.816
42.3882 15.6535
42.5797 15.4189
42.7713 15.2064
42.963 15.065
43.1549 14.8109
43.3468 14.533
43.5389 14.3661
43.7312 14.1857
43.9237 14.0161
44.1162 13.8321
44.3088 13.5937
44.5016 13.4143
44.6945 13.2545
44.8875 13.0417
45.0806 12.8949
45.2739 12.6663
45.4673 12.4925
45.6609 12.3254
45.8546 12.2118
46.0484 11.9874
46.2424 11.7975
46.4365 11.6653
46.631 11.4496
46.8254 11.3208
47.0199 11.1517
47.2146 10.997
47.4095 10.7985
47.6044 10.6192
47.7996 10.4794
47.9948 10.3143
48.1902 10.2177
48.3858 10.0289
48.5815 9.89534
48.7774 9.75244
48.9734 9.63724
49.1696 9.44286
49.3661 9.33382
49.5626 9.1789
49.7592 9.05112
49.956 8.89074
50.153 8.79484
50.3501 8.66024
50.5474 8.47447
50.7448 8.34046
50.9424 8.23394
51.1402 8.11745
51.3381 7.98781
51.5362 7.82969
51.7344 7.70495
51.9328 7.62549
52.1316 7.42135
52.3304 7.33972
52.5293 7.21537
52.7284 7.09314
52.9276 6.97597
53.1271 6.87098
53.3267 6.73023
53.5265 6.62703
53.7264 6.48878
53.9266 6.41992
54.1269 6.25965
54.3274 6.17239
54.528 5.99582
54.7289 5.80449
54.9301 5.66584
55.1314 5.54841
55.3328 5.30444
55.5344 5.11115
55.7361 4.9426

File: Ni3Fe_FD0252.xy
TT I
1.27165 8.02351
1.45013 6.31643
1.62863 5.42209
1.80712 5.04429
1.98562 4.96851
2.16411 4.88973
2.34263 4.6459
2.52115 4.97779
2.69965 6.62278
2.87818 7.70165
3.05672 10.6033
3.23527 15.0203
3.4138 19.364
3.59237 22.3915
3.77094 26.006
3.9495 30.0192
4.12809 34.9028
4.30669 40.3833
4.4853 48.7507
4.6639 57.8435
4.84253 71.7334
5.02118 95.432
5.19981 880.089
5.37848 261.35
5.55716 111.517
5.73586 100.506
5.91455 108.557
6.09328 3716.07
6.27201 88.1312
6.45075 71.2065
6.62952 64.4774
6.8083 60.294
6.98711 57.5749
7.16591 56.5954
7.34475 55.6404
7.5236 56.1154
7.70247 58.1372
7.88135 59.9605
8.06026 65.212
8.23919 73.0099
8.41812 89.6099
8.59709 1086.02
8.77609 109.278
8.9551 90.6257
9.13412 86.7524
9.31318 87.9992
9.49226 89.3046
9.67134 95.3292
9.85047 106.275
10.0296 513.708
10.2088 518.74
10.388 114.872
10.5672 452.087
10.7465 91.632
10.9257 80.7319
11.105 74.2993
11.2844 70.2909
11.4637 67.5029
11.6431 66.1863
11.8225 65.1576
12.002 68.1554
12.1814 142.194
12.3609 69.82
12.5405 67.14
12.72 69.5867
12.8996 74.4311
13.0792 86.238
13.2589 233.148
13.4386 146.62
13.6183 229.496
13.7981 109.605
13.9779 79.3862
14.1577 75.0354
14.3376 72.6828
14.5175 72.3461
14.6974 74.5389
14.8774 120.492
15.0574 167.472
15.2374 72.2227
15.4175 69.4274
15.5976 69.42
15.7778 104.005
15.958 169.079
16.1382 63.4848
16.3185 60.0149
16.4988 57.8767
16.6792 56.8208
16.8596 57.0918
17.04 59.0255
17.2205 69.204
17.401 76.3051
17.5815 61.8262
17.7622 64.4623
17.9428 82.4685
18.1237 139.08
18.3044 90.4235
18.4852 82.9101
18.666 63.0575
18.8469 60.7902
19.0278 59.4453
19.2088 62.6818
19.3898 76.3098
19.5709 56.8398
19.752 55.9778
19.9332 59.409
20.1144 72.3432
20.2957 64.486
20.477 56.2066
20.6586 51.9571
20.84 50.9109
21.0215 50.9857
21.203 52.4471
21.3846 51.3046
21.5662 51.8028
21.7479 55.4863
21.9297 66.506
22.1115 57.6969
22.2933 52.2186
22.4753 50.7436
22.6572 51.8303
22.8393 54.054
23.0214 59.7242
23.2037 51.2608
23.3859 52.4046
23.5682 57.7586
23.7505 50.9221
23.9329 47.2968
24.1154 46.0412
24.2979 45.3285
24.4805 44.8515
24.6631 44.7795
24.8458 44.17
25.0286 44.9418
25.2114 46.47
25.3943 46.4491
25.5773 42.7261
25.7605 42.2257
25.9436 42.6068
26.1268 43.3796
26.31 42.0998
26.4933 42.4266
26.6767 43.9681
26.8601 42.216
27.0437 40.5932
27.2272 40.2113
27.4109 40.109
27.5946 40.1219
27.7784 39.5663
27.9623 39.8645
28.1462 40.5191
28.3304 38.7637
28.5145 37.4063
28.6987 37.1816
28.8829 36.9337
29.0673 36.3597
29.2517 35.735
29.4361 35.5784
29.6207 34.6249
29.8053 34.2755
29.99 33.939
30.1748 33.7758
30.3597 33.581
30.5447 33.4685
30.7297 33.5597
30.915 32.925
31.1002 32.404
31.2855 32.2236
31.4708 32.1387
31.6563 31.7237
31.8418 31.3818
32.0275 31.2255
32.2132 30.6315
32.399 30.221
32.5848 29.6897
32.7708 29.253
32.9569 29.2934
33.143 28.8637
33.3293 28.5101
33.5158 28.1679
33.7022 27.7248
33.8887 27.4024
34.0753 27.0988
34.262 26.7191
34.4488 26.3634
34.6357 25.973
34.8227 25.6651
35.0098 25.5958
35.1969 25.2635
35.3842 25.0363
35.5716 24.8063
35.759 24.4546
35.9468 24.0459
36.1345 23.8591
36.3222 23.6492
36.5101 23.2649
36.6981 23.0552
36.8861 22.6669
37.0743 22.3402
37.2626 22.1796
37.451 21.858
37.6395 21.6925
37.8281 21.354
38.0168 21.1055
38.2056 20.8054
38.3945 20.5182
38.5837 20.2268
38.7728 20.0237
38.9621 19.7372
39.1514 19.4923
39.3409 19.249
39.5304 18.9866
39.7201 18.8702
39.9099 18.5895
40.0999 18.3479
40.2899 18.0667
40.48 17.8369
40.6703 17.629
40.8607 17.4482
41.0512 17.1718
41.242 16.9232
41.4327 16.7813
41.6236 16.4459
41.8146 16.3214
42.0057 16.0946
42.1969 15.8261
42.3882 15.7312
42.5797 15.4603
42.7713 15.2065
42.963 15.0147
43.1549 14.8158
43.3468 14.5434
43.5389 14.405
43.7312 14.2028
43.9237 14.0725
44.1162 13.8299
44.3088 13.6515
44.5016 13.4097
44.6945 13.2616
44.8875 13.0255
45.0806 12.8683
45.2739 12.6984
45.4673 12.5428
45.6609 12.322
45.8546 12.1482
46.0484 11.9738
46.2424 11.8144
46.4365 11.6852
46.631 11.4584
46.8254 11.2979
47.0199 11.1257
47.2146 10.9522
47.4095 10.793
47.6044 10.6103
47.7996 10.4723
47.9948 10.3141
48.1902 10.1962
48.3858 10.0498
48.5815 9.87978
48.7774 9.77302
48.9734 9.60866
49.1696 9.45317
49.3661 9.34955
49.5626 9.13236
49.7592 9.03162
49.956 8.88961
50.153 8.76577
50.3501 8.60019
50.5474 8.50623
50.7448 8.34646
50.9424 8.21535
51.1402 8.0934
51.3381 7.95866
51.5362 7.85205
51.7344 7.71132
51.9328 7.59613
52.1316 7.46972
52.3304 7.34281
52.5293 7.19564
52.7284 7.11189
52.9276 7.02059
53.1271 6.87212
53.3267 6.74453
53.5265 6.64258
53.7264 6.51209
53.9266 6.39112
54.1269 6.29067
54.3274 6.15508
54.528 5.99979
54.7289 5.81144
54.9301 5.6788
55.1314 5.52403
55.3328 5.31546
55.5344 5.14369
55.7361 4.9825

File: Ni3Fe_FD0253.xy
TT I
1.27165 8.1092
1.45013 6.3501
1.62863 5.30037
1.80712 5.50186
1.98562 5.04519
2.16411 4.41963
2.34263 5.02576
2.52115 4.9575
2.69965 5.58865
2.87818 8.52194
3.05672 11.1939
3.23527 14.827
3.4138 18.9345
3.59237 21.8741
3.77094 25.7953
3.9495 29.6329
4.12809 34.5946
4.30669 40.306
4.4853 48.4883
4.6639 57.7786
4.84253 71.489
5.02118 95.5721
5.19981 870.416
5.37848 259.97
5.55716 111.42
5.73586 100.317
5.91455 108.955
6.09328 3710.01
6.27201 88.4647
6.45075 70.8373
6.62952 63.974
6.8083 59.9441
6.98711 57.255
7.16591 56.6042
7.34475 55.6376
7.5236 55.7347
7.70247 58.0843
7.88135 59.7911
8.06026 65.0565
8.23919 72.8681
8.41812 89.847
8.59709 1084.47
8.77609 109.639
8.9551 90.3892
9.13412 86.2707
9.31318 87.9009
9.49226 89.1642
9.67134 95.0149
9.85047 106.313
10.0296 512.93
10.2088 525.061
10.388 114.665
10.5672 453.363
10.7465 91.8041
10.9257 80.6656
11.105 74.7312
11.2844 70.3335
11.4637 67.3344
11.6431 65.891
11.8225 65.0557
12.002 68.5566
12.1814 141.584
12.3609 69.5001
12.5405 67.262
12.72 69.2968
12.8996 74.7235
13.0792 86.0104
13.2589 232.205
13.4386 148.381
13.6183 229.106
13.7981 109.258
13.9779 79.7411
14.1577 74.9062
14.3376 72.5263
14.5175 72.1925
14.6974 74.2544
14.8774 120.01
15.0574 167.544
15.2374 71.8366
15.4175 69.7371
15.5976 69.6911
15.7778 104.0
15.958 170.453
16.1382 63.5115
16.3185 59.7515
16.4988 57.7268
16.6792 56.7918
16.8596 56.9654
17.04 58.9981
17.2205 69.0061
17.401 76.686
17.5815 61.9807
17.7622 64.5045
17.9428 82.3442
18.1237 139.295
18.3044 90.4591
18.4852 82.8982
18.666 63.1348
18.8469 60.7347
19.0278 59.4629
19.2088 62.6463
19.3898 76.3304
19.5709 57.0152
19.752 55.7101
19.9332 59.3481
20.1144 72.3281
20.2957 64.5264
20.477 56.2343
20.6586 51.9005
20.84 50.9803
21.0215 50.9214
21.203 52.4378
21.3846 51.1932
21.5662 51.4235
21.7479 55.3319
21.9297 66.432
22.1115 57.4762
22.2933 52.1218
22.4753 50.613
22.6572 51.7412
22.8393 54.2408
23.0214 59.6965
23.2037 51.3392
23.3859 52.5167
23.5682 57.6053
23.7505 50.9244
23.9329 47.1909
24.1154 45.9191
24.2979 45.2344
24.4805 44.7062
24.6631 44.6719
24.8458 44.2423
25.0286 44.8453
25.2114 46.3842
25.3943 46.5346
25.5773 42.7235
25.7605 42.2853
25.9436 42.5182
26.1268 43.5113
26.31 42.0896
26.4933 42.2898
26.6767 43.911
26.8601 42.3003
27.0437 40.5874
27.2272 40.2286
27.4109 39.9747
27.5946 40.0924
27.7784 39.5546
27.9623 39.6873
28.1462 40.4558
28.3304 38.8559
28.5145 37.4613
28.6987 37.0805
28.8829 36.7674
29.0673 36.2265
29.2517 35.7874
29.4361 35.4853
29.6207 34.5946
29.8053 34.2776
29.99 33.9329
30.1748 33.7992
30.3597 33.5916
30.5447 33.4752
30.7297 33.4717
30.915 32.9985
31.1002 32.4351
31.2855 32.0841
31.4708 32.0518
31.6563 31.7107
31.8418 31.392
32.0275 31.1927
32.2132 30.679
32.399 30.139
32.5848 29.6765
32.7708 29.3876
32.9569 29.1203
33.143 28.9988
33.3293 28.55
33.5158 28.2185
33.7022 27.7748
33.8887 27.416
34.0753 27.0943
34.262 26.7385
34.4488 26.3507
34.6357 26.0257
34.8227 25.8099
35.0098 25.446
35.1969 25.2086
35.3842 24.9715
35.5716 24.7145
35.759 24.4482
35.9468 24.1585
36.1345 23.8959
36.3222 23.6303
36.5101 23.3066
36.6981 23.0256
36.8861 22.7144
37.0743 22.4174
37.2626 22.1137
37.451 21.8246
37.6395 21.6093
37.8281 21.2869
38.0168 21.0936
38.2056 20.7985
38.3945 20.5098
38.5837 20.2803
38.7728 20.0098
38.9621 19.7103
39.1514 19.4385
39.3409 19.2232
39.5304 18.9636
39.7201 18.7963
39.9099 18.6415
40.0999 18.3124
40.2899 18.0879
40.48 17.8756
40.6703 17.6838
40.8607 17.4371
41.0512 17.2002
41.242 16.8629
41.4327 16.6616
41.6236 16.5256
41.8146 16.2664
42.0057 16.0791
42.1969 15.8593
42.3882 15.683
42.5797 15.42
42.7713 15.2186
42.963 15.0051
43.1549 14.8098
43.3468 14.5858
43.5389 14.4086
43.7312 14.1957
43.9237 13.9866
44.1162 13.7611
44.3088 13.6252
44.5016 13.4132
44.6945 13.2524
44.8875 13.0391
45.0806 12.8416
45.2739 12.7066
45.4673 12.5194
45.6609 12.3201
45.8546 12.1703
46.0484 12.0059
46.2424 11.8378
46.4365 11.6129
46.631 11.4965
46.8254 11.2852
47.0199 11.1667
47.2146 10.9694
47.4095 10.7701
47.6044 10.6431
47.7996 10.4792
47.9948 10.3267
48.1902 10.1371
48.3858 9.98897
48.5815 9.90594
48.7774 9.79362
48.9734 9.59306
49.1696 9.49145
49.3661 9.30789
49.5626 9.17718
49.7592 9.03422
49.956 8.91181
50.153 8.77221
50.3501 8.61128
50.5474 8.50911
50.7448 8.36746
50.9424 8.24877
51.1402 8.11427
51.3381 7.9824
51.5362 7.84715
51.7344 7.70764
51.9328 7.57334
52.1316 7.43853
52.3304 7.33413
52.5293 7.22426
52.7284 7.13554
52.9276 6.99067
53.1271 6.86092
53.3267 6.78854
53.5265 6.63331
53.7264 6.50921
53.9266 6.40068
54.1269 6.29722
54.3274 6.12379
54.528 5.95897
54.7289 5.8457
54.9301 5.66318
55.1314 5.52924
55.3328 5.29977
55.5344 5.13895
55.7361 4.9824

File: Ni3Fe_FD0255.xy
TT I
1.27165 8.35955
1.45013 6.39051
1.62863 5.71948
1.80712 4.95137
1.98562 4.54151
2.16411 4.49958
2.34263 4.242
2.52115 4.94835
2.69965 6.69735
2.87818 8.34786
3.05672 10.9825
3.23527 15.3602
3.4138 18.5111
3.59237 22.8267
3.77094 26.2454
3.9495 30.5869
4.12809 35.1165
4.30669 63.3765
4.4853 50.7597
4.6639 57.823
4.84253 71.3194
5.02118 95.8638
5.19981 633.438
5.37848 278.234
5.55716 111.464
5.73586 99.9869
5.91455 107.18
6.09328 3626.3
6.27201 88.8646
6.45075 71.0206
6.62952 64.0176
6.8083 60.1672
6.98711 57.4058
7.16591 57.7788
7.34475 61.4331
7.5236 55.8374
7.70247 58.185
7.88135 60.0541
8.06026 65.1163
8.23919 72.8103
8.41812 89.3848
8.59709 1108.92
8.77609 110.639
8.9551 90.8649
9.13412 86.5919
9.31318 87.6028
9.49226 89.2882
9.67134 96.1123
9.85047 105.836
10.0296 516.278
10.2088 610.675
10.388 111.348
10.5672 436.236
10.7465 91.9806
10.9257 80.6417
11.105 74.6335
11.2844 70.818
11.4637 67.5386
11.6431 66.2718
11.8225 65.0752
12.002 66.7419
12.1814 142.053
12.3609 71.3706
12.5405 67.6323
12.72 69.6709
12.8996 74.5933
13.0792 83.8537
13.2589 237.396
13.4386 153.482
13.6183 231.657
13.7981 116.867
13.9779 79.6542
14.1577 75.1783
14.3376 73.1674
14.5175 71.9513
14.6974 73.9332
14.8774 123.787
15.0574 174.844
15.2374 72.4537
15.4175 69.3853
15.5976 69.1592
15.7778 107.504
15.958 174.48
16.1382 63.9919
16.3185 60.3859
16.4988 57.6614
16.6792 56.8363
16.8596 57.0932
17.04 58.2948
17.2205 69.697
17.401 77.7579
17.5815 61.8735
17.7622 64.1746
17.9428 83.6486
18.1237 133.492
18.3044 91.3614
18.4852 85.2876
18.666 63.2435
18.8469 60.8707
19.0278 59.4916
19.2088 63.5481
19.3898 75.3765
19.5709 57.1168
19.752 55.6948
19.9332 59.9231
20.1144 71.6312
20.2957 64.347
20.477 57.074
20.6586 51.8836
20.84 51.0525
21.0215 50.9774
21.203 52.4727
21.3846 51.5282
21.5662 51.2433
21.7479 55.7295
21.9297 65.9491
22.1115 57.6593
22.2933 52.5675
22.4753 50.7063
22.6572 51.3265
22.8393 54.0851
23.0214 59.6544
23.2037 51.0369
23.3859 52.7063
23.5682 57.0547
23.7505 51.5922
23.9329 47.3909
24.1154 45.9662
24.2979 45.3152
24.4805 44.7648
24.6631 44.5967
24.8458 44.1198
25.0286 44.8791
25.2114 46.4254
25.3943 46.5317
25.5773 42.751
25.7605 42.2874
25.9436 42.5576
26.1268 43.3567
26.31 42.0123
26.4933 42.511
26.6767 43.7569
26.8601 42.1756
27.0437 40.6936
27.2272 40.299
27.4109 40.1924
27.5946 40.0975
27.7784 39.6593
27.9623 39.8987
28.1462 40.5314
28.3304 38.8452
28.5145 37.5827
28.6987 37.1223
28.8829 36.934
29.0673 36.1694
29.2517 35.6674
29.4361 35.5621
29.6207 34.581
29.8053 34.41
29.99 34.0342
30.1748 33.7313
30.3597 33.5876
30.5447 33.5387
30.7297 33.5085
30.915 33.0508
31.1002 32.4505
31.2855 32.0995
31.4708 32.0101
31.6563 31.7838
31.8418 31.3912
32.0275 31.1451
32.2132 30.6584
32.399 30.2157
32.5848 29.7892
32.7708 29.4312
32.9569 29.1735
33.143 28.9785
33.3293 28.6183
33.5158 28.1369
33.7022 27.7433
33.8887 27.4956
34.0753 27.1284
34.262 26.7793
34.4488 26.3654
34.6357 26.0717
34.8227 25.732
35.0098 25.5407
35.1969 25.1697
35.3842 24.9361
35.5716 24.8313
35.759 24.4956
35.9468 24.0548
36.1345 23.8809
36.3222 23.5923
36.5101 23.4531
36.6981 23.0828
36.8861 22.689
37.0743 22.3836
37.2626 22.1716
37.451 21.9141
37.6395 21.795
37.8281 21.3678
38.0168 21.0139
38.2056 20.8106
38.3945 20.5133
38.5837 20.2433
38.7728 19.9881
38.9621 19.8185
39.1514 19.5038
39.3409 19.2669
39.5304 19.0427
39.7201 18.8089
39.9099 18.5668
40.0999 18.3823
40.2899 18.1047
40.48 17.8264
40.6703 17.5674
40.8607 17.3831
41.0512 17.1821
41.242 16.9267
41.4327 16.7228
41.6236 16.4862
41.8146 16.3299
42.0057 16.0793
42.1969 15.8489
42.3882 15.6215
42.5797 15.4508
42.7713 15.2243
42.963 14.9794
43.1549 14.8261
43.3468 14.6019
43.5389 14.3863
43.7312 14.2019
43.9237 14.0221
44.1162 13.7876
44.3088 13.6248
44.5016 13.4036
44.6945 13.2331
44.8875 13.066
45.0806 12.8883
45.2739 12.7235
45.4673 12.5201
45.6609 12.3315
45.8546 12.1579
46.0484 12.0151
46.2424 11.8122
46.4365 11.6717
46.631 11.4781
46.8254 11.2744
47.0199 11.1208
47.2146 10.9903
47.4095 10.8065
47.6044 10.6349
47.7996 10.4999
47.9948 10.3548
48.1902 10.2184
48.3858 10.0656
48.5815 9.93825
48.7774 9.79048
48.9734 9.63197
49.1696 9.46
49.3661 9.28359
49.5626 9.18573
49.7592 9.05273
49.956 8.92244
50.153 8.76698
50.3501 8.6449
50.5474 8.49329
50.7448 8.41317
50.9424 8.26536
51.1402 8.12589
51.3381 7.97718
51.5362 7.86064
51.7344 7.73938
51.9328 7.5821
52.1316 7.46624
52.3304 7.34049
52.5293 7.23399
52.7284 7.12056
52.9276 6.99639
53.1271 6.87502
53.3267 6.76044
53.5265 6.62123
53.7264 6.50602
53.9266 6.42699
54.1269 6.31855
54.3274 6.15999
54.528 6.02628
54.7289 5.86808
54.9301 5.70976
55.1314 5.55911
55.3328 5.31399
55.5344 5.10307
55.7361 4.99295

File: Ni3Fe_FD0256.xy
TT I
1.27165 7.68551
1.45013 6.96111
1.62863 5.94771
1.80712 5.38887
1.98562 5.12135
2.16411 5.00423
2.34263 4.60825
2.52115 5.27676
2.69965 6.42516
2.87818 8.08286
3.05672 11.36
3.23527 15.0266
3.4138 18.8243
3.59237 22.8972
3.77094 26.3589
3.9495 30.7435
4.12809 35.0823
4.30669 82.6218
4.4853 52.7611
4.6639 57.7076
4.84253 70.9593
5.02118 95.4842
5.19981 603.048
5.37848 280.774
5.55716 111.076
5.73586 99.4352
5.91455 105.893
6.09328 3653.24
6.27201 88.8884
6.45075 70.9634
6.62952 64.5239
6.8083 60.4774
6.98711 57.3211
7.16591 57.6972
7.34475 65.9662
7.5236 56.1731
7.70247 58.0358
7.88135 59.9111
8.06026 65.1364
8.23919 72.5066
8.41812 89.3331
8.59709 1104.63
8.77609 110.672
8.9551 91.7292
9.13412 86.4241
9.31318 87.6487
9.49226 88.8027
9.67134 96.9224
9.85047 105.711
10.0296 501.623
10.2088 628.469
10.388 111.33
10.5672 438.423
10.7465 92.134
10.9257 80.9946
11.105 74.8169
11.2844 70.9041
11.4637 67.276
11.6431 65.9771
11.8225 64.8677
12.002 66.7719
12.1814 142.56
12.3609 72.458
12.5405 67.1213
12.72 70.1407
12.8996 73.9997
13.0792 83.5126
13.2589 237.177
13.4386 156.683
13.6183 231.973
13.7981 116.961
13.9779 79.6582
14.1577 75.1864
14.3376 72.9423
14.5175 72.1886
14.6974 73.6666
14.8774 122.881
15.0574 176.279
15.2374 72.6451
15.4175 69.55
15.5976 69.132
15.7778 106.697
15.958 175.336
16.1382 64.1265
16.3185 60.2453
16.4988 57.6659
16.6792 56.7554
16.8596 57.1759
17.04 58.2703
17.2205 69.2453
17.401 77.8958
17.5815 61.888
17.7622 64.1054
17.9428 82.7612
18.1237 133.583
18.3044 91.5018
18.4852 85.6313
18.666 63.0747
18.8469 60.6749
19.0278 59.3736
19.2088 63.35
19.3898 75.3957
19.5709 56.9785
19.752 55.716
19.9332 59.6426
20.1144 71.5771
20.2957 64.4275
20.477 57.2402
20.6586 51.7966
20.84 51.073
21.0215 50.8017
21.203 52.4808
21.3846 51.6303
21.5662 51.1024
21.7479 55.6305
21.9297 66.0376
22.1115 57.7581
22.2933 52.679
22.4753 50.9557
22.6572 51.2634
22.8393 54.2333
23.0214 59.721
23.2037 51.1027
23.3859 52.6758
23.5682 57.1891
23.7505 51.6014
23.9329 47.4533
24.1154 46.1765
24.2979 45.2587
24.4805 44.7496
24.6631 44.7798
24.8458 44.1354
25.0286 44.8348
25.2114 46.4169
25.3943 46.5055
25.5773 42.8591
25.7605 42.3754
25.9436 42.6787
26.1268 43.4559
26.31 42.042
26.4933 42.5174
26.6767 43.8205
26.8601 42.3642
27.0437 40.6497
27.2272 40.2345
27.4109 40.1058
27.5946 40.2514
27.7784 39.6791
27.9623 39.8851
28.1462 40.574
28.3304 38.9821
28.5145 37.4928
28.6987 37.2206
28.8829 36.8222
29.0673 36.1954
29.2517 35.8894
29.4361 35.6714
29.6207 34.5999
29.8053 34.2798
29.99 34.0222
30.1748 33.7685
30.3597 33.6437
30.5447 33.5756
30.7297 33.6424
30.915 33.0795
31.1002 32.5863
31.2855 32.3099
31.4708 32.0999
31.6563 31.7585
31.8418 31.4629
32.0275 31.1565
32.2132 30.7007
32.399 30.2894
32.5848 29.7292
32.7708 29.4419
32.9569 29.298
33.143 29.0604
33.3293 28.6441
33.5158 28.2463
33.7022 27.7576
33.8887 27.4433
34.0753 27.1589
34.262 26.7694
34.4488 26.3582
34.6357 26.0696
34.8227 25.7483
35.0098 25.5765
35.1969 25.2389
35.3842 24.9595
35.5716 24.8231
35.759 24.4849
35.9468 24.1325
36.1345 23.8705
36.3222 23.613
36.5101 23.333
36.6981 23.0306
36.8861 22.776
37.0743 22.4858
37.2626 22.13
37.451 21.8563
37.6395 21.7264
37.8281 21.3287
38.0168 21.0724
38.2056 20.8365
38.3945 20.551
38.5837 20.3153
38.7728 20.0585
38.9621 19.8058
39.1514 19.5576
39.3409 19.2762
39.5304 19.05
39.7201 18.8204
39.9099 18.6681
40.0999 18.3466
40.2899 18.0578
40.48 17.8587
40.6703 17.6796
40.8607 17.481
41.0512 17.2085
41.242 16.9457
41.4327 16.7622
41.6236 16.4572
41.8146 16.3034
42.0057 16.0841
42.1969 15.8636
42.3882 15.689
42.5797 15.449
42.7713 15.2584
42.963 15.0478
43.1549 14.8583
43.3468 14.6539
43.5389 14.3825
43.7312 14.2508
43.9237 14.0676
44.1162 13.8341
44.3088 13.5909
44.5016 13.4754
44.6945 13.2473
44.8875 13.0779
45.0806 12.9002
45.2739 12.7287
45.4673 12.5452
45.6609 12.368
45.8546 12.2006
46.0484 11.9886
46.2424 11.8342
46.4365 11.7071
46.631 11.4643
46.8254 11.2942
47.0199 11.1652
47.2146 10.9929
47.4095 10.8282
47.6044 10.646
47.7996 10.4865
47.9948 10.3551
48.1902 10.2131
48.3858 10.0296
48.5815 9.87725
48.7774 9.73345
48.9734 9.64057
49.1696 9.47554
49.3661 9.30332
49.5626 9.16797
49.7592 9.06016
49.956 8.92706
50.153 8.77244
50.3501 8.67037
50.5474 8.54304
50.7448 8.39183
50.9424 8.20959
51.1402 8.13956
51.3381 8.00759
51.5362 7.85959
51.7344 7.72051
51.9328 7.59772
52.1316 7.43865
52.3304 7.38482
52.5293 7.24806
52.7284 7.13438
52.9276 6.99648
53.1271 6.88243
53.3267 6.7678
53.5265 6.63878
53.7264 6.52326
53.9266 6.40954
54.1269 6.26989
54.3274 6.16094
54.528 5.99151
54.7289 5.88914
54.9301 5.69489
55.1314 5.54328
55.3328 5.29855
55.5344 5.09769
55.7361 5.03