Folder: NiFe_MOF_catalyst_paper/XRD (part 103)

File: Ni3Fe_FD0559.xy
TT I
1.27165 7.49867
1.45013 5.36644
1.62863 5.14791
1.80712 4.56834
1.98562 4.75963
2.16411 4.90857
2.34263 5.15718
2.52115 6.3062
2.69965 8.11987
2.87818 8.17826
3.05672 11.325
3.23527 14.7521
3.4138 18.8527
3.59237 23.6354
3.77094 26.0533
3.9495 29.5799
4.12809 34.8296
4.30669 156.797
4.4853 59.5593
4.6639 56.0669
4.84253 68.1494
5.02118 88.1994
5.19981 424.963
5.37848 196.459
5.55716 102.981
5.73586 93.4549
5.91455 96.7476
6.09328 4456.02
6.27201 82.822
6.45075 67.847
6.62952 62.4884
6.8083 58.7669
6.98711 55.9829
7.16591 55.2243
7.34475 80.3614
7.5236 54.7551
7.70247 56.1866
7.88135 58.0878
8.06026 62.7163
8.23919 69.7868
8.41812 85.9163
8.59709 1224.66
8.77609 99.7189
8.9551 89.961
9.13412 82.838
9.31318 83.2378
9.49226 85.5701
9.67134 96.6341
9.85047 100.548
10.0296 376.282
10.2088 380.878
10.388 105.851
10.5672 516.797
10.7465 86.9991
10.9257 78.3435
11.105 72.0506
11.2844 69.7845
11.4637 65.1726
11.6431 63.7986
11.8225 62.8337
12.002 64.3419
12.1814 155.401
12.3609 69.2056
12.5405 65.0273
12.72 69.3605
12.8996 71.5904
13.0792 80.3647
13.2589 248.373
13.4386 122.223
13.6183 253.818
13.7981 96.3751
13.9779 76.461
14.1577 72.6531
14.3376 71.4421
14.5175 69.113
14.6974 71.0987
14.8774 115.022
15.0574 144.167
15.2374 70.5995
15.4175 66.8048
15.5976 66.4917
15.7778 98.3947
15.958 153.396
16.1382 62.2589
16.3185 58.6707
16.4988 55.6767
16.6792 54.672
16.8596 55.634
17.04 56.5005
17.2205 67.8758
17.401 71.1116
17.5815 59.5892
17.7622 61.757
17.9428 75.149
18.1237 141.304
18.3044 91.5893
18.4852 76.8801
18.666 60.6177
18.8469 58.5041
19.0278 57.1798
19.2088 60.0526
19.3898 76.3505
19.5709 54.4027
19.752 53.5645
19.9332 56.7287
20.1144 70.3906
20.2957 64.3883
20.477 53.5487
20.6586 49.8968
20.84 49.1037
21.0215 49.0269
21.203 51.1069
21.3846 49.1911
21.5662 49.237
21.7479 53.2601
21.9297 65.3018
22.1115 56.2787
22.2933 50.1482
22.4753 49.0377
22.6572 49.3232
22.8393 52.5155
23.0214 57.5272
23.2037 49.0517
23.3859 50.3579
23.5682 57.4789
23.7505 48.3333
23.9329 45.6261
24.1154 44.3504
24.2979 43.6954
24.4805 43.3342
24.6631 43.1314
24.8458 42.5067
25.0286 43.158
25.2114 44.9767
25.3943 44.7984
25.5773 41.2361
25.7605 40.8351
25.9436 41.0732
26.1268 42.0123
26.31 40.4044
26.4933 41.1162
26.6767 42.4748
26.8601 40.6995
27.0437 39.2233
27.2272 38.8581
27.4109 38.7087
27.5946 38.5956
27.7784 38.0941
27.9623 38.7021
28.1462 39.0352
28.3304 37.3745
28.5145 36.1165
28.6987 35.763
28.8829 35.6064
29.0673 34.8991
29.2517 34.592
29.4361 34.5
29.6207 33.4314
29.8053 33.1865
29.99 32.8514
30.1748 32.7209
30.3597 32.4026
30.5447 32.3917
30.7297 32.4208
30.915 31.7984
31.1002 31.3396
31.2855 31.0394
31.4708 31.0945
31.6563 30.5925
31.8418 30.5289
32.0275 30.1263
32.2132 29.5236
32.399 28.9967
32.5848 28.6011
32.7708 28.3417
32.9569 28.1039
33.143 27.9887
33.3293 27.489
33.5158 27.2941
33.7022 26.7688
33.8887 26.5117
34.0753 26.1298
34.262 25.7986
34.4488 25.4492
34.6357 25.1468
34.8227 24.7952
35.0098 24.6484
35.1969 24.3066
35.3842 24.1213
35.5716 23.9261
35.759 23.6529
35.9468 23.2974
36.1345 23.0492
36.3222 22.8026
36.5101 22.5068
36.6981 22.1782
36.8861 21.943
37.0743 21.6193
37.2626 21.468
37.451 21.1224
37.6395 20.9629
37.8281 20.5839
38.0168 20.3319
38.2056 20.0696
38.3945 19.82
38.5837 19.5698
38.7728 19.3237
38.9621 19.0532
39.1514 18.8523
39.3409 18.5742
39.5304 18.3217
39.7201 18.1757
39.9099 17.9506
40.0999 17.7092
40.2899 17.5042
40.48 17.2558
40.6703 17.0307
40.8607 16.8399
41.0512 16.6613
41.242 16.3098
41.4327 16.1714
41.6236 15.9604
41.8146 15.7557
42.0057 15.501
42.1969 15.2794
42.3882 15.1654
42.5797 14.8921
42.7713 14.7404
42.963 14.4713
43.1549 14.3564
43.3468 14.1324
43.5389 13.9097
43.7312 13.7071
43.9237 13.5499
44.1162 13.3135
44.3088 13.1799
44.5016 12.9514
44.6945 12.8211
44.8875 12.6228
45.0806 12.4299
45.2739 12.2942
45.4673 12.1076
45.6609 11.9222
45.8546 11.7393
46.0484 11.5994
46.2424 11.4147
46.4365 11.3076
46.631 11.0882
46.8254 10.9129
47.0199 10.7537
47.2146 10.6328
47.4095 10.4623
47.6044 10.2537
47.7996 10.1403
47.9948 9.98496
48.1902 9.85189
48.3858 9.69998
48.5815 9.59409
48.7774 9.46344
48.9734 9.29611
49.1696 9.15878
49.3661 9.02179
49.5626 8.83821
49.7592 8.75046
49.956 8.621
50.153 8.47165
50.3501 8.3158
50.5474 8.25277
50.7448 8.07662
50.9424 7.95588
51.1402 7.8315
51.3381 7.69812
51.5362 7.59343
51.7344 7.4478
51.9328 7.31842
52.1316 7.21074
52.3304 7.12257
52.5293 6.96673
52.7284 6.84738
52.9276 6.78753
53.1271 6.63618
53.3267 6.5549
53.5265 6.40815
53.7264 6.30706
53.9266 6.22616
54.1269 6.10322
54.3274 5.92842
54.528 5.82256
54.7289 5.65767
54.9301 5.45189
55.1314 5.40913
55.3328 5.18631
55.5344 4.98222
55.7361 4.82148

File: Ni3Fe_FD0560.xy
TT I
1.27165 7.57838
1.45013 6.11298
1.62863 4.93053
1.80712 5.04838
1.98562 4.68921
2.16411 5.10486
2.34263 5.00448
2.52115 6.71178
2.69965 8.24291
2.87818 8.29733
3.05672 10.7553
3.23527 14.8739
3.4138 18.8421
3.59237 23.1374
3.77094 25.7252
3.9495 29.9874
4.12809 34.9231
4.30669 153.759
4.4853 59.4923
4.6639 56.3234
4.84253 67.9919
5.02118 88.5812
5.19981 431.206
5.37848 197.784
5.55716 103.404
5.73586 93.7937
5.91455 97.0856
6.09328 4407.58
6.27201 82.9985
6.45075 67.5077
6.62952 62.9122
6.8083 58.134
6.98711 55.7236
7.16591 55.7004
7.34475 79.3714
7.5236 54.7719
7.70247 56.4085
7.88135 58.1609
8.06026 62.8812
8.23919 70.1147
8.41812 86.2858
8.59709 1230.48
8.77609 100.095
8.9551 90.7238
9.13412 82.6533
9.31318 83.0208
9.49226 85.387
9.67134 97.0015
9.85047 101.193
10.0296 378.086
10.2088 378.033
10.388 106.091
10.5672 520.575
10.7465 87.088
10.9257 78.6471
11.105 72.3497
11.2844 69.7101
11.4637 65.5889
11.6431 63.9437
11.8225 62.6799
12.002 64.5421
12.1814 155.814
12.3609 68.8742
12.5405 64.8559
12.72 69.1901
12.8996 71.5292
13.0792 80.4875
13.2589 249.078
13.4386 122.093
13.6183 256.289
13.7981 96.7936
13.9779 76.3256
14.1577 72.8154
14.3376 71.6357
14.5175 69.4396
14.6974 71.2567
14.8774 115.328
15.0574 142.858
15.2374 70.8733
15.4175 67.0282
15.5976 66.4963
15.7778 98.8383
15.958 151.893
16.1382 62.5365
16.3185 58.8682
16.4988 55.9305
16.6792 54.9761
16.8596 55.4693
17.04 56.5245
17.2205 67.8175
17.401 71.2065
17.5815 59.7385
17.7622 61.8152
17.9428 75.6482
18.1237 141.489
18.3044 91.87
18.4852 76.873
18.666 60.8924
18.8469 58.3927
19.0278 57.3447
19.2088 60.324
19.3898 76.3296
19.5709 54.516
19.752 53.8566
19.9332 56.979
20.1144 70.437
20.2957 64.3715
20.477 53.5508
20.6586 50.0902
20.84 49.2041
21.0215 49.1816
21.203 51.1009
21.3846 49.3899
21.5662 49.22
21.7479 53.263
21.9297 65.0586
22.1115 56.3687
22.2933 49.9819
22.4753 49.1216
22.6572 49.5012
22.8393 52.5762
23.0214 57.3604
23.2037 49.101
23.3859 50.3186
23.5682 57.1706
23.7505 48.5013
23.9329 45.4656
24.1154 44.4397
24.2979 43.7008
24.4805 43.214
24.6631 43.0441
24.8458 42.5402
25.0286 43.2216
25.2114 45.0411
25.3943 44.9039
25.5773 41.1405
25.7605 40.8561
25.9436 41.2068
26.1268 41.9421
26.31 40.3871
26.4933 41.0692
26.6767 42.3971
26.8601 40.5681
27.0437 39.1652
27.2272 38.7885
27.4109 38.6529
27.5946 38.655
27.7784 38.0862
27.9623 38.7125
28.1462 38.9951
28.3304 37.3588
28.5145 36.2076
28.6987 35.8679
28.8829 35.7305
29.0673 34.8773
29.2517 34.5573
29.4361 34.3597
29.6207 33.2987
29.8053 33.0757
29.99 32.9011
30.1748 32.7748
30.3597 32.456
30.5447 32.4449
30.7297 32.5046
30.915 31.7766
31.1002 31.3685
31.2855 31.1411
31.4708 31.1644
31.6563 30.4927
31.8418 30.3469
32.0275 30.0995
32.2132 29.5629
32.399 29.0881
32.5848 28.6916
32.7708 28.3316
32.9569 28.2066
33.143 27.959
33.3293 27.5549
33.5158 27.2769
33.7022 26.8234
33.8887 26.4936
34.0753 26.1423
34.262 25.7996
34.4488 25.4538
34.6357 25.1078
34.8227 24.8732
35.0098 24.6152
35.1969 24.3514
35.3842 24.0891
35.5716 23.9433
35.759 23.628
35.9468 23.2282
36.1345 23.0505
36.3222 22.8259
36.5101 22.608
36.6981 22.2112
36.8861 21.9373
37.0743 21.6467
37.2626 21.3213
37.451 21.1289
37.6395 20.9487
37.8281 20.5497
38.0168 20.3727
38.2056 20.1398
38.3945 19.787
38.5837 19.5618
38.7728 19.3045
38.9621 19.069
39.1514 18.8293
39.3409 18.5648
39.5304 18.3539
39.7201 18.1813
39.9099 17.9273
40.0999 17.6735
40.2899 17.4641
40.48 17.233
40.6703 16.9649
40.8607 16.8589
41.0512 16.6188
41.242 16.3504
41.4327 16.174
41.6236 15.9643
41.8146 15.7372
42.0057 15.526
42.1969 15.306
42.3882 15.1493
42.5797 14.9169
42.7713 14.7324
42.963 14.5138
43.1549 14.3421
43.3468 14.1084
43.5389 13.9169
43.7312 13.7009
43.9237 13.4816
44.1162 13.371
44.3088 13.1368
44.5016 12.9712
44.6945 12.7947
44.8875 12.6379
45.0806 12.452
45.2739 12.2612
45.4673 12.0969
45.6609 11.9104
45.8546 11.7549
46.0484 11.6127
46.2424 11.4274
46.4365 11.3055
46.631 11.1094
46.8254 10.9518
47.0199 10.8007
47.2146 10.6087
47.4095 10.4492
47.6044 10.3142
47.7996 10.1388
47.9948 10.038
48.1902 9.8524
48.3858 9.68881
48.5815 9.55698
48.7774 9.46875
48.9734 9.29964
49.1696 9.18879
49.3661 9.00995
49.5626 8.87413
49.7592 8.74818
49.956 8.64387
50.153 8.49208
50.3501 8.34379
50.5474 8.23062
50.7448 8.0969
50.9424 8.02136
51.1402 7.88482
51.3381 7.68729
51.5362 7.6265
51.7344 7.47022
51.9328 7.34673
52.1316 7.22333
52.3304 7.08274
52.5293 6.99883
52.7284 6.85726
52.9276 6.7555
53.1271 6.63826
53.3267 6.52115
53.5265 6.4292
53.7264 6.34678
53.9266 6.21418
54.1269 6.07484
54.3274 5.94358
54.528 5.85609
54.7289 5.70369
54.9301 5.51619
55.1314 5.38644
55.3328 5.14649
55.5344 5.01898
55.7361 4.79494

File: Ni3Fe_FD0561.xy
TT I
1.27165 7.52454
1.45013 6.71357
1.62863 5.93923
1.80712 4.7313
1.98562 4.90614
2.16411 4.54576
2.34263 5.46697
2.52115 6.36644
2.69965 7.93768
2.87818 8.06473
3.05672 11.107
3.23527 15.061
3.4138 19.2873
3.59237 23.5286
3.77094 26.0186
3.9495 30.0315
4.12809 34.7555
4.30669 152.61
4.4853 59.0138
4.6639 55.9014
4.84253 68.4048
5.02118 88.6553
5.19981 430.419
5.37848 198.556
5.55716 103.646
5.73586 93.3091
5.91455 96.8152
6.09328 4448.84
6.27201 82.9161
6.45075 67.8967
6.62952 62.5627
6.8083 58.3922
6.98711 56.2449
7.16591 55.4151
7.34475 79.5462
7.5236 54.7171
7.70247 56.3634
7.88135 57.987
8.06026 62.7519
8.23919 69.9754
8.41812 85.8468
8.59709 1227.42
8.77609 100.254
8.9551 90.0449
9.13412 82.7504
9.31318 83.1526
9.49226 85.1535
9.67134 96.6126
9.85047 100.955
10.0296 377.825
10.2088 387.186
10.388 105.991
10.5672 519.024
10.7465 86.8508
10.9257 78.5861
11.105 71.8541
11.2844 69.8464
11.4637 65.2163
11.6431 64.1067
11.8225 62.6544
12.002 64.3219
12.1814 155.447
12.3609 68.8836
12.5405 64.9076
12.72 69.1438
12.8996 71.6797
13.0792 80.3097
13.2589 248.437
13.4386 122.609
13.6183 254.738
13.7981 96.9392
13.9779 76.283
14.1577 72.5469
14.3376 71.2208
14.5175 69.3334
14.6974 71.0688
14.8774 115.248
15.0574 143.894
15.2374 70.7699
15.4175 66.8303
15.5976 66.5242
15.7778 98.5138
15.958 152.558
16.1382 62.5917
16.3185 58.6037
16.4988 55.8347
16.6792 54.6789
16.8596 55.3031
17.04 56.3048
17.2205 67.7722
17.401 71.0519
17.5815 59.6948
17.7622 61.5383
17.9428 75.3571
18.1237 141.807
18.3044 91.8085
18.4852 77.055
18.666 60.7119
18.8469 58.3969
19.0278 57.1958
19.2088 60.1871
19.3898 76.2529
19.5709 54.4779
19.752 53.6353
19.9332 56.9879
20.1144 70.3283
20.2957 64.0575
20.477 53.6915
20.6586 49.9769
20.84 49.2691
21.0215 48.8745
21.203 51.2785
21.3846 49.2757
21.5662 49.4136
21.7479 53.3454
21.9297 65.1072
22.1115 56.47
22.2933 50.1576
22.4753 49.1196
22.6572 49.2839
22.8393 52.473
23.0214 57.5895
23.2037 48.9258
23.3859 50.14
23.5682 57.4148
23.7505 48.4225
23.9329 45.5728
24.1154 44.3823
24.2979 43.7184
24.4805 43.1224
24.6631 43.1034
24.8458 42.6012
25.0286 43.4033
25.2114 45.0351
25.3943 44.8641
25.5773 41.0596
25.7605 40.5923
25.9436 41.1863
26.1268 41.9357
26.31 40.4656
26.4933 41.0449
26.6767 42.4361
26.8601 40.7298
27.0437 39.1061
27.2272 38.7735
27.4109 38.6755
27.5946 38.6723
27.7784 38.2134
27.9623 38.7372
28.1462 39.0742
28.3304 37.5589
28.5145 36.243
28.6987 35.9107
28.8829 35.6924
29.0673 34.9455
29.2517 34.605
29.4361 34.4545
29.6207 33.3023
29.8053 33.1861
29.99 32.8157
30.1748 32.5805
30.3597 32.5488
30.5447 32.4643
30.7297 32.3207
30.915 31.8052
31.1002 31.4541
31.2855 31.0959
31.4708 31.0587
31.6563 30.4982
31.8418 30.3318
32.0275 30.1085
32.2132 29.5713
32.399 29.1072
32.5848 28.6928
32.7708 28.2572
32.9569 28.1197
33.143 27.9027
33.3293 27.5356
33.5158 27.3004
33.7022 26.7341
33.8887 26.5367
34.0753 26.1432
34.262 25.7878
34.4488 25.4357
34.6357 25.1285
34.8227 24.8186
35.0098 24.6559
35.1969 24.3737
35.3842 24.0995
35.5716 23.9021
35.759 23.6293
35.9468 23.2713
36.1345 23.0444
36.3222 22.7962
36.5101 22.5644
36.6981 22.2108
36.8861 21.894
37.0743 21.5506
37.2626 21.4213
37.451 21.1388
37.6395 20.9468
37.8281 20.5609
38.0168 20.3392
38.2056 20.0959
38.3945 19.7617
38.5837 19.5433
38.7728 19.3813
38.9621 19.0977
39.1514 18.8501
39.3409 18.5696
39.5304 18.4408
39.7201 18.1687
39.9099 17.9766
40.0999 17.6588
40.2899 17.4123
40.48 17.2166
40.6703 17.0422
40.8607 16.8487
41.0512 16.6141
41.242 16.3613
41.4327 16.1095
41.6236 15.9411
41.8146 15.742
42.0057 15.5078
42.1969 15.3078
42.3882 15.1156
42.5797 14.9215
42.7713 14.7206
42.963 14.5009
43.1549 14.2869
43.3468 14.0952
43.5389 13.9182
43.7312 13.6998
43.9237 13.5143
44.1162 13.2827
44.3088 13.1503
44.5016 12.9382
44.6945 12.8026
44.8875 12.6202
45.0806 12.417
45.2739 12.2618
45.4673 12.1249
45.6609 11.9384
45.8546 11.7648
46.0484 11.6152
46.2424 11.4482
46.4365 11.256
46.631 11.0979
46.8254 10.8949
47.0199 10.767
47.2146 10.6201
47.4095 10.4698
47.6044 10.3031
47.7996 10.1569
47.9948 9.99902
48.1902 9.82579
48.3858 9.71304
48.5815 9.57697
48.7774 9.47688
48.9734 9.30544
49.1696 9.15049
49.3661 9.00909
49.5626 8.88084
49.7592 8.77782
49.956 8.65405
50.153 8.44203
50.3501 8.34779
50.5474 8.17475
50.7448 8.11563
50.9424 7.96479
51.1402 7.85042
51.3381 7.72331
51.5362 7.58608
51.7344 7.48719
51.9328 7.30658
52.1316 7.22967
52.3304 7.1105
52.5293 6.98872
52.7284 6.90069
52.9276 6.77701
53.1271 6.71968
53.3267 6.51846
53.5265 6.40409
53.7264 6.28595
53.9266 6.16927
54.1269 6.07198
54.3274 5.97683
54.528 5.83682
54.7289 5.66801
54.9301 5.53565
55.1314 5.3688
55.3328 5.14537
55.5344 5.00482
55.7361 4.87323

File: Ni3Fe_FD0562.xy
TT I
1.27165 7.65946
1.45013 6.45001
1.62863 5.12668
1.80712 4.89043
1.98562 5.2058
2.16411 4.52482
2.34263 5.17351
2.52115 6.39073
2.69965 7.8171
2.87818 8.32241
3.05672 11.1818
3.23527 15.2464
3.4138 18.802
3.59237 23.7902
3.77094 25.8059
3.9495 29.5154
4.12809 34.8843
4.30669 150.958
4.4853 59.1038
4.6639 55.6238
4.84253 68.158
5.02118 88.6362
5.19981 433.141
5.37848 197.634
5.55716 102.971
5.73586 93.2687
5.91455 96.7324
6.09328 4441.62
6.27201 83.1863
6.45075 67.6759
6.62952 62.676
6.8083 58.6536
6.98711 55.857
7.16591 55.5847
7.34475 78.9085
7.5236 54.8034
7.70247 56.1153
7.88135 58.2386
8.06026 62.8367
8.23919 70.1009
8.41812 85.7423
8.59709 1230.23
8.77609 100.237
8.9551 90.2011
9.13412 82.6466
9.31318 83.53
9.49226 85.372
9.67134 96.4876
9.85047 100.905
10.0296 378.348
10.2088 398.048
10.388 105.804
10.5672 518.585
10.7465 87.1455
10.9257 78.6051
11.105 71.9298
11.2844 69.895
11.4637 65.3881
11.6431 64.0655
11.8225 63.0289
12.002 64.4907
12.1814 155.319
12.3609 68.7942
12.5405 64.9303
12.72 69.1482
12.8996 71.5474
13.0792 80.5379
13.2589 248.735
13.4386 123.294
13.6183 254.351
13.7981 96.9951
13.9779 76.2058
14.1577 72.3133
14.3376 71.2959
14.5175 69.2705
14.6974 71.0258
14.8774 115.282
15.0574 144.356
15.2374 70.7249
15.4175 66.8399
15.5976 66.494
15.7778 98.6541
15.958 153.192
16.1382 62.4699
16.3185 58.5236
16.4988 55.8242
16.6792 54.8653
16.8596 55.6116
17.04 56.3935
17.2205 67.8805
17.401 71.2759
17.5815 59.5661
17.7622 61.8543
17.9428 75.508
18.1237 141.419
18.3044 91.9833
18.4852 77.2106
18.666 60.7042
18.8469 58.5689
19.0278 57.297
19.2088 60.2058
19.3898 76.4318
19.5709 54.4664
19.752 53.5753
19.9332 57.1167
20.1144 70.3554
20.2957 64.3252
20.477 53.5446
20.6586 49.9911
20.84 49.0802
21.0215 48.7875
21.203 51.1858
21.3846 49.2183
21.5662 49.0955
21.7479 53.3945
21.9297 65.008
22.1115 56.4567
22.2933 49.9369
22.4753 49.1207
22.6572 49.2461
22.8393 52.473
23.0214 57.6042
23.2037 49.0281
23.3859 50.3391
23.5682 57.4891
23.7505 48.3666
23.9329 45.4584
24.1154 44.3427
24.2979 43.7014
24.4805 43.1254
24.6631 42.9957
24.8458 42.4272
25.0286 43.145
25.2114 44.9247
25.3943 44.8435
25.5773 41.2866
25.7605 40.7133
25.9436 41.1879
26.1268 41.9171
26.31 40.5433
26.4933 41.0928
26.6767 42.4319
26.8601 40.5719
27.0437 39.0172
27.2272 38.7135
27.4109 38.5995
27.5946 38.5861
27.7784 38.192
27.9623 38.6974
28.1462 39.0843
28.3304 37.3421
28.5145 36.2277
28.6987 35.8635
28.8829 35.6391
29.0673 34.7988
29.2517 34.5609
29.4361 34.419
29.6207 33.3728
29.8053 33.1522
29.99 32.784
30.1748 32.6579
30.3597 32.4354
30.5447 32.4637
30.7297 32.346
30.915 31.8331
31.1002 31.3999
31.2855 31.0916
31.4708 31.0928
31.6563 30.556
31.8418 30.414
32.0275 30.076
32.2132 29.5637
32.399 29.0892
32.5848 28.7171
32.7708 28.2525
32.9569 28.1917
33.143 27.9461
33.3293 27.5877
33.5158 27.1766
33.7022 26.6309
33.8887 26.5633
34.0753 26.1607
34.262 25.8239
34.4488 25.4238
34.6357 25.0857
34.8227 24.7852
35.0098 24.6324
35.1969 24.3854
35.3842 24.1444
35.5716 23.9134
35.759 23.5468
35.9468 23.3062
36.1345 23.0245
36.3222 22.7831
36.5101 22.5224
36.6981 22.2031
36.8861 21.9163
37.0743 21.6169
37.2626 21.3699
37.451 21.0207
37.6395 20.9298
37.8281 20.5804
38.0168 20.2976
38.2056 20.0654
38.3945 19.7638
38.5837 19.5614
38.7728 19.3006
38.9621 19.036
39.1514 18.818
39.3409 18.553
39.5304 18.344
39.7201 18.1808
39.9099 17.9488
40.0999 17.7353
40.2899 17.4599
40.48 17.2173
40.6703 16.9774
40.8607 16.7988
41.0512 16.5781
41.242 16.3386
41.4327 16.1666
41.6236 15.9276
41.8146 15.7044
42.0057 15.5257
42.1969 15.2721
42.3882 15.1239
42.5797 14.9293
42.7713 14.7243
42.963 14.4604
43.1549 14.3417
43.3468 14.0814
43.5389 13.927
43.7312 13.7372
43.9237 13.5507
44.1162 13.315
44.3088 13.1242
44.5016 12.9547
44.6945 12.8091
44.8875 12.6287
45.0806 12.4182
45.2739 12.2461
45.4673 12.1066
45.6609 11.8606
45.8546 11.7828
46.0484 11.5988
46.2424 11.447
46.4365 11.328
46.631 11.0808
46.8254 10.8773
47.0199 10.7926
47.2146 10.5885
47.4095 10.4524
47.6044 10.3071
47.7996 10.1578
47.9948 9.99414
48.1902 9.85052
48.3858 9.71822
48.5815 9.60606
48.7774 9.42085
48.9734 9.3315
49.1696 9.14911
49.3661 8.98543
49.5626 8.85956
49.7592 8.75931
49.956 8.59703
50.153 8.48283
50.3501 8.34502
50.5474 8.21915
50.7448 8.12067
50.9424 7.98511
51.1402 7.85538
51.3381 7.72272
51.5362 7.59329
51.7344 7.45523
51.9328 7.32891
52.1316 7.22501
52.3304 7.13866
52.5293 6.96788
52.7284 6.92308
52.9276 6.74771
53.1271 6.6869
53.3267 6.53523
53.5265 6.42467
53.7264 6.26895
53.9266 6.20222
54.1269 6.09831
54.3274 5.9233
54.528 5.83192
54.7289 5.6462
54.9301 5.51275
55.1314 5.39897
55.3328 5.11068
55.5344 4.95569
55.7361 4.87627

File: Ni3Fe_FD0563.xy
TT I
1.27165 7.03501
1.45013 6.45471
1.62863 5.4841
1.80712 4.66841
1.98562 4.54887
2.16411 4.8647
2.34263 5.427
2.52115 6.72042
2.69965 8.59282
2.87818 8.58447
3.05672 11.1086
3.23527 15.1468
3.4138 18.8262
3.59237 23.4978
3.77094 25.8656
3.9495 29.6493
4.12809 34.8611
4.30669 148.553
4.4853 58.6635
4.6639 55.8025
4.84253 68.2912
5.02118 88.5747
5.19981 435.804
5.37848 196.985
5.55716 103.005
5.73586 93.4657
5.91455 96.6597
6.09328 4459.48
6.27201 82.5316
6.45075 67.9832
6.62952 62.822
6.8083 58.7753
6.98711 56.1832
7.16591 55.3094
7.34475 77.9428
7.5236 55.1498
7.70247 56.3866
7.88135 58.0909
8.06026 62.7257
8.23919 70.3238
8.41812 85.7433
8.59709 1229.04
8.77609 100.386
8.9551 90.2119
9.13412 82.6701
9.31318 83.5605
9.49226 85.0762
9.67134 96.8589
9.85047 101.01
10.0296 379.214
10.2088 402.369
10.388 106.095
10.5672 520.191
10.7465 87.0188
10.9257 78.5236
11.105 72.1362
11.2844 70.0419
11.4637 65.2706
11.6431 64.0822
11.8225 62.8259
12.002 64.5574
12.1814 154.937
12.3609 68.745
12.5405 64.8256
12.72 69.3672
12.8996 71.7935
13.0792 80.3017
13.2589 249.371
13.4386 123.454
13.6183 254.399
13.7981 96.4649
13.9779 76.4436
14.1577 72.64
14.3376 71.4834
14.5175 69.3773
14.6974 71.1687
14.8774 115.681
15.0574 144.157
15.2374 70.297
15.4175 66.8565
15.5976 66.4401
15.7778 98.6118
15.958 152.804
16.1382 62.1761
16.3185 58.6771
16.4988 55.7086
16.6792 54.9513
16.8596 55.6366
17.04 56.448
17.2205 67.7779
17.401 71.4857
17.5815 59.9141
17.7622 61.7827
17.9428 75.4588
18.1237 142.034
18.3044 91.6712
18.4852 76.7157
18.666 60.5765
18.8469 58.4789
19.0278 57.2801
19.2088 60.0494
19.3898 76.2595
19.5709 54.2622
19.752 53.8076
19.9332 56.9686
20.1144 70.422
20.2957 64.1329
20.477 53.6805
20.6586 50.132
20.84 49.1409
21.0215 49.1637
21.203 51.2919
21.3846 49.1044
21.5662 49.3445
21.7479 53.3652
21.9297 65.1467
22.1115 56.4166
22.2933 50.0347
22.4753 49.0053
22.6572 49.321
22.8393 52.7305
23.0214 57.6461
23.2037 49.183
23.3859 50.2094
23.5682 57.386
23.7505 48.3868
23.9329 45.4861
24.1154 44.2728
24.2979 43.5447
24.4805 43.2465
24.6631 43.0047
24.8458 42.4809
25.0286 43.1641
25.2114 44.9842
25.3943 44.9353
25.5773 41.2381
25.7605 40.7737
25.9436 41.198
26.1268 42.0157
26.31 40.4012
26.4933 41.1841
26.6767 42.4651
26.8601 40.6321
27.0437 39.1175
27.2272 38.8325
27.4109 38.8259
27.5946 38.6994
27.7784 38.1768
27.9623 38.7933
28.1462 38.9849
28.3304 37.3908
28.5145 36.1899
28.6987 35.9145
28.8829 35.5978
29.0673 34.8685
29.2517 34.6388
29.4361 34.4341
29.6207 33.3101
29.8053 33.0522
29.99 32.7363
30.1748 32.6733
30.3597 32.4511
30.5447 32.4234
30.7297 32.3991
30.915 31.8906
31.1002 31.2935
31.2855 31.0814
31.4708 30.9765
31.6563 30.6808
31.8418 30.4116
32.0275 30.0516
32.2132 29.5482
32.399 29.1414
32.5848 28.7159
32.7708 28.4176
32.9569 28.3015
33.143 27.9913
33.3293 27.5336
33.5158 27.1838
33.7022 26.8353
33.8887 26.4648
34.0753 26.1373
34.262 25.7429
34.4488 25.4441
34.6357 25.1656
34.8227 24.8778
35.0098 24.7109
35.1969 24.3982
35.3842 24.1589
35.5716 24.0014
35.759 23.6117
35.9468 23.2847
36.1345 23.0547
36.3222 22.7901
36.5101 22.577
36.6981 22.2703
36.8861 21.9449
37.0743 21.6626
37.2626 21.4256
37.451 21.1311
37.6395 20.9531
37.8281 20.6624
38.0168 20.3393
38.2056 20.0546
38.3945 19.8202
38.5837 19.6062
38.7728 19.3328
38.9621 19.0715
39.1514 18.7885
39.3409 18.5677
39.5304 18.3786
39.7201 18.1999
39.9099 17.8976
40.0999 17.6659
40.2899 17.4827
40.48 17.2328
40.6703 17.0501
40.8607 16.8857
41.0512 16.6204
41.242 16.3266
41.4327 16.1521
41.6236 15.9356
41.8146 15.7587
42.0057 15.4747
42.1969 15.2846
42.3882 15.1244
42.5797 14.9252
42.7713 14.7485
42.963 14.5051
43.1549 14.3202
43.3468 14.0822
43.5389 13.8729
43.7312 13.7029
43.9237 13.523
44.1162 13.3787
44.3088 13.1429
44.5016 12.9347
44.6945 12.788
44.8875 12.6103
45.0806 12.4756
45.2739 12.2989
45.4673 12.114
45.6609 11.929
45.8546 11.7833
46.0484 11.5807
46.2424 11.4305
46.4365 11.2902
46.631 11.1121
46.8254 10.9071
47.0199 10.7535
47.2146 10.6062
47.4095 10.4438
47.6044 10.3016
47.7996 10.1355
47.9948 9.97854
48.1902 9.85735
48.3858 9.72571
48.5815 9.56731
48.7774 9.41624
48.9734 9.29115
49.1696 9.15359
49.3661 8.96938
49.5626 8.86066
49.7592 8.74818
49.956 8.60188
50.153 8.51686
50.3501 8.36112
50.5474 8.22707
50.7448 8.09171
50.9424 7.98932
51.1402 7.83881
51.3381 7.66927
51.5362 7.59748
51.7344 7.4714
51.9328 7.34445
52.1316 7.20656
52.3304 7.1061
52.5293 6.97296
52.7284 6.87186
52.9276 6.75343
53.1271 6.67044
53.3267 6.52485
53.5265 6.41954
53.7264 6.31461
53.9266 6.16479
54.1269 6.07596
54.3274 5.94566
54.528 5.83172
54.7289 5.63571
54.9301 5.50625
55.1314 5.3924
55.3328 5.17585
55.5344 4.9866
55.7361 4.81879