Folder: NiFe_MOF_catalyst_paper/XRD (part 38)

File: Ni3Fe_FD0194.xy
TT I
1.27165 8.27815
1.45013 6.71059
1.62863 5.49581
1.80712 5.49352
1.98562 5.12956
2.16411 4.98083
2.34263 4.5819
2.52115 4.93939
2.69965 6.27002
2.87818 7.81652
3.05672 11.3286
3.23527 15.4558
3.4138 19.2651
3.59237 22.8582
3.77094 26.4804
3.9495 29.7347
4.12809 34.5349
4.30669 40.0827
4.4853 48.0432
4.6639 57.6198
4.84253 71.1439
5.02118 96.6039
5.19981 636.466
5.37848 336.587
5.55716 113.367
5.73586 101.386
5.91455 110.602
6.09328 3292.99
6.27201 90.8889
6.45075 70.0808
6.62952 63.3086
6.8083 59.3781
6.98711 56.7978
7.16591 55.885
7.34475 55.3706
7.5236 58.9642
7.70247 57.3573
7.88135 59.594
8.06026 64.5667
8.23919 72.5531
8.41812 89.4484
8.59709 1014.06
8.77609 114.452
8.9551 90.3727
9.13412 86.4161
9.31318 89.401
9.49226 88.7023
9.67134 94.8027
9.85047 105.463
10.0296 562.784
10.2088 724.398
10.388 110.683
10.5672 395.585
10.7465 93.3017
10.9257 80.4186
11.105 74.3845
11.2844 70.2416
11.4637 67.4711
11.6431 65.8469
11.8225 64.9133
12.002 67.6838
12.1814 132.24
12.3609 72.6695
12.5405 66.7739
12.72 69.3372
12.8996 74.1955
13.0792 84.0415
13.2589 222.244
13.4386 169.236
13.6183 214.378
13.7981 126.853
13.9779 80.1292
14.1577 76.721
14.3376 72.8987
14.5175 72.2668
14.6974 73.6819
14.8774 123.652
15.0574 187.97
15.2374 72.4037
15.4175 69.6818
15.5976 68.9799
15.7778 108.576
15.958 178.432
16.1382 64.1359
16.3185 60.0501
16.4988 57.8436
16.6792 56.8066
16.8596 57.177
17.04 58.237
17.2205 68.4353
17.401 79.9791
17.5815 61.9978
17.7622 64.3677
17.9428 85.7389
18.1237 126.982
18.3044 89.6926
18.4852 89.2512
18.666 63.2019
18.8469 60.7121
19.0278 59.3163
19.2088 63.8539
19.3898 73.1476
19.5709 57.4313
19.752 55.6374
19.9332 59.9137
20.1144 70.6824
20.2957 63.3715
20.477 58.2424
20.6586 51.8556
20.84 51.1347
21.0215 50.9242
21.203 52.0526
21.3846 51.9534
21.5662 50.9969
21.7479 55.6845
21.9297 65.1183
22.1115 57.2883
22.2933 52.8317
22.4753 50.8182
22.6572 51.113
22.8393 54.0022
23.0214 59.0056
23.2037 51.2161
23.3859 52.9948
23.5682 56.0555
23.7505 52.4426
23.9329 47.4117
24.1154 46.1589
24.2979 45.3919
24.4805 44.7561
24.6631 44.6768
24.8458 44.2931
25.0286 44.8923
25.2114 46.1628
25.3943 46.173
25.5773 42.9125
25.7605 42.2202
25.9436 42.3727
26.1268 43.1751
26.31 42.2186
26.4933 42.3393
26.6767 43.4807
26.8601 42.2404
27.0437 40.6239
27.2272 40.2154
27.4109 39.8107
27.5946 40.0003
27.7784 39.7073
27.9623 39.6796
28.1462 40.4673
28.3304 38.8726
28.5145 37.554
28.6987 37.0492
28.8829 36.8209
29.0673 36.2984
29.2517 35.753
29.4361 35.5201
29.6207 34.7099
29.8053 34.3093
29.99 33.9588
30.1748 33.6821
30.3597 33.7248
30.5447 33.4579
30.7297 33.3076
30.915 32.9515
31.1002 32.3974
31.2855 32.1835
31.4708 31.9926
31.6563 31.674
31.8418 31.3681
32.0275 31.0781
32.2132 30.5432
32.399 30.1767
32.5848 29.7321
32.7708 29.2454
32.9569 29.1245
33.143 28.9321
33.3293 28.5127
33.5158 28.1446
33.7022 27.6942
33.8887 27.3875
34.0753 27.0821
34.262 26.6259
34.4488 26.3333
34.6357 25.9411
34.8227 25.6827
35.0098 25.5206
35.1969 25.1586
35.3842 24.8806
35.5716 24.7264
35.759 24.4104
35.9468 23.9834
36.1345 23.7778
36.3222 23.5909
36.5101 23.3755
36.6981 23.0294
36.8861 22.6613
37.0743 22.3284
37.2626 22.0691
37.451 21.798
37.6395 21.6639
37.8281 21.2632
38.0168 21.0318
38.2056 20.7562
38.3945 20.4981
38.5837 20.1719
38.7728 20.0256
38.9621 19.7741
39.1514 19.4402
39.3409 19.2025
39.5304 18.9936
39.7201 18.8138
39.9099 18.5779
40.0999 18.3305
40.2899 18.0686
40.48 17.8029
40.6703 17.6066
40.8607 17.4138
41.0512 17.1745
41.242 16.8958
41.4327 16.6737
41.6236 16.4102
41.8146 16.2732
42.0057 16.0099
42.1969 15.7775
42.3882 15.6481
42.5797 15.3619
42.7713 15.2384
42.963 15.0172
43.1549 14.7874
43.3468 14.5222
43.5389 14.3821
43.7312 14.1771
43.9237 13.9829
44.1162 13.7695
44.3088 13.6071
44.5016 13.3374
44.6945 13.1957
44.8875 13.0745
45.0806 12.8418
45.2739 12.6927
45.4673 12.4961
45.6609 12.3323
45.8546 12.1307
46.0484 11.9747
46.2424 11.8103
46.4365 11.6158
46.631 11.4543
46.8254 11.2783
47.0199 11.1214
47.2146 10.9512
47.4095 10.7919
47.6044 10.6084
47.7996 10.439
47.9948 10.3261
48.1902 10.1582
48.3858 10.0129
48.5815 9.88057
48.7774 9.74534
48.9734 9.59236
49.1696 9.45314
49.3661 9.32533
49.5626 9.16272
49.7592 9.0521
49.956 8.91749
50.153 8.74568
50.3501 8.62323
50.5474 8.53885
50.7448 8.35706
50.9424 8.24813
51.1402 8.12356
51.3381 7.96647
51.5362 7.86782
51.7344 7.73531
51.9328 7.59037
52.1316 7.46162
52.3304 7.3124
52.5293 7.22786
52.7284 7.11263
52.9276 7.02348
53.1271 6.8942
53.3267 6.77084
53.5265 6.58121
53.7264 6.51768
53.9266 6.40197
54.1269 6.29092
54.3274 6.16266
54.528 5.99572
54.7289 5.81923
54.9301 5.656
55.1314 5.45837
55.3328 5.25286
55.5344 5.07684
55.7361 4.935

File: Ni3Fe_FD0195.xy
TT I
1.27165 8.42653
1.45013 6.79114
1.62863 6.11186
1.80712 5.57664
1.98562 5.01896
2.16411 4.51923
2.34263 4.45107
2.52115 4.36297
2.69965 5.75059
2.87818 8.25895
3.05672 11.2153
3.23527 14.9151
3.4138 19.2605
3.59237 22.3499
3.77094 25.7567
3.9495 29.922
4.12809 34.6875
4.30669 40.3827
4.4853 47.7078
4.6639 57.7493
4.84253 70.8873
5.02118 96.6576
5.19981 634.635
5.37848 341.794
5.55716 113.089
5.73586 101.11
5.91455 110.438
6.09328 3307.42
6.27201 90.7619
6.45075 70.343
6.62952 63.6184
6.8083 59.3266
6.98711 56.7718
7.16591 55.8733
7.34475 55.0525
7.5236 58.4806
7.70247 57.3509
7.88135 59.8493
8.06026 64.8741
8.23919 72.7471
8.41812 89.4198
8.59709 1020.71
8.77609 114.183
8.9551 90.3559
9.13412 86.5396
9.31318 89.2971
9.49226 89.15
9.67134 95.0773
9.85047 105.501
10.0296 560.354
10.2088 725.366
10.388 110.6
10.5672 395.356
10.7465 93.5095
10.9257 80.4442
11.105 74.3993
11.2844 70.2728
11.4637 67.6244
11.6431 66.1165
11.8225 65.1372
12.002 67.8852
12.1814 133.183
12.3609 73.0012
12.5405 66.9262
12.72 69.1072
12.8996 74.1583
13.0792 83.9627
13.2589 223.139
13.4386 168.704
13.6183 214.967
13.7981 126.367
13.9779 79.9209
14.1577 76.7863
14.3376 72.6245
14.5175 72.3498
14.6974 73.5053
14.8774 123.633
15.0574 187.91
15.2374 72.3144
15.4175 69.5993
15.5976 69.4456
15.7778 108.555
15.958 179.039
16.1382 64.0778
16.3185 60.2418
16.4988 57.9187
16.6792 56.723
16.8596 57.2822
17.04 58.3443
17.2205 68.7351
17.401 79.897
17.5815 61.9834
17.7622 64.2235
17.9428 85.5349
18.1237 127.88
18.3044 89.7883
18.4852 89.0441
18.666 63.1008
18.8469 60.8564
19.0278 59.2787
19.2088 63.8344
19.3898 73.5825
19.5709 57.2933
19.752 55.5939
19.9332 60.0901
20.1144 70.8195
20.2957 63.7052
20.477 58.1595
20.6586 51.9362
20.84 51.0987
21.0215 51.2441
21.203 52.1783
21.3846 51.7487
21.5662 51.1809
21.7479 55.7911
21.9297 65.0724
22.1115 57.4641
22.2933 52.9927
22.4753 50.746
22.6572 51.1918
22.8393 53.9943
23.0214 59.3426
23.2037 51.2966
23.3859 53.0816
23.5682 56.315
23.7505 52.3714
23.9329 47.3094
24.1154 46.2747
24.2979 45.5147
24.4805 44.8198
24.6631 44.6035
24.8458 44.249
25.0286 44.8077
25.2114 46.279
25.3943 46.2235
25.5773 43.5788
25.7605 42.2635
25.9436 42.6084
26.1268 43.2248
26.31 42.1958
26.4933 42.4177
26.6767 43.6228
26.8601 42.4504
27.0437 40.7092
27.2272 40.372
27.4109 39.9938
27.5946 40.1355
27.7784 39.8135
27.9623 39.9001
28.1462 40.4732
28.3304 38.8906
28.5145 37.5285
28.6987 37.1265
28.8829 36.8529
29.0673 36.3584
29.2517 35.7849
29.4361 35.4633
29.6207 34.6322
29.8053 34.2041
29.99 33.9311
30.1748 33.724
30.3597 33.7778
30.5447 33.5545
30.7297 33.5208
30.915 33.0365
31.1002 32.6092
31.2855 32.2418
31.4708 31.9901
31.6563 31.7087
31.8418 31.5242
32.0275 31.172
32.2132 30.6166
32.399 30.2191
32.5848 29.762
32.7708 29.4149
32.9569 29.2055
33.143 28.9273
33.3293 28.5295
33.5158 28.2667
33.7022 27.7526
33.8887 27.4012
34.0753 27.1518
34.262 26.7328
34.4488 26.3811
34.6357 26.0612
34.8227 25.7331
35.0098 25.54
35.1969 25.1935
35.3842 25.0134
35.5716 24.7503
35.759 24.459
35.9468 24.1034
36.1345 23.8189
36.3222 23.5806
36.5101 23.4123
36.6981 23.0278
36.8861 22.7663
37.0743 22.4259
37.2626 22.2404
37.451 21.8457
37.6395 21.7133
37.8281 21.4101
38.0168 21.0475
38.2056 20.8173
38.3945 20.5148
38.5837 20.2716
38.7728 19.9979
38.9621 19.7787
39.1514 19.4471
39.3409 19.2928
39.5304 18.998
39.7201 18.8068
39.9099 18.586
40.0999 18.2903
40.2899 18.0459
40.48 17.8311
40.6703 17.6519
40.8607 17.3825
41.0512 17.1742
41.242 16.856
41.4327 16.7684
41.6236 16.509
41.8146 16.2736
42.0057 16.0662
42.1969 15.8893
42.3882 15.6276
42.5797 15.3961
42.7713 15.1934
42.963 15.0402
43.1549 14.8092
43.3468 14.5981
43.5389 14.4478
43.7312 14.2344
43.9237 14.0201
44.1162 13.8348
44.3088 13.5884
44.5016 13.3737
44.6945 13.2474
44.8875 13.0012
45.0806 12.8797
45.2739 12.6896
45.4673 12.5006
45.6609 12.3436
45.8546 12.1664
46.0484 11.9859
46.2424 11.8376
46.4365 11.6528
46.631 11.4218
46.8254 11.2849
47.0199 11.1484
47.2146 10.9841
47.4095 10.8175
47.6044 10.6373
47.7996 10.5036
47.9948 10.3323
48.1902 10.1741
48.3858 10.0649
48.5815 9.92562
48.7774 9.78781
48.9734 9.6199
49.1696 9.48068
49.3661 9.28487
49.5626 9.20645
49.7592 9.01886
49.956 8.93652
50.153 8.79176
50.3501 8.63266
50.5474 8.49491
50.7448 8.39699
50.9424 8.24633
51.1402 8.13229
51.3381 7.98845
51.5362 7.86853
51.7344 7.72399
51.9328 7.5668
52.1316 7.47688
52.3304 7.38298
52.5293 7.2273
52.7284 7.12969
52.9276 7.00131
53.1271 6.87819
53.3267 6.78367
53.5265 6.64093
53.7264 6.52296
53.9266 6.41433
54.1269 6.29244
54.3274 6.14893
54.528 5.98853
54.7289 5.84205
54.9301 5.61936
55.1314 5.4659
55.3328 5.25124
55.5344 5.10119
55.7361 4.95236

File: Ni3Fe_FD0196.xy
TT I
1.27165 7.87027
1.45013 6.8183
1.62863 5.38149
1.80712 5.30939
1.98562 5.21287
2.16411 5.0229
2.34263 4.36996
2.52115 5.13385
2.69965 5.84891
2.87818 7.63269
3.05672 11.3878
3.23527 15.1802
3.4138 19.3995
3.59237 22.5482
3.77094 25.9185
3.9495 30.2816
4.12809 34.8836
4.30669 40.7533
4.4853 48.6368
4.6639 58.3024
4.84253 71.4771
5.02118 96.8939
5.19981 777.744
5.37848 324.383
5.55716 112.674
5.73586 101.823
5.91455 110.995
6.09328 3364.53
6.27201 90.6516
6.45075 70.453
6.62952 64.2186
6.8083 60.1012
6.98711 57.4723
7.16591 56.2257
7.34475 55.8663
7.5236 58.5966
7.70247 57.6818
7.88135 60.027
8.06026 64.9833
8.23919 73.1146
8.41812 90.165
8.59709 1012.65
8.77609 113.381
8.9551 90.4852
9.13412 87.1764
9.31318 89.1515
9.49226 89.4332
9.67134 94.8988
9.85047 106.471
10.0296 553.436
10.2088 669.622
10.388 111.779
10.5672 407.404
10.7465 93.6622
10.9257 80.7895
11.105 74.6318
11.2844 70.6811
11.4637 67.5256
11.6431 66.1729
11.8225 65.1389
12.002 68.7219
12.1814 134.184
12.3609 71.9271
12.5405 67.2658
12.72 69.6727
12.8996 74.4762
13.0792 85.1956
13.2589 220.577
13.4386 161.405
13.6183 215.244
13.7981 120.404
13.9779 80.1263
14.1577 76.8721
14.3376 73.2764
14.5175 72.5732
14.6974 74.0284
14.8774 120.131
15.0574 182.635
15.2374 72.5497
15.4175 69.9493
15.5976 69.6957
15.7778 104.936
15.958 178.111
16.1382 64.4514
16.3185 60.1745
16.4988 58.2478
16.6792 56.9946
16.8596 57.5779
17.04 58.6208
17.2205 68.3663
17.401 79.2095
17.5815 61.9568
17.7622 64.6596
17.9428 84.8085
18.1237 132.173
18.3044 89.6121
18.4852 87.7014
18.666 63.416
18.8469 61.123
19.0278 59.3089
19.2088 63.5524
19.3898 74.5707
19.5709 57.4661
19.752 55.9273
19.9332 59.7945
20.1144 71.793
20.2957 63.8153
20.477 57.8041
20.6586 52.1086
20.84 51.388
21.0215 51.3334
21.203 52.3396
21.3846 51.7413
21.5662 51.375
21.7479 55.2487
21.9297 65.4155
22.1115 57.3117
22.2933 52.8999
22.4753 50.9148
22.6572 51.7054
22.8393 53.9046
23.0214 59.534
23.2037 51.4002
23.3859 52.8524
23.5682 56.7783
23.7505 52.0655
23.9329 47.4829
24.1154 46.2232
24.2979 45.4438
24.4805 44.9481
24.6631 44.8353
24.8458 44.4752
25.0286 45.0726
25.2114 46.4422
25.3943 46.5012
25.5773 43.0042
25.7605 42.5209
25.9436 42.6468
26.1268 43.303
26.31 42.2153
26.4933 42.4911
26.6767 43.8389
26.8601 42.5098
27.0437 40.7763
27.2272 40.3936
27.4109 39.9366
27.5946 40.2343
27.7784 39.724
27.9623 39.892
28.1462 40.6491
28.3304 39.0028
28.5145 37.6529
28.6987 37.1684
28.8829 36.8656
29.0673 36.3632
29.2517 35.8195
29.4361 35.6178
29.6207 34.7874
29.8053 34.3873
29.99 34.0913
30.1748 33.8491
30.3597 33.8421
30.5447 33.6301
30.7297 33.5308
30.915 33.0943
31.1002 32.6034
31.2855 32.2482
31.4708 32.075
31.6563 31.8145
31.8418 31.5059
32.0275 31.2643
32.2132 30.7465
32.399 30.2664
32.5848 29.8145
32.7708 29.4802
32.9569 29.3055
33.143 29.0419
33.3293 28.6551
33.5158 28.1721
33.7022 27.8003
33.8887 27.5777
34.0753 27.2759
34.262 26.8161
34.4488 26.4071
34.6357 26.0375
34.8227 25.8459
35.0098 25.6277
35.1969 25.2627
35.3842 25.0048
35.5716 24.8495
35.759 24.4947
35.9468 24.1227
36.1345 23.9294
36.3222 23.6374
36.5101 23.3837
36.6981 23.1775
36.8861 22.8218
37.0743 22.4411
37.2626 22.1541
37.451 21.8989
37.6395 21.7375
37.8281 21.4194
38.0168 21.1196
38.2056 20.8609
38.3945 20.5656
38.5837 20.3303
38.7728 20.0861
38.9621 19.7638
39.1514 19.5177
39.3409 19.2632
39.5304 19.0503
39.7201 18.8473
39.9099 18.619
40.0999 18.3797
40.2899 18.1143
40.48 17.8994
40.6703 17.7187
40.8607 17.4585
41.0512 17.1962
41.242 17.0221
41.4327 16.7624
41.6236 16.5692
41.8146 16.3241
42.0057 16.1353
42.1969 15.8768
42.3882 15.6917
42.5797 15.4643
42.7713 15.2729
42.963 14.9884
43.1549 14.8394
43.3468 14.6122
43.5389 14.4416
43.7312 14.2259
43.9237 14.0552
44.1162 13.7999
44.3088 13.6535
44.5016 13.4732
44.6945 13.2972
44.8875 13.0783
45.0806 12.9066
45.2739 12.6885
45.4673 12.5689
45.6609 12.3702
45.8546 12.2568
46.0484 12.0531
46.2424 11.8523
46.4365 11.6713
46.631 11.5058
46.8254 11.322
47.0199 11.1761
47.2146 11.0183
47.4095 10.8504
47.6044 10.6743
47.7996 10.4979
47.9948 10.3523
48.1902 10.2089
48.3858 10.0404
48.5815 9.93688
48.7774 9.78116
48.9734 9.63876
49.1696 9.47893
49.3661 9.35653
49.5626 9.23578
49.7592 9.0756
49.956 8.95521
50.153 8.82097
50.3501 8.65694
50.5474 8.53824
50.7448 8.42108
50.9424 8.27325
51.1402 8.14174
51.3381 8.00567
51.5362 7.88732
51.7344 7.7403
51.9328 7.61211
52.1316 7.47405
52.3304 7.37509
52.5293 7.27161
52.7284 7.12282
52.9276 7.01556
53.1271 6.86975
53.3267 6.77099
53.5265 6.62509
53.7264 6.54241
53.9266 6.4359
54.1269 6.28199
54.3274 6.18352
54.528 6.01168
54.7289 5.85102
54.9301 5.68133
55.1314 5.53079
55.3328 5.28325
55.5344 5.05108
55.7361 4.99658

File: Ni3Fe_FD0197.xy
TT I
1.27165 8.01927
1.45013 7.43407
1.62863 5.80147
1.80712 5.89237
1.98562 5.43612
2.16411 4.77039
2.34263 4.63759
2.52115 4.32283
2.69965 5.63161
2.87818 8.42243
3.05672 10.8677
3.23527 14.9846
3.4138 19.2113
3.59237 22.5123
3.77094 26.0828
3.9495 30.0516
4.12809 34.9498
4.30669 40.3013
4.4853 48.0603
4.6639 58.1611
4.84253 71.4201
5.02118 97.5232
5.19981 843.677
5.37848 306.174
5.55716 113.188
5.73586 101.917
5.91455 112.066
6.09328 3422.09
6.27201 91.039
6.45075 71.0847
6.62952 64.2066
6.8083 59.724
6.98711 57.2247
7.16591 55.888
7.34475 55.7982
7.5236 58.7087
7.70247 57.6505
7.88135 60.3658
8.06026 64.9055
8.23919 73.2396
8.41812 90.767
8.59709 1014.43
8.77609 113.321
8.9551 90.8791
9.13412 86.962
9.31318 89.1465
9.49226 89.5998
9.67134 95.513
9.85047 106.342
10.0296 542.727
10.2088 641.787
10.388 113.193
10.5672 417.668
10.7465 93.6033
10.9257 80.8144
11.105 75.0955
11.2844 70.8718
11.4637 67.8944
11.6431 66.653
11.8225 65.4164
12.002 68.9916
12.1814 134.854
12.3609 71.6096
12.5405 67.4893
12.72 69.9254
12.8996 74.8603
13.0792 85.5933
13.2589 220.481
13.4386 160.167
13.6183 217.318
13.7981 117.885
13.9779 80.2565
14.1577 76.8715
14.3376 73.3295
14.5175 72.7696
14.6974 74.2573
14.8774 119.155
15.0574 180.555
15.2374 72.7558
15.4175 69.9396
15.5976 69.8287
15.7778 104.213
15.958 178.585
16.1382 64.257
16.3185 60.5943
16.4988 58.2296
16.6792 57.159
16.8596 57.6933
17.04 59.0777
17.2205 68.7587
17.401 79.2014
17.5815 62.1713
17.7622 64.6918
17.9428 84.2554
18.1237 133.791
18.3044 89.6105
18.4852 86.7558
18.666 63.4761
18.8469 61.093
19.0278 59.7167
19.2088 63.145
19.3898 74.9965
19.5709 57.4427
19.752 56.2025
19.9332 59.8489
20.1144 72.2759
20.2957 63.9557
20.477 57.7461
20.6586 52.3608
20.84 51.4678
21.0215 51.3388
21.203 52.4681
21.3846 51.8616
21.5662 51.6303
21.7479 55.5989
21.9297 65.9756
22.1115 57.6639
22.2933 52.8631
22.4753 51.1062
22.6572 51.9161
22.8393 54.1615
23.0214 59.8079
23.2037 51.4442
23.3859 52.9079
23.5682 56.8487
23.7505 51.8975
23.9329 47.5989
24.1154 46.2305
24.2979 45.5859
24.4805 45.0179
24.6631 44.9259
24.8458 44.3965
25.0286 45.177
25.2114 46.5655
25.3943 46.6793
25.5773 43.2038
25.7605 42.5568
25.9436 42.684
26.1268 43.606
26.31 42.3786
26.4933 42.5769
26.6767 43.7841
26.8601 42.4641
27.0437 40.8943
27.2272 40.4091
27.4109 40.2449
27.5946 40.2622
27.7784 39.8206
27.9623 39.9284
28.1462 40.6764
28.3304 39.0287
28.5145 37.705
28.6987 37.2975
28.8829 36.9967
29.0673 36.518
29.2517 35.9281
29.4361 35.6958
29.6207 34.8173
29.8053 34.3497
29.99 34.1555
30.1748 33.9822
30.3597 33.9349
30.5447 33.6264
30.7297 33.6908
30.915 33.1096
31.1002 32.6282
31.2855 32.2743
31.4708 32.1261
31.6563 31.8313
31.8418 31.5529
32.0275 31.3502
32.2132 30.7422
32.399 30.3662
32.5848 29.9167
32.7708 29.5476
32.9569 29.3019
33.143 29.0604
33.3293 28.7183
33.5158 28.2522
33.7022 27.9054
33.8887 27.5239
34.0753 27.242
34.262 26.8495
34.4488 26.5199
34.6357 26.1812
34.8227 25.8342
35.0098 25.687
35.1969 25.3495
35.3842 25.0965
35.5716 24.9404
35.759 24.5658
35.9468 24.1819
36.1345 23.9727
36.3222 23.7092
36.5101 23.5278
36.6981 23.1258
36.8861 22.9081
37.0743 22.5416
37.2626 22.2549
37.451 21.9667
37.6395 21.7944
37.8281 21.4589
38.0168 21.1985
38.2056 20.8839
38.3945 20.6074
38.5837 20.3424
38.7728 20.0811
38.9621 19.8817
39.1514 19.4994
39.3409 19.3178
39.5304 19.0747
39.7201 18.8547
39.9099 18.6423
40.0999 18.3402
40.2899 18.1559
40.48 17.8669
40.6703 17.6873
40.8607 17.5206
41.0512 17.2362
41.242 16.981
41.4327 16.8103
41.6236 16.5522
41.8146 16.4096
42.0057 16.1364
42.1969 15.8829
42.3882 15.7008
42.5797 15.4925
42.7713 15.3022
42.963 15.0502
43.1549 14.8798
43.3468 14.6279
43.5389 14.46
43.7312 14.2298
43.9237 14.0679
44.1162 13.858
44.3088 13.6854
44.5016 13.4595
44.6945 13.3242
44.8875 13.108
45.0806 12.93
45.2739 12.7282
45.4673 12.5783
45.6609 12.3437
45.8546 12.2235
46.0484 12.0679
46.2424 11.8797
46.4365 11.7315
46.631 11.5072
46.8254 11.3561
47.0199 11.1958
47.2146 11.0408
47.4095 10.8536
47.6044 10.6385
47.7996 10.5592
47.9948 10.3864
48.1902 10.256
48.3858 10.0924
48.5815 9.96001
48.7774 9.79631
48.9734 9.67627
49.1696 9.48041
49.3661 9.36183
49.5626 9.19724
49.7592 9.07159
49.956 8.9409
50.153 8.80335
50.3501 8.67774
50.5474 8.50346
50.7448 8.39682
50.9424 8.28444
51.1402 8.17659
51.3381 8.02719
51.5362 7.92996
51.7344 7.7598
51.9328 7.61996
52.1316 7.49472
52.3304 7.40768
52.5293 7.25652
52.7284 7.14297
52.9276 7.00264
53.1271 6.92652
53.3267 6.78786
53.5265 6.62852
53.7264 6.54933
53.9266 6.43264
54.1269 6.33605
54.3274 6.20874
54.528 6.02489
54.7289 5.85142
54.9301 5.6801
55.1314 5.51103
55.3328 5.25473
55.5344 5.14912
55.7361 4.91943

File: Ni3Fe_FD0198.xy
TT I
1.27165 8.28789
1.45013 6.27829
1.62863 5.52425
1.80712 5.17176
1.98562 4.99034
2.16411 4.24894
2.34263 4.03281
2.52115 4.64543
2.69965 6.01088
2.87818 7.92241
3.05672 10.8085
3.23527 15.244
3.4138 18.9468
3.59237 22.6078
3.77094 25.7684
3.9495 30.2645
4.12809 34.8823
4.30669 40.8109
4.4853 48.328
4.6639 58.0616
4.84253 71.7943
5.02118 97.458
5.19981 860.457
5.37848 303.599
5.55716 113.192
5.73586 101.812
5.91455 112.207
6.09328 3421.29
6.27201 90.5308
6.45075 70.6804
6.62952 64.1073
6.8083 60.1199
6.98711 56.9861
7.16591 56.3759
7.34475 56.0039
7.5236 57.8159
7.70247 57.8663
7.88135 60.5305
8.06026 65.2728
8.23919 73.3568
8.41812 90.956
8.59709 1015.05
8.77609 113.176
8.9551 90.9562
9.13412 87.1933
9.31318 89.1951
9.49226 90.0464
9.67134 95.7483
9.85047 107.256
10.0296 539.317
10.2088 647.19
10.388 113.624
10.5672 421.798
10.7465 93.6158
10.9257 81.0402
11.105 74.982
11.2844 70.947
11.4637 67.7054
11.6431 66.5639
11.8225 65.4618
12.002 69.0507
12.1814 134.548
12.3609 71.4369
12.5405 67.6652
12.72 70.1335
12.8996 74.835
13.0792 85.7396
13.2589 221.109
13.4386 158.001
13.6183 217.807
13.7981 117.729
13.9779 80.417
14.1577 76.8403
14.3376 73.6442
14.5175 72.9054
14.6974 74.9005
14.8774 118.618
15.0574 181.356
15.2374 72.58
15.4175 70.0652
15.5976 69.9328
15.7778 103.611
15.958 179.763
16.1382 64.2888
16.3185 60.6464
16.4988 58.3341
16.6792 57.3512
16.8596 57.5457
17.04 59.1416
17.2205 68.8654
17.401 79.3203
17.5815 62.2969
17.7622 64.8638
17.9428 84.2122
18.1237 134.57
18.3044 89.5551
18.4852 86.4169
18.666 63.75
18.8469 61.1532
19.0278 59.7348
19.2088 63.3701
19.3898 75.1316
19.5709 57.6547
19.752 56.1844
19.9332 59.68
20.1144 72.0781
20.2957 64.0694
20.477 57.5343
20.6586 52.3153
20.84 51.3761
21.0215 51.5047
21.203 52.4983
21.3846 52.1763
21.5662 51.7208
21.7479 55.4749
21.9297 66.1074
22.1115 57.5158
22.2933 52.9564
22.4753 51.0873
22.6572 52.1742
22.8393 54.071
23.0214 59.9376
23.2037 51.5225
23.3859 52.9576
23.5682 56.9075
23.7505 51.9572
23.9329 47.4998
24.1154 46.2366
24.2979 45.5375
24.4805 44.993
24.6631 44.9304
24.8458 44.54
25.0286 45.1693
25.2114 46.5322
25.3943 46.6017
25.5773 43.0909
25.7605 42.6405
25.9436 42.6805
26.1268 43.669
26.31 42.4688
26.4933 42.6657
26.6767 43.9279
26.8601 42.3238
27.0437 40.8911
27.2272 40.5699
27.4109 40.1735
27.5946 40.3267
27.7784 39.8033
27.9623 39.9199
28.1462 40.617
28.3304 39.1757
28.5145 37.8089
28.6987 37.2626
28.8829 37.014
29.0673 36.4108
29.2517 35.9062
29.4361 35.5683
29.6207 34.7485
29.8053 34.4592
29.99 34.14
30.1748 33.9422
30.3597 33.8394
30.5447 33.7024
30.7297 33.704
30.915 33.1092
31.1002 32.6148
31.2855 32.307
31.4708 32.2298
31.6563 31.8706
31.8418 31.5577
32.0275 31.4338
32.2132 30.8687
32.399 30.3605
32.5848 30.0129
32.7708 29.4969
32.9569 29.4253
33.143 29.1115
33.3293 28.7139
33.5158 28.3625
33.7022 27.8263
33.8887 27.5272
34.0753 27.2295
34.262 26.8003
34.4488 26.4769
34.6357 26.1299
34.8227 25.8593
35.0098 25.6581
35.1969 25.3785
35.3842 25.0965
35.5716 24.9398
35.759 24.6033
35.9468 24.1184
36.1345 23.9918
36.3222 23.7544
36.5101 23.5017
36.6981 23.1728
36.8861 22.8801
37.0743 22.5224
37.2626 22.2827
37.451 21.9711
37.6395 21.8
37.8281 21.4763
38.0168 21.1976
38.2056 20.8814
38.3945 20.6025
38.5837 20.3227
38.7728 20.0885
38.9621 19.827
39.1514 19.6088
39.3409 19.3304
39.5304 19.0737
39.7201 18.9608
39.9099 18.6998
40.0999 18.444
40.2899 18.1647
40.48 17.9112
40.6703 17.7575
40.8607 17.5804
41.0512 17.2758
41.242 17.0071
41.4327 16.77
41.6236 16.5839
41.8146 16.3944
42.0057 16.1186
42.1969 15.9044
42.3882 15.7372
42.5797 15.4869
42.7713 15.3203
42.963 15.125
43.1549 14.913
43.3468 14.6274
43.5389 14.4643
43.7312 14.2634
43.9237 14.0672
44.1162 13.8624
44.3088 13.7251
44.5016 13.5095
44.6945 13.2859
44.8875 13.1481
45.0806 12.9064
45.2739 12.718
45.4673 12.5874
45.6609 12.3621
45.8546 12.207
46.0484 12.0169
46.2424 11.8836
46.4365 11.6919
46.631 11.5275
46.8254 11.3475
47.0199 11.1866
47.2146 11.0141
47.4095 10.8661
47.6044 10.6824
47.7996 10.532
47.9948 10.4079
48.1902 10.2329
48.3858 10.0513
48.5815 9.96395
48.7774 9.79249
48.9734 9.63132
49.1696 9.51302
49.3661 9.36306
49.5626 9.2334
49.7592 9.10949
49.956 8.94903
50.153 8.82227
50.3501 8.6757
50.5474 8.50139
50.7448 8.4128
50.9424 8.29386
51.1402 8.14561
51.3381 8.02399
51.5362 7.89746
51.7344 7.76854
51.9328 7.64359
52.1316 7.4856
52.3304 7.40434
52.5293 7.25162
52.7284 7.19423
52.9276 6.99535
53.1271 6.93748
53.3267 6.77533
53.5265 6.62922
53.7264 6.55284
53.9266 6.43999
54.1269 6.29447
54.3274 6.1829
54.528 5.99689
54.7289 5.87918
54.9301 5.69826
55.1314 5.56424
55.3328 5.29693
55.5344 5.1094
55.7361 4.98006