Folder: NiFe_MOF_catalyst_paper/XRD (part 71)

File: Ni3Fe_FD0374.xy
TT I
1.27165 7.57607
1.45013 6.78738
1.62863 5.1465
1.80712 4.73753
1.98562 4.95511
2.16411 4.84757
2.34263 4.75856
2.52115 5.97934
2.69965 7.08539
2.87818 8.52792
3.05672 10.9402
3.23527 15.0738
3.4138 19.0517
3.59237 23.8628
3.77094 26.3514
3.9495 30.0615
4.12809 35.7513
4.30669 164.904
4.4853 60.418
4.6639 57.4393
4.84253 69.6745
5.02118 90.43
5.19981 506.954
5.37848 228.478
5.55716 106.073
5.73586 95.7858
5.91455 99.9011
6.09328 4047.08
6.27201 86.6177
6.45075 69.2079
6.62952 64.4032
6.8083 60.1009
6.98711 56.9469
7.16591 56.7712
7.34475 81.6419
7.5236 56.1827
7.70247 57.6847
7.88135 59.3656
8.06026 63.9992
8.23919 71.4181
8.41812 87.9498
8.59709 1195.53
8.77609 105.119
8.9551 92.579
9.13412 84.3042
9.31318 85.6015
9.49226 87.2744
9.67134 98.7525
9.85047 103.763
10.0296 412.346
10.2088 516.495
10.388 109.219
10.5672 482.825
10.7465 89.7297
10.9257 80.2456
11.105 73.7842
11.2844 71.4486
11.4637 66.5679
11.6431 65.3391
11.8225 64.0363
12.002 65.9477
12.1814 150.232
12.3609 72.3627
12.5405 66.4811
12.72 70.8857
12.8996 73.3115
13.0792 81.9565
13.2589 245.34
13.4386 141.281
13.6183 244.253
13.7981 107.624
13.9779 78.3587
14.1577 74.2674
14.3376 72.9149
14.5175 70.7109
14.6974 72.6652
14.8774 118.006
15.0574 161.089
15.2374 72.4714
15.4175 68.523
15.5976 67.8194
15.7778 101.243
15.958 167.916
16.1382 63.9392
16.3185 59.9588
16.4988 57.0545
16.6792 56.2765
16.8596 56.7967
17.04 57.5382
17.2205 68.9705
17.401 74.5081
17.5815 60.9694
17.7622 63.1191
17.9428 77.8726
18.1237 134.721
18.3044 92.5744
18.4852 81.9809
18.666 62.1426
18.8469 59.8348
19.0278 58.5168
19.2088 61.5578
19.3898 76.1358
19.5709 56.0029
19.752 54.9671
19.9332 58.3481
20.1144 70.5443
20.2957 64.4486
20.477 55.7854
20.6586 51.1303
20.84 50.301
21.0215 49.9781
21.203 52.0175
21.3846 50.7599
21.5662 50.4301
21.7479 54.5552
21.9297 65.4064
22.1115 57.0948
22.2933 51.3657
22.4753 50.4183
22.6572 50.5039
22.8393 53.8085
23.0214 58.865
23.2037 50.3015
23.3859 51.5391
23.5682 57.326
23.7505 50.3631
23.9329 46.5455
24.1154 45.504
24.2979 44.6799
24.4805 44.1549
24.6631 44.019
24.8458 43.6375
25.0286 44.2117
25.2114 45.9142
25.3943 45.9079
25.5773 42.2284
25.7605 41.6413
25.9436 42.01
26.1268 42.8094
26.31 41.3867
26.4933 41.953
26.6767 43.3623
26.8601 41.5706
27.0437 40.1081
27.2272 39.6981
27.4109 39.5241
27.5946 39.5672
27.7784 39.0223
27.9623 39.4905
28.1462 39.9963
28.3304 38.1889
28.5145 37.0161
28.6987 36.5289
28.8829 36.4064
29.0673 35.6795
29.2517 35.3482
29.4361 35.0905
29.6207 34.0456
29.8053 33.8819
29.99 33.5033
30.1748 33.3965
30.3597 33.1253
30.5447 33.1214
30.7297 33.135
30.915 32.5534
31.1002 31.9294
31.2855 31.7201
31.4708 31.6075
31.6563 31.3101
31.8418 30.9109
32.0275 30.7373
32.2132 30.3052
32.399 29.7618
32.5848 29.2948
32.7708 28.9327
32.9569 28.7653
33.143 28.5402
33.3293 28.1251
33.5158 27.7992
33.7022 27.3564
33.8887 27.0926
34.0753 26.8215
34.262 26.322
34.4488 26.0145
34.6357 25.6943
34.8227 25.3141
35.0098 25.2362
35.1969 24.8323
35.3842 24.5956
35.5716 24.5099
35.759 24.1227
35.9468 23.7693
36.1345 23.5212
36.3222 23.2808
36.5101 23.0676
36.6981 22.7493
36.8861 22.4254
37.0743 22.0399
37.2626 21.8982
37.451 21.5841
37.6395 21.4317
37.8281 21.0447
38.0168 20.7447
38.2056 20.5015
38.3945 20.243
38.5837 19.9775
38.7728 19.7572
38.9621 19.5495
39.1514 19.208
39.3409 19.0101
39.5304 18.7343
39.7201 18.594
39.9099 18.316
40.0999 18.1264
40.2899 17.8247
40.48 17.5462
40.6703 17.372
40.8607 17.1884
41.0512 16.997
41.242 16.7166
41.4327 16.4706
41.6236 16.2488
41.8146 16.0585
42.0057 15.8537
42.1969 15.6059
42.3882 15.4579
42.5797 15.2525
42.7713 15.0175
42.963 14.7412
43.1549 14.6067
43.3468 14.3688
43.5389 14.2243
43.7312 14.0096
43.9237 13.831
44.1162 13.6062
44.3088 13.431
44.5016 13.2419
44.6945 13.0967
44.8875 12.9248
45.0806 12.6814
45.2739 12.5217
45.4673 12.3836
45.6609 12.2184
45.8546 12.0543
46.0484 11.8192
46.2424 11.6899
46.4365 11.5018
46.631 11.3354
46.8254 11.0867
47.0199 10.9519
47.2146 10.8458
47.4095 10.6496
47.6044 10.5315
47.7996 10.3841
47.9948 10.2129
48.1902 10.067
48.3858 9.90323
48.5815 9.78879
48.7774 9.61887
48.9734 9.47593
49.1696 9.33861
49.3661 9.21925
49.5626 9.03791
49.7592 8.92011
49.956 8.79929
50.153 8.63295
50.3501 8.51249
50.5474 8.40705
50.7448 8.25123
50.9424 8.1641
51.1402 8.01833
51.3381 7.88673
51.5362 7.79348
51.7344 7.62198
51.9328 7.48024
52.1316 7.35639
52.3304 7.25571
52.5293 7.1263
52.7284 7.02238
52.9276 6.90013
53.1271 6.815
53.3267 6.62297
53.5265 6.55039
53.7264 6.41769
53.9266 6.33971
54.1269 6.20227
54.3274 6.10315
54.528 5.95341
54.7289 5.78697
54.9301 5.63499
55.1314 5.49804
55.3328 5.27024
55.5344 5.13183
55.7361 4.98431

File: Ni3Fe_FD0376.xy
TT I
1.27165 7.71433
1.45013 6.57575
1.62863 5.10705
1.80712 4.74286
1.98562 4.74504
2.16411 4.4714
2.34263 5.20209
2.52115 5.7275
2.69965 6.96856
2.87818 8.59087
3.05672 11.0661
3.23527 15.3286
3.4138 19.1763
3.59237 24.3079
3.77094 26.3453
3.9495 30.3832
4.12809 35.4135
4.30669 176.683
4.4853 62.3474
4.6639 56.86
4.84253 68.9792
5.02118 90.0712
5.19981 495.984
5.37848 227.643
5.55716 106.093
5.73586 95.5726
5.91455 99.9109
6.09328 3984.15
6.27201 86.4733
6.45075 69.5507
6.62952 64.4034
6.8083 60.0912
6.98711 56.7883
7.16591 56.7361
7.34475 83.9995
7.5236 56.1871
7.70247 57.3878
7.88135 59.0214
8.06026 63.9842
8.23919 71.6243
8.41812 88.3803
8.59709 1173.99
8.77609 104.794
8.9551 92.5954
9.13412 84.1098
9.31318 85.4116
9.49226 86.9895
9.67134 99.3551
9.85047 103.024
10.0296 407.703
10.2088 518.743
10.388 108.893
10.5672 480.231
10.7465 89.9048
10.9257 80.251
11.105 73.6163
11.2844 71.3399
11.4637 66.6364
11.6431 65.4008
11.8225 64.1042
12.002 65.7376
12.1814 149.773
12.3609 72.4139
12.5405 66.1715
12.72 71.0063
12.8996 72.9953
13.0792 81.9551
13.2589 243.351
13.4386 142.353
13.6183 243.712
13.7981 107.822
13.9779 78.0995
14.1577 74.3143
14.3376 73.3392
14.5175 70.9083
14.6974 72.4514
14.8774 117.211
15.0574 161.006
15.2374 72.6058
15.4175 68.4186
15.5976 67.7305
15.7778 100.497
15.958 167.875
16.1382 64.2126
16.3185 60.1257
16.4988 57.1735
16.6792 56.1287
16.8596 56.6444
17.04 57.4304
17.2205 68.8533
17.401 74.4225
17.5815 60.8529
17.7622 63.1487
17.9428 77.7455
18.1237 135.205
18.3044 92.1269
18.4852 82.3196
18.666 62.1898
18.8469 59.7767
19.0278 58.6093
19.2088 61.5816
19.3898 75.8922
19.5709 55.9693
19.752 54.8291
19.9332 58.0883
20.1144 70.718
20.2957 64.5894
20.477 55.9103
20.6586 51.2129
20.84 50.2168
21.0215 50.0967
21.203 51.9669
21.3846 50.7687
21.5662 50.1673
21.7479 54.424
21.9297 65.508
22.1115 57.1569
22.2933 51.8011
22.4753 50.1354
22.6572 50.4286
22.8393 53.5836
23.0214 58.6161
23.2037 50.2055
23.3859 51.4222
23.5682 57.3703
23.7505 50.3835
23.9329 46.5218
24.1154 45.4477
24.2979 44.7047
24.4805 44.0944
24.6631 44.1078
24.8458 43.5059
25.0286 44.2029
25.2114 46.0006
25.3943 45.8002
25.5773 42.1522
25.7605 41.6367
25.9436 42.0454
26.1268 42.7768
26.31 41.3624
26.4933 41.8906
26.6767 43.1535
26.8601 41.6253
27.0437 40.0303
27.2272 39.5596
27.4109 39.3881
27.5946 39.3813
27.7784 38.9714
27.9623 39.3695
28.1462 39.8985
28.3304 38.4082
28.5145 37.0475
28.6987 36.5628
28.8829 36.3068
29.0673 35.6906
29.2517 35.3935
29.4361 34.9806
29.6207 34.0312
29.8053 33.7781
29.99 33.5125
30.1748 33.3857
30.3597 33.1222
30.5447 33.052
30.7297 33.0206
30.915 32.4819
31.1002 32.0058
31.2855 31.7808
31.4708 31.6436
31.6563 31.2981
31.8418 30.9817
32.0275 30.7496
32.2132 30.1433
32.399 29.7543
32.5848 29.1648
32.7708 28.94
32.9569 28.7305
33.143 28.5397
33.3293 28.1845
33.5158 27.7753
33.7022 27.3388
33.8887 27.0366
34.0753 26.6693
34.262 26.3373
34.4488 26.0794
34.6357 25.5847
34.8227 25.3657
35.0098 25.1457
35.1969 24.8347
35.3842 24.6276
35.5716 24.4501
35.759 24.1117
35.9468 23.6773
36.1345 23.5447
36.3222 23.2925
36.5101 23.0188
36.6981 22.6955
36.8861 22.4088
37.0743 22.0924
37.2626 21.8371
37.451 21.6108
37.6395 21.3832
37.8281 20.9966
38.0168 20.7724
38.2056 20.4648
38.3945 20.2838
38.5837 20.0294
38.7728 19.7735
38.9621 19.4469
39.1514 19.1674
39.3409 18.9695
39.5304 18.7618
39.7201 18.5297
39.9099 18.322
40.0999 18.1022
40.2899 17.8276
40.48 17.5737
40.6703 17.3407
40.8607 17.1399
41.0512 16.9943
41.242 16.6905
41.4327 16.4969
41.6236 16.2604
41.8146 16.0251
42.0057 15.8338
42.1969 15.6459
42.3882 15.4848
42.5797 15.2134
42.7713 15.038
42.963 14.7681
43.1549 14.5765
43.3468 14.3825
43.5389 14.218
43.7312 13.9805
43.9237 13.8308
44.1162 13.5757
44.3088 13.463
44.5016 13.2507
44.6945 13.0968
44.8875 12.8811
45.0806 12.693
45.2739 12.5335
45.4673 12.3853
45.6609 12.1719
45.8546 12.0118
46.0484 11.8671
46.2424 11.6514
46.4365 11.5306
46.631 11.3441
46.8254 11.1818
47.0199 11.0039
47.2146 10.8016
47.4095 10.6678
47.6044 10.5091
47.7996 10.3757
47.9948 10.2204
48.1902 10.0558
48.3858 9.93329
48.5815 9.79624
48.7774 9.6408
48.9734 9.50145
49.1696 9.35934
49.3661 9.21877
49.5626 9.05993
49.7592 8.94904
49.956 8.82109
50.153 8.67508
50.3501 8.52083
50.5474 8.39785
50.7448 8.23589
50.9424 8.12188
51.1402 8.00517
51.3381 7.86913
51.5362 7.7865
51.7344 7.62186
51.9328 7.51327
52.1316 7.35819
52.3304 7.27841
52.5293 7.11983
52.7284 7.04337
52.9276 6.88805
53.1271 6.80374
53.3267 6.68915
53.5265 6.53777
53.7264 6.40994
53.9266 6.32923
54.1269 6.23463
54.3274 6.06169
54.528 5.96308
54.7289 5.81852
54.9301 5.59636
55.1314 5.57071
55.3328 5.29332
55.5344 5.09386
55.7361 4.95754

File: Ni3Fe_FD0377.xy
TT I
1.27165 7.96443
1.45013 6.22802
1.62863 5.30009
1.80712 4.94616
1.98562 4.82528
2.16411 4.85953
2.34263 5.05824
2.52115 5.68301
2.69965 7.12602
2.87818 7.94983
3.05672 10.6453
3.23527 14.5349
3.4138 19.6255
3.59237 24.335
3.77094 26.8665
3.9495 30.3685
4.12809 35.0714
4.30669 180.631
4.4853 62.5498
4.6639 56.6974
4.84253 69.2948
5.02118 90.9729
5.19981 491.777
5.37848 226.355
5.55716 106.437
5.73586 95.4662
5.91455 99.3577
6.09328 4043.03
6.27201 86.6523
6.45075 69.756
6.62952 64.7441
6.8083 60.1184
6.98711 57.4371
7.16591 56.8834
7.34475 84.7497
7.5236 56.0154
7.70247 57.484
7.88135 59.33
8.06026 64.1428
8.23919 71.1752
8.41812 87.9153
8.59709 1177.44
8.77609 105.126
8.9551 93.3084
9.13412 84.4081
9.31318 85.4538
9.49226 86.8891
9.67134 99.3375
9.85047 102.867
10.0296 406.243
10.2088 515.004
10.388 109.03
10.5672 483.172
10.7465 89.6497
10.9257 80.3817
11.105 73.7307
11.2844 71.5011
11.4637 66.3566
11.6431 65.2991
11.8225 64.2144
12.002 65.6032
12.1814 150.444
12.3609 72.1617
12.5405 66.5894
12.72 71.0597
12.8996 72.8568
13.0792 81.6923
13.2589 243.304
13.4386 141.134
13.6183 243.242
13.7981 107.126
13.9779 78.1317
14.1577 74.2509
14.3376 73.6381
14.5175 71.0254
14.6974 72.7939
14.8774 116.934
15.0574 160.845
15.2374 72.7967
15.4175 68.5011
15.5976 68.0003
15.7778 100.429
15.958 167.093
16.1382 64.3796
16.3185 60.1145
16.4988 57.0847
16.6792 56.0021
16.8596 56.7884
17.04 57.3945
17.2205 68.6042
17.401 74.5207
17.5815 61.0237
17.7622 63.1028
17.9428 77.615
18.1237 135.737
18.3044 91.9163
18.4852 82.4346
18.666 62.3011
18.8469 59.699
19.0278 58.4358
19.2088 61.6257
19.3898 76.419
19.5709 56.0735
19.752 54.8812
19.9332 58.1697
20.1144 70.6847
20.2957 64.5621
20.477 55.9756
20.6586 51.173
20.84 49.9945
21.0215 50.1873
21.203 51.8176
21.3846 50.6718
21.5662 50.2606
21.7479 54.4184
21.9297 65.2955
22.1115 57.1753
22.2933 51.5489
22.4753 50.2137
22.6572 50.3787
22.8393 53.4408
23.0214 58.6981
23.2037 50.2293
23.3859 51.3351
23.5682 57.3408
23.7505 50.0878
23.9329 46.5622
24.1154 45.4421
24.2979 44.7311
24.4805 44.0421
24.6631 44.0505
24.8458 43.4069
25.0286 44.0451
25.2114 45.888
25.3943 45.7482
25.5773 42.3577
25.7605 41.5851
25.9436 41.9911
26.1268 42.862
26.31 41.3798
26.4933 41.8861
26.6767 43.1142
26.8601 41.6063
27.0437 39.9939
27.2272 39.554
27.4109 39.5041
27.5946 39.6483
27.7784 39.0411
27.9623 39.4766
28.1462 39.9306
28.3304 38.3194
28.5145 36.9539
28.6987 36.6653
28.8829 36.3386
29.0673 35.7047
29.2517 35.334
29.4361 35.0959
29.6207 34.099
29.8053 33.8163
29.99 33.4912
30.1748 33.2777
30.3597 33.1604
30.5447 33.132
30.7297 33.1131
30.915 32.5837
31.1002 31.8534
31.2855 31.6682
31.4708 31.6233
31.6563 31.1448
31.8418 30.9051
32.0275 30.8102
32.2132 30.2199
32.399 29.7675
32.5848 29.272
32.7708 28.9548
32.9569 28.8077
33.143 28.6493
33.3293 28.1636
33.5158 27.7525
33.7022 27.3284
33.8887 26.9498
34.0753 26.7056
34.262 26.308
34.4488 26.0242
34.6357 25.6964
34.8227 25.3459
35.0098 25.2218
35.1969 24.8767
35.3842 24.6156
35.5716 24.4715
35.759 24.1023
35.9468 23.7824
36.1345 23.5545
36.3222 23.2825
36.5101 23.0403
36.6981 22.7885
36.8861 22.4137
37.0743 22.14
37.2626 21.8735
37.451 21.5445
37.6395 21.3713
37.8281 21.0034
38.0168 20.7894
38.2056 20.518
38.3945 20.2213
38.5837 19.988
38.7728 19.7259
38.9621 19.4635
39.1514 19.247
39.3409 18.9262
39.5304 18.7513
39.7201 18.5199
39.9099 18.3297
40.0999 18.0177
40.2899 17.8405
40.48 17.6563
40.6703 17.454
40.8607 17.2059
41.0512 16.9755
41.242 16.6331
41.4327 16.5
41.6236 16.334
41.8146 16.035
42.0057 15.8103
42.1969 15.6138
42.3882 15.4535
42.5797 15.2314
42.7713 15.0511
42.963 14.8498
43.1549 14.6389
43.3468 14.428
43.5389 14.2281
43.7312 13.9883
43.9237 13.8066
44.1162 13.6083
44.3088 13.4662
44.5016 13.2337
44.6945 13.0534
44.8875 12.8903
45.0806 12.7075
45.2739 12.5249
45.4673 12.357
45.6609 12.1145
45.8546 12.0154
46.0484 11.8549
46.2424 11.6464
46.4365 11.4955
46.631 11.3206
46.8254 11.1115
47.0199 11.0239
47.2146 10.8423
47.4095 10.7217
47.6044 10.4928
47.7996 10.3595
47.9948 10.2591
48.1902 10.1044
48.3858 9.93565
48.5815 9.75956
48.7774 9.62183
48.9734 9.49367
49.1696 9.3555
49.3661 9.21694
49.5626 9.05124
49.7592 8.91801
49.956 8.8064
50.153 8.67613
50.3501 8.51812
50.5474 8.39968
50.7448 8.25741
50.9424 8.14528
51.1402 8.03484
51.3381 7.85323
51.5362 7.77317
51.7344 7.62664
51.9328 7.46694
52.1316 7.33619
52.3304 7.24035
52.5293 7.08298
52.7284 7.01191
52.9276 6.92509
53.1271 6.7754
53.3267 6.6972
53.5265 6.5393
53.7264 6.44936
53.9266 6.34146
54.1269 6.19809
54.3274 6.09483
54.528 5.98483
54.7289 5.81444
54.9301 5.64303
55.1314 5.45907
55.3328 5.27114
55.5344 5.08817
55.7361 4.9504

File: Ni3Fe_FD0378.xy
TT I
1.27165 7.68269
1.45013 6.62364
1.62863 5.33248
1.80712 4.87013
1.98562 4.63219
2.16411 5.09878
2.34263 5.09904
2.52115 6.76729
2.69965 6.94608
2.87818 8.54292
3.05672 11.3059
3.23527 14.9205
3.4138 19.3644
3.59237 24.3658
3.77094 26.542
3.9495 30.1364
4.12809 35.445
4.30669 184.887
4.4853 63.0059
4.6639 56.5308
4.84253 69.0719
5.02118 89.8436
5.19981 486.84
5.37848 225.8
5.55716 106.694
5.73586 95.6337
5.91455 99.3192
6.09328 4079.0
6.27201 86.7556
6.45075 69.373
6.62952 64.4814
6.8083 60.2449
6.98711 56.991
7.16591 56.6425
7.34475 85.8662
7.5236 55.9505
7.70247 57.6322
7.88135 59.2745
8.06026 63.9556
8.23919 71.3982
8.41812 87.9607
8.59709 1175.5
8.77609 105.053
8.9551 92.9684
9.13412 84.2717
9.31318 84.9189
9.49226 87.1237
9.67134 99.8807
9.85047 103.33
10.0296 403.943
10.2088 513.346
10.388 108.565
10.5672 485.339
10.7465 89.6646
10.9257 80.5839
11.105 73.6535
11.2844 71.7127
11.4637 66.6751
11.6431 65.2038
11.8225 63.8533
12.002 65.5162
12.1814 150.641
12.3609 72.389
12.5405 66.484
12.72 71.1041
12.8996 72.8915
13.0792 81.8394
13.2589 242.379
13.4386 141.231
13.6183 242.882
13.7981 106.881
13.9779 78.0145
14.1577 74.3823
14.3376 73.155
14.5175 70.9888
14.6974 72.5714
14.8774 116.436
15.0574 161.516
15.2374 72.681
15.4175 68.2437
15.5976 67.7225
15.7778 100.101
15.958 166.723
16.1382 64.2277
16.3185 60.1606
16.4988 57.132
16.6792 55.965
16.8596 56.6328
17.04 57.5982
17.2205 68.5579
17.401 74.4153
17.5815 60.9927
17.7622 62.8079
17.9428 77.3307
18.1237 136.005
18.3044 92.0657
18.4852 82.4918
18.666 62.3522
18.8469 59.6462
19.0278 58.5208
19.2088 61.6429
19.3898 76.1328
19.5709 55.9145
19.752 54.8187
19.9332 58.0708
20.1144 70.6647
20.2957 64.4116
20.477 55.8673
20.6586 51.3575
20.84 50.2033
21.0215 49.8941
21.203 51.9976
21.3846 50.5176
21.5662 50.3481
21.7479 54.3212
21.9297 65.3854
22.1115 57.1026
22.2933 51.5441
22.4753 50.1276
22.6572 50.2388
22.8393 53.439
23.0214 58.7768
23.2037 50.4872
23.3859 51.3167
23.5682 57.3056
23.7505 50.2727
23.9329 46.4534
24.1154 45.3397
24.2979 44.6858
24.4805 44.1792
24.6631 44.068
24.8458 43.4701
25.0286 44.0958
25.2114 45.8476
25.3943 45.7105
25.5773 42.126
25.7605 41.7249
25.9436 41.9908
26.1268 42.6946
26.31 41.2575
26.4933 41.8562
26.6767 43.2051
26.8601 41.537
27.0437 39.9888
27.2272 39.5283
27.4109 39.4331
27.5946 39.3527
27.7784 38.9415
27.9623 39.3387
28.1462 39.9718
28.3304 38.3039
28.5145 36.9249
28.6987 36.6528
28.8829 36.2693
29.0673 35.7008
29.2517 35.0978
29.4361 35.0601
29.6207 34.1805
29.8053 33.7867
29.99 33.4336
30.1748 33.3249
30.3597 33.0934
30.5447 33.0928
30.7297 32.9901
30.915 32.5849
31.1002 32.008
31.2855 31.7002
31.4708 31.6332
31.6563 31.2574
31.8418 31.0327
32.0275 30.773
32.2132 30.129
32.399 29.6945
32.5848 29.2794
32.7708 28.9178
32.9569 28.7938
33.143 28.5988
33.3293 28.0874
33.5158 27.8558
33.7022 27.4234
33.8887 27.0248
34.0753 26.7635
34.262 26.3908
34.4488 25.9442
34.6357 25.6327
34.8227 25.3618
35.0098 25.135
35.1969 24.8038
35.3842 24.6435
35.5716 24.4391
35.759 24.1014
35.9468 23.7861
36.1345 23.5259
36.3222 23.3005
36.5101 22.9917
36.6981 22.7439
36.8861 22.5046
37.0743 22.0832
37.2626 21.8697
37.451 21.5525
37.6395 21.4549
37.8281 21.0506
38.0168 20.8082
38.2056 20.529
38.3945 20.2814
38.5837 19.9534
38.7728 19.7358
38.9621 19.4923
39.1514 19.2026
39.3409 18.9438
39.5304 18.7604
39.7201 18.5606
39.9099 18.2988
40.0999 18.0841
40.2899 17.824
40.48 17.6387
40.6703 17.4201
40.8607 17.2676
41.0512 16.9128
41.242 16.6722
41.4327 16.4812
41.6236 16.2499
41.8146 16.097
42.0057 15.8515
42.1969 15.6372
42.3882 15.4681
42.5797 15.2096
42.7713 15.0302
42.963 14.8354
43.1549 14.6196
43.3468 14.3795
43.5389 14.2551
43.7312 14.0289
43.9237 13.8224
44.1162 13.6508
44.3088 13.4253
44.5016 13.2216
44.6945 13.0449
44.8875 12.8577
45.0806 12.7124
45.2739 12.4718
45.4673 12.3559
45.6609 12.1912
45.8546 11.9919
46.0484 11.8335
46.2424 11.6392
46.4365 11.4879
46.631 11.3164
46.8254 11.1043
47.0199 10.9401
47.2146 10.8113
47.4095 10.6696
47.6044 10.4994
47.7996 10.3356
47.9948 10.1876
48.1902 10.028
48.3858 9.91613
48.5815 9.76424
48.7774 9.64248
48.9734 9.52462
49.1696 9.32647
49.3661 9.21599
49.5626 8.99633
49.7592 8.89547
49.956 8.78393
50.153 8.66992
50.3501 8.51741
50.5474 8.42435
50.7448 8.27633
50.9424 8.12786
51.1402 7.99004
51.3381 7.88668
51.5362 7.74223
51.7344 7.62773
51.9328 7.45671
52.1316 7.3536
52.3304 7.2569
52.5293 7.12581
52.7284 7.03807
52.9276 6.87611
53.1271 6.79316
53.3267 6.66022
53.5265 6.56782
53.7264 6.422
53.9266 6.30605
54.1269 6.21257
54.3274 6.1326
54.528 5.94592
54.7289 5.75962
54.9301 5.61925
55.1314 5.48665
55.3328 5.29657
55.5344 5.06351
55.7361 4.89978

File: Ni3Fe_FD0379.xy
TT I
1.27165 7.5647
1.45013 6.12862
1.62863 6.01272
1.80712 5.25012
1.98562 4.51045
2.16411 4.75025
2.34263 5.05794
2.52115 6.7273
2.69965 7.33231
2.87818 8.62637
3.05672 11.0743
3.23527 14.8808
3.4138 18.9666
3.59237 24.0769
3.77094 26.1086
3.9495 30.1419
4.12809 35.5204
4.30669 188.827
4.4853 63.1964
4.6639 56.795
4.84253 68.6336
5.02118 90.0044
5.19981 479.401
5.37848 225.868
5.55716 105.996
5.73586 95.5189
5.91455 99.5594
6.09328 3999.79
6.27201 86.8581
6.45075 69.4194
6.62952 64.2954
6.8083 60.4323
6.98711 56.8145
7.16591 56.4291
7.34475 87.0202
7.5236 55.9801
7.70247 57.4428
7.88135 59.1498
8.06026 63.8934
8.23919 71.2688
8.41812 88.0433
8.59709 1169.56
8.77609 105.028
8.9551 93.6281
9.13412 84.4348
9.31318 85.5263
9.49226 86.9955
9.67134 99.7539
9.85047 103.011
10.0296 400.893
10.2088 512.663
10.388 108.568
10.5672 478.259
10.7465 89.5164
10.9257 80.2682
11.105 73.7565
11.2844 71.9118
11.4637 66.747
11.6431 65.0922
11.8225 63.9296
12.002 65.5052
12.1814 150.171
12.3609 72.3404
12.5405 66.2833
12.72 71.3318
12.8996 72.9825
13.0792 81.6192
13.2589 241.104
13.4386 140.855
13.6183 242.159
13.7981 106.784
13.9779 77.8564
14.1577 74.4865
14.3376 73.1064
14.5175 70.9572
14.6974 72.5785
14.8774 116.006
15.0574 161.877
15.2374 72.9186
15.4175 68.1604
15.5976 67.8612
15.7778 99.685
15.958 167.305
16.1382 64.2187
16.3185 59.9812
16.4988 57.2287
16.6792 56.0796
16.8596 56.5699
17.04 57.3771
17.2205 68.4845
17.401 74.8156
17.5815 60.7463
17.7622 63.0159
17.9428 77.3236
18.1237 136.001
18.3044 91.7403
18.4852 82.4432
18.666 62.0369
18.8469 59.7586
19.0278 58.5235
19.2088 61.6096
19.3898 76.2451
19.5709 55.9901
19.752 54.7474
19.9332 57.9027
20.1144 70.6072
20.2957 64.4646
20.477 55.9962
20.6586 51.1511
20.84 50.3353
21.0215 50.0596
21.203 51.9307
21.3846 50.3921
21.5662 50.2466
21.7479 54.4163
21.9297 65.2997
22.1115 57.0819
22.2933 51.6772
22.4753 50.2782
22.6572 50.4104
22.8393 53.5588
23.0214 58.8054
23.2037 50.2229
23.3859 51.2402
23.5682 57.1997
23.7505 50.1418
23.9329 46.4443
24.1154 45.3676
24.2979 44.625
24.4805 44.0504
24.6631 43.8922
24.8458 43.4765
25.0286 44.1091
25.2114 45.7675
25.3943 45.8235
25.5773 42.0784
25.7605 41.6717
25.9436 41.9402
26.1268 42.7021
26.31 41.2598
26.4933 41.9034
26.6767 43.233
26.8601 41.6575
27.0437 40.2074
27.2272 39.6725
27.4109 39.4323
27.5946 39.3904
27.7784 39.0533
27.9623 39.4685
28.1462 40.0149
28.3304 38.3147
28.5145 37.027
28.6987 36.5815
28.8829 36.4637
29.0673 35.6396
29.2517 35.2849
29.4361 35.0783
29.6207 34.119
29.8053 33.7774
29.99 33.4682
30.1748 33.3466
30.3597 33.2221
30.5447 33.0012
30.7297 32.9909
30.915 32.4444
31.1002 32.0504
31.2855 31.7535
31.4708 31.6304
31.6563 31.269
31.8418 30.8709
32.0275 30.766
32.2132 30.2444
32.399 29.6984
32.5848 29.2545
32.7708 28.8989
32.9569 28.8803
33.143 28.5393
33.3293 28.1396
33.5158 27.7808
33.7022 27.2996
33.8887 27.092
34.0753 26.641
34.262 26.2678
34.4488 26.0127
34.6357 25.6125
34.8227 25.3969
35.0098 25.1442
35.1969 24.8374
35.3842 24.6522
35.5716 24.413
35.759 24.1096
35.9468 23.7343
36.1345 23.5363
36.3222 23.3042
36.5101 23.0222
36.6981 22.7557
36.8861 22.4273
37.0743 22.0911
37.2626 21.8202
37.451 21.4618
37.6395 21.4042
37.8281 21.0654
38.0168 20.7931
38.2056 20.5088
38.3945 20.233
38.5837 19.9995
38.7728 19.6359
38.9621 19.4947
39.1514 19.2744
39.3409 18.979
39.5304 18.7607
39.7201 18.5179
39.9099 18.2786
40.0999 18.0337
40.2899 17.8278
40.48 17.5864
40.6703 17.3682
40.8607 17.1888
41.0512 16.8996
41.242 16.6609
41.4327 16.5379
41.6236 16.2327
41.8146 16.0967
42.0057 15.8573
42.1969 15.6114
42.3882 15.4473
42.5797 15.2132
42.7713 14.9952
42.963 14.8172
43.1549 14.6251
43.3468 14.3761
43.5389 14.1867
43.7312 13.987
43.9237 13.8056
44.1162 13.6775
44.3088 13.4311
44.5016 13.2135
44.6945 13.0427
44.8875 12.8848
45.0806 12.6978
45.2739 12.525
45.4673 12.3225
45.6609 12.1505
45.8546 12.0209
46.0484 11.8103
46.2424 11.6435
46.4365 11.4914
46.631 11.3347
46.8254 11.1389
47.0199 11.0108
47.2146 10.8473
47.4095 10.6484
47.6044 10.5114
47.7996 10.384
47.9948 10.2158
48.1902 10.0633
48.3858 9.90862
48.5815 9.79879
48.7774 9.63101
48.9734 9.50804
49.1696 9.32756
49.3661 9.23483
49.5626 9.0781
49.7592 8.91152
49.956 8.7655
50.153 8.66873
50.3501 8.53762
50.5474 8.36999
50.7448 8.23838
50.9424 8.14299
51.1402 8.04245
51.3381 7.85237
51.5362 7.73056
51.7344 7.61208
51.9328 7.4964
52.1316 7.33455
52.3304 7.23957
52.5293 7.12578
52.7284 7.01468
52.9276 6.89072
53.1271 6.77335
53.3267 6.66798
53.5265 6.56634
53.7264 6.42031
53.9266 6.35961
54.1269 6.19662
54.3274 6.07337
54.528 5.95955
54.7289 5.77431
54.9301 5.62716
55.1314 5.48927
55.3328 5.27615
55.5344 5.08045
55.7361 4.90771