Folder: NiFe_MOF_catalyst_paper/XRD (part 146)

File: Ni3Fe_FD0793.xy
TT I
1.27165 7.58575
1.45013 5.54795
1.62863 4.9095
1.80712 4.04742
1.98562 4.46553
2.16411 4.74664
2.34263 5.72193
2.52115 6.68727
2.69965 8.13704
2.87818 9.0112
3.05672 11.6262
3.23527 14.827
3.4138 18.661
3.59237 23.1386
3.77094 25.8474
3.9495 29.2508
4.12809 34.0127
4.30669 143.999
4.4853 57.8745
4.6639 54.7625
4.84253 66.9987
5.02118 86.1985
5.19981 367.304
5.37848 179.216
5.55716 100.611
5.73586 91.526
5.91455 93.5969
6.09328 4576.6
6.27201 80.0175
6.45075 67.3321
6.62952 61.924
6.8083 57.9526
6.98711 55.1265
7.16591 54.8324
7.34475 76.2304
7.5236 54.3313
7.70247 55.5625
7.88135 57.0669
8.06026 61.5478
8.23919 68.7092
8.41812 83.8452
8.59709 1205.88
8.77609 96.698
8.9551 88.6788
9.13412 81.6667
9.31318 82.4538
9.49226 84.0399
9.67134 94.6427
9.85047 99.275
10.0296 343.933
10.2088 343.923
10.388 103.404
10.5672 539.021
10.7465 84.9934
10.9257 77.0493
11.105 70.8067
11.2844 68.3767
11.4637 63.9671
11.6431 63.0199
11.8225 61.54
12.002 63.4457
12.1814 157.618
12.3609 67.0968
12.5405 63.6933
12.72 68.1422
12.8996 70.4832
13.0792 79.0114
13.2589 246.847
13.4386 117.205
13.6183 256.185
13.7981 92.3609
13.9779 74.8932
14.1577 71.3017
14.3376 70.0241
14.5175 68.0884
14.6974 69.7878
14.8774 111.327
15.0574 140.878
15.2374 69.3499
15.4175 65.6328
15.5976 65.0244
15.7778 94.8644
15.958 146.894
16.1382 61.2487
16.3185 57.619
16.4988 54.6547
16.6792 53.927
16.8596 54.4111
17.04 55.5028
17.2205 66.7632
17.401 68.7431
17.5815 58.5177
17.7622 60.7926
17.9428 73.3077
18.1237 141.731
18.3044 90.9951
18.4852 74.1427
18.666 59.5737
18.8469 57.3549
19.0278 56.1524
19.2088 58.7802
19.3898 75.7555
19.5709 53.5881
19.752 52.7397
19.9332 55.7188
20.1144 69.4546
20.2957 64.0612
20.477 52.4657
20.6586 49.1162
20.84 48.2142
21.0215 48.0659
21.203 50.5198
21.3846 48.2164
21.5662 48.4048
21.7479 52.2498
21.9297 64.2507
22.1115 55.8115
22.2933 49.135
22.4753 48.1152
22.6572 48.3808
22.8393 51.5124
23.0214 56.5604
23.2037 48.2155
23.3859 49.3747
23.5682 56.9769
23.7505 47.4339
23.9329 44.6716
24.1154 43.412
24.2979 43.067
24.4805 42.4709
24.6631 42.4423
24.8458 41.8709
25.0286 42.4443
25.2114 44.1362
25.3943 44.1333
25.5773 40.4885
25.7605 39.9828
25.9436 40.4619
26.1268 41.2936
26.31 39.6345
26.4933 40.4009
26.6767 41.7118
26.8601 40.0072
27.0437 38.4958
27.2272 38.1117
27.4109 38.0027
27.5946 38.1067
27.7784 37.5097
27.9623 38.2754
28.1462 38.5386
28.3304 36.6813
28.5145 35.5973
28.6987 35.2171
28.8829 35.0615
29.0673 34.2032
29.2517 33.9695
29.4361 33.8105
29.6207 32.7176
29.8053 32.602
29.99 32.2686
30.1748 32.1859
30.3597 31.9539
30.5447 31.8324
30.7297 31.8932
30.915 31.2183
31.1002 30.9405
31.2855 30.5867
31.4708 30.4475
31.6563 30.1188
31.8418 29.7801
32.0275 29.586
32.2132 29.1221
32.399 28.7114
32.5848 28.1645
32.7708 27.8309
32.9569 27.7621
33.143 27.4943
33.3293 27.2385
33.5158 26.7813
33.7022 26.3215
33.8887 26.0622
34.0753 25.6789
34.262 25.3848
34.4488 25.035
34.6357 24.6678
34.8227 24.4372
35.0098 24.2787
35.1969 23.8676
35.3842 23.7662
35.5716 23.574
35.759 23.2746
35.9468 22.9344
36.1345 22.7427
36.3222 22.4347
36.5101 22.1345
36.6981 21.8572
36.8861 21.6599
37.0743 21.2405
37.2626 21.0084
37.451 20.8005
37.6395 20.6435
37.8281 20.2536
38.0168 19.9613
38.2056 19.7428
38.3945 19.4885
38.5837 19.219
38.7728 19.0001
38.9621 18.7636
39.1514 18.4844
39.3409 18.2523
39.5304 18.0173
39.7201 17.831
39.9099 17.7221
40.0999 17.4356
40.2899 17.1723
40.48 16.9521
40.6703 16.746
40.8607 16.4925
41.0512 16.2855
41.242 16.0814
41.4327 15.9206
41.6236 15.6546
41.8146 15.51
42.0057 15.258
42.1969 15.0662
42.3882 14.839
42.5797 14.6459
42.7713 14.463
42.963 14.2775
43.1549 14.0961
43.3468 13.8559
43.5389 13.7123
43.7312 13.5093
43.9237 13.3201
44.1162 13.0646
44.3088 12.9787
44.5016 12.7341
44.6945 12.5964
44.8875 12.4626
45.0806 12.2372
45.2739 12.0924
45.4673 11.897
45.6609 11.7311
45.8546 11.6384
46.0484 11.4215
46.2424 11.2342
46.4365 11.0423
46.631 10.8897
46.8254 10.7563
47.0199 10.5798
47.2146 10.4397
47.4095 10.2526
47.6044 10.1181
47.7996 9.9743
47.9948 9.85844
48.1902 9.6844
48.3858 9.55215
48.5815 9.43084
48.7774 9.29734
48.9734 9.1704
49.1696 8.98881
49.3661 8.85201
49.5626 8.72632
49.7592 8.58669
49.956 8.50378
50.153 8.32169
50.3501 8.2164
50.5474 8.08322
50.7448 7.94782
50.9424 7.85898
51.1402 7.75502
51.3381 7.61373
51.5362 7.49765
51.7344 7.37526
51.9328 7.21481
52.1316 7.10276
52.3304 7.03619
52.5293 6.88062
52.7284 6.71716
52.9276 6.64948
53.1271 6.58298
53.3267 6.4375
53.5265 6.31583
53.7264 6.21065
53.9266 6.08384
54.1269 5.99214
54.3274 5.84287
54.528 5.7738
54.7289 5.62171
54.9301 5.41725
55.1314 5.27665
55.3328 5.17575
55.5344 4.91618
55.7361 4.76435

File: Ni3Fe_FD0794.xy
TT I
1.27165 7.25865
1.45013 5.86494
1.62863 5.42605
1.80712 4.8525
1.98562 4.85792
2.16411 4.95063
2.34263 6.49453
2.52115 7.51564
2.69965 7.77362
2.87818 8.82308
3.05672 11.3005
3.23527 15.2245
3.4138 18.8507
3.59237 23.0758
3.77094 25.829
3.9495 29.9752
4.12809 34.345
4.30669 140.711
4.4853 57.656
4.6639 55.0153
4.84253 67.7735
5.02118 86.661
5.19981 369.633
5.37848 179.696
5.55716 101.329
5.73586 91.7305
5.91455 94.121
6.09328 4542.01
6.27201 80.2155
6.45075 67.3896
6.62952 62.1562
6.8083 58.1571
6.98711 55.0312
7.16591 55.0733
7.34475 75.6638
7.5236 54.0788
7.70247 55.7856
7.88135 57.3642
8.06026 61.8399
8.23919 68.8599
8.41812 84.0727
8.59709 1205.67
8.77609 97.1461
8.9551 88.7788
9.13412 81.8246
9.31318 82.6448
9.49226 84.1771
9.67134 95.046
9.85047 99.0359
10.0296 345.366
10.2088 344.312
10.388 103.802
10.5672 538.025
10.7465 85.7699
10.9257 77.2912
11.105 70.9636
11.2844 68.4252
11.4637 64.181
11.6431 62.8065
11.8225 62.1313
12.002 63.4032
12.1814 157.39
12.3609 67.0144
12.5405 63.9979
12.72 67.9677
12.8996 70.5085
13.0792 79.0499
13.2589 246.695
13.4386 117.174
13.6183 257.093
13.7981 92.6868
13.9779 75.1262
14.1577 71.4894
14.3376 70.0763
14.5175 68.2134
14.6974 69.8305
14.8774 111.442
15.0574 140.414
15.2374 69.5224
15.4175 65.6956
15.5976 65.287
15.7778 94.6227
15.958 146.785
16.1382 61.1391
16.3185 57.5208
16.4988 54.7914
16.6792 53.7391
16.8596 54.4654
17.04 55.4608
17.2205 66.9077
17.401 68.8581
17.5815 58.546
17.7622 60.7476
17.9428 73.1697
18.1237 141.3
18.3044 91.1171
18.4852 73.9801
18.666 59.7196
18.8469 57.4444
19.0278 56.2679
19.2088 58.7196
19.3898 75.6618
19.5709 53.5192
19.752 53.0502
19.9332 55.4859
20.1144 69.5584
20.2957 63.9571
20.477 52.491
20.6586 49.2929
20.84 48.3202
21.0215 48.1001
21.203 50.3935
21.3846 48.3367
21.5662 48.3906
21.7479 52.3647
21.9297 64.2926
22.1115 55.9173
22.2933 49.1009
22.4753 48.2954
22.6572 48.3465
22.8393 51.6155
23.0214 56.4574
23.2037 48.2445
23.3859 49.3644
23.5682 57.0539
23.7505 47.3427
23.9329 44.6972
24.1154 43.6391
24.2979 42.9905
24.4805 42.6617
24.6631 42.3725
24.8458 41.8145
25.0286 42.4263
25.2114 44.0951
25.3943 44.1172
25.5773 40.5406
25.7605 40.034
25.9436 40.4403
26.1268 41.4029
26.31 39.6034
26.4933 40.41
26.6767 41.7964
26.8601 40.009
27.0437 38.4553
27.2272 38.1895
27.4109 37.9449
27.5946 38.1041
27.7784 37.5776
27.9623 38.0816
28.1462 38.3995
28.3304 36.6731
28.5145 35.5351
28.6987 35.2673
28.8829 35.0816
29.0673 34.247
29.2517 33.9434
29.4361 33.7376
29.6207 32.7747
29.8053 32.4924
29.99 32.2556
30.1748 32.0523
30.3597 31.9214
30.5447 31.8607
30.7297 31.9501
30.915 31.2395
31.1002 30.8848
31.2855 30.5345
31.4708 30.455
31.6563 29.94
31.8418 29.79
32.0275 29.6173
32.2132 28.9685
32.399 28.6192
32.5848 28.2427
32.7708 27.8489
32.9569 27.7832
33.143 27.5247
33.3293 27.0775
33.5158 26.7559
33.7022 26.2838
33.8887 26.0305
34.0753 25.7006
34.262 25.465
34.4488 25.0186
34.6357 24.6954
34.8227 24.4665
35.0098 24.2507
35.1969 23.916
35.3842 23.713
35.5716 23.5506
35.759 23.1457
35.9468 22.8418
36.1345 22.7022
36.3222 22.391
36.5101 22.2311
36.6981 21.8454
36.8861 21.5655
37.0743 21.3345
37.2626 21.0588
37.451 20.7906
37.6395 20.5952
37.8281 20.3228
38.0168 19.978
38.2056 19.7437
38.3945 19.4309
38.5837 19.2308
38.7728 18.9896
38.9621 18.7322
39.1514 18.5368
39.3409 18.2852
39.5304 18.0879
39.7201 17.8408
39.9099 17.6303
40.0999 17.4052
40.2899 17.239
40.48 16.9224
40.6703 16.7416
40.8607 16.5706
41.0512 16.3297
41.242 16.0829
41.4327 15.8741
41.6236 15.6619
41.8146 15.5252
42.0057 15.2585
42.1969 15.0541
42.3882 14.9122
42.5797 14.6102
42.7713 14.4462
42.963 14.24
43.1549 14.1099
43.3468 13.8676
43.5389 13.7007
43.7312 13.5327
43.9237 13.3495
44.1162 13.1214
44.3088 13.0035
44.5016 12.8038
44.6945 12.6156
44.8875 12.4219
45.0806 12.2186
45.2739 12.1128
45.4673 11.9058
45.6609 11.7627
45.8546 11.5793
46.0484 11.4285
46.2424 11.2608
46.4365 11.1165
46.631 10.9396
46.8254 10.7488
47.0199 10.5934
47.2146 10.447
47.4095 10.2898
47.6044 10.1557
47.7996 9.94639
47.9948 9.80954
48.1902 9.7022
48.3858 9.54896
48.5815 9.44472
48.7774 9.29832
48.9734 9.14155
49.1696 9.00634
49.3661 8.84609
49.5626 8.70458
49.7592 8.61057
49.956 8.4695
50.153 8.40452
50.3501 8.22941
50.5474 8.07441
50.7448 7.98318
50.9424 7.84983
51.1402 7.71859
51.3381 7.61305
51.5362 7.48071
51.7344 7.35241
51.9328 7.20924
52.1316 7.10974
52.3304 6.97319
52.5293 6.88665
52.7284 6.73662
52.9276 6.67561
53.1271 6.52266
53.3267 6.40883
53.5265 6.28787
53.7264 6.21731
53.9266 6.12579
54.1269 5.98483
54.3274 5.86863
54.528 5.74308
54.7289 5.60222
54.9301 5.45898
55.1314 5.34096
55.3328 5.10775
55.5344 4.92178
55.7361 4.78901

File: Ni3Fe_FD0795.xy
TT I
1.27165 7.48751
1.45013 5.84802
1.62863 5.28957
1.80712 4.89535
1.98562 4.80017
2.16411 4.60883
2.34263 5.33799
2.52115 7.18556
2.69965 7.85485
2.87818 9.07203
3.05672 10.842
3.23527 14.769
3.4138 18.4454
3.59237 23.5465
3.77094 25.805
3.9495 29.1648
4.12809 34.0897
4.30669 139.618
4.4853 57.2997
4.6639 55.086
4.84253 66.7233
5.02118 86.5599
5.19981 369.697
5.37848 179.474
5.55716 100.737
5.73586 91.4521
5.91455 93.5512
6.09328 4569.32
6.27201 80.0201
6.45075 67.7802
6.62952 61.9502
6.8083 57.8494
6.98711 55.0395
7.16591 54.7921
7.34475 75.6409
7.5236 54.0575
7.70247 55.9775
7.88135 57.3712
8.06026 61.6865
8.23919 68.5737
8.41812 83.4918
8.59709 1213.09
8.77609 96.7676
8.9551 88.4832
9.13412 81.7758
9.31318 82.5734
9.49226 83.8003
9.67134 94.6364
9.85047 99.607
10.0296 341.387
10.2088 344.0
10.388 103.296
10.5672 541.133
10.7465 84.9277
10.9257 76.6333
11.105 70.6348
11.2844 68.3845
11.4637 64.2305
11.6431 62.8274
11.8225 61.8208
12.002 63.293
12.1814 158.31
12.3609 67.136
12.5405 63.3587
12.72 67.8702
12.8996 70.4112
13.0792 78.7206
13.2589 245.244
13.4386 117.639
13.6183 254.844
13.7981 92.9681
13.9779 74.8752
14.1577 71.1896
14.3376 69.7139
14.5175 68.1071
14.6974 69.8924
14.8774 110.791
15.0574 142.315
15.2374 69.0923
15.4175 65.6629
15.5976 65.1622
15.7778 94.2835
15.958 147.47
16.1382 61.0575
16.3185 57.3761
16.4988 54.7003
16.6792 53.8666
16.8596 54.4259
17.04 55.0289
17.2205 66.4888
17.401 69.1818
17.5815 58.5426
17.7622 60.4418
17.9428 73.0894
18.1237 142.151
18.3044 90.8237
18.4852 74.225
18.666 59.5093
18.8469 57.4747
19.0278 56.0188
19.2088 58.6367
19.3898 76.0645
19.5709 53.3094
19.752 52.5782
19.9332 55.6237
20.1144 69.4018
20.2957 63.8425
20.477 52.5123
20.6586 49.1223
20.84 48.1628
21.0215 48.0907
21.203 50.3988
21.3846 48.4049
21.5662 48.3451
21.7479 52.1514
21.9297 64.4863
22.1115 55.7366
22.2933 49.0132
22.4753 48.0422
22.6572 48.309
22.8393 51.4329
23.0214 56.7568
23.2037 48.2185
23.3859 49.1783
23.5682 57.111
23.7505 47.3859
23.9329 44.7193
24.1154 43.612
24.2979 42.998
24.4805 42.3145
24.6631 42.4531
24.8458 41.7134
25.0286 42.3999
25.2114 44.168
25.3943 44.0932
25.5773 40.4336
25.7605 39.9185
25.9436 40.4084
26.1268 41.4292
26.31 39.6646
26.4933 40.2618
26.6767 41.6794
26.8601 40.0099
27.0437 38.5472
27.2272 38.1195
27.4109 38.0805
27.5946 38.0467
27.7784 37.4188
27.9623 38.1416
28.1462 38.4411
28.3304 36.6416
28.5145 35.6069
28.6987 35.202
28.8829 34.9663
29.0673 34.16
29.2517 33.9711
29.4361 33.6876
29.6207 32.7946
29.8053 32.4462
29.99 32.1932
30.1748 32.1205
30.3597 31.9374
30.5447 31.8804
30.7297 31.8749
30.915 31.2738
31.1002 30.7492
31.2855 30.5933
31.4708 30.4183
31.6563 30.1019
31.8418 29.8782
32.0275 29.6175
32.2132 29.0992
32.399 28.6816
32.5848 28.2702
32.7708 27.7935
32.9569 27.7678
33.143 27.4581
33.3293 27.0657
33.5158 26.7014
33.7022 26.2485
33.8887 26.0814
34.0753 25.71
34.262 25.4457
34.4488 25.0868
34.6357 24.7669
34.8227 24.4026
35.0098 24.2341
35.1969 23.9546
35.3842 23.8011
35.5716 23.5334
35.759 23.1946
35.9468 22.9392
36.1345 22.661
36.3222 22.3818
36.5101 22.1708
36.6981 21.8998
36.8861 21.5742
37.0743 21.2487
37.2626 20.9734
37.451 20.8053
37.6395 20.5857
37.8281 20.3349
38.0168 19.9937
38.2056 19.7288
38.3945 19.4666
38.5837 19.2795
38.7728 18.9588
38.9621 18.8026
39.1514 18.4809
39.3409 18.235
39.5304 17.986
39.7201 17.8693
39.9099 17.6383
40.0999 17.333
40.2899 17.1516
40.48 16.8958
40.6703 16.717
40.8607 16.5541
41.0512 16.3212
41.242 16.0887
41.4327 15.8903
41.6236 15.6474
41.8146 15.4706
42.0057 15.2382
42.1969 15.0713
42.3882 14.9059
42.5797 14.676
42.7713 14.5101
42.963 14.3055
43.1549 14.0549
43.3468 13.9433
43.5389 13.6891
43.7312 13.5256
43.9237 13.3274
44.1162 13.0724
44.3088 12.9434
44.5016 12.8026
44.6945 12.6278
44.8875 12.4257
45.0806 12.2597
45.2739 12.0636
45.4673 11.8797
45.6609 11.7439
45.8546 11.5789
46.0484 11.4493
46.2424 11.2582
46.4365 11.0888
46.631 10.9356
46.8254 10.7321
47.0199 10.5865
47.2146 10.4554
47.4095 10.3024
47.6044 10.1445
47.7996 9.9631
47.9948 9.85547
48.1902 9.71125
48.3858 9.53489
48.5815 9.43613
48.7774 9.27635
48.9734 9.11953
49.1696 8.98437
49.3661 8.83805
49.5626 8.69235
49.7592 8.5969
49.956 8.45426
50.153 8.3593
50.3501 8.22419
50.5474 8.08977
50.7448 7.95192
50.9424 7.87564
51.1402 7.714
51.3381 7.61021
51.5362 7.46928
51.7344 7.36163
51.9328 7.22725
52.1316 7.09091
52.3304 7.00208
52.5293 6.88813
52.7284 6.78924
52.9276 6.65813
53.1271 6.58011
53.3267 6.41708
53.5265 6.31972
53.7264 6.2256
53.9266 6.12747
54.1269 5.99914
54.3274 5.88565
54.528 5.74042
54.7289 5.60466
54.9301 5.41119
55.1314 5.28357
55.3328 5.11403
55.5344 4.90925
55.7361 4.73911

File: Ni3Fe_FD0796.xy
TT I
1.27165 6.86761
1.45013 6.16431
1.62863 5.07534
1.80712 5.06653
1.98562 4.60542
2.16411 5.27992
2.34263 5.6751
2.52115 7.58763
2.69965 8.4273
2.87818 8.87071
3.05672 11.3083
3.23527 14.9898
3.4138 18.4178
3.59237 23.1008
3.77094 25.94
3.9495 29.6294
4.12809 34.2181
4.30669 136.144
4.4853 57.4
4.6639 55.0655
4.84253 67.3298
5.02118 86.7855
5.19981 373.489
5.37848 180.126
5.55716 100.475
5.73586 91.6215
5.91455 94.0761
6.09328 4576.29
6.27201 80.4066
6.45075 67.2452
6.62952 62.0206
6.8083 58.239
6.98711 55.1779
7.16591 55.219
7.34475 74.3546
7.5236 54.0459
7.70247 55.7429
7.88135 57.3136
8.06026 62.0941
8.23919 68.7984
8.41812 83.6788
8.59709 1210.94
8.77609 97.036
8.9551 88.814
9.13412 81.7279
9.31318 82.9531
9.49226 84.1287
9.67134 94.5999
9.85047 99.8422
10.0296 344.867
10.2088 341.779
10.388 103.782
10.5672 542.944
10.7465 85.4494
10.9257 77.3526
11.105 70.8441
11.2844 68.5225
11.4637 64.2155
11.6431 62.8272
11.8225 61.7952
12.002 63.6029
12.1814 157.796
12.3609 67.0481
12.5405 64.0055
12.72 67.9482
12.8996 70.3728
13.0792 79.3873
13.2589 247.729
13.4386 116.989
13.6183 256.679
13.7981 92.4323
13.9779 75.0816
14.1577 71.273
14.3376 69.8048
14.5175 68.1139
14.6974 69.9272
14.8774 111.233
15.0574 140.844
15.2374 69.1918
15.4175 65.5881
15.5976 65.3116
15.7778 94.8097
15.958 146.033
16.1382 60.8917
16.3185 57.5174
16.4988 54.7566
16.6792 53.7448
16.8596 54.4305
17.04 55.4898
17.2205 66.7814
17.401 68.7934
17.5815 58.5793
17.7622 60.7265
17.9428 73.1471
18.1237 141.641
18.3044 91.2721
18.4852 74.0289
18.666 59.6039
18.8469 57.6115
19.0278 56.2697
19.2088 58.7541
19.3898 75.7733
19.5709 53.6018
19.752 52.736
19.9332 55.7024
20.1144 69.6792
20.2957 64.1252
20.477 52.2104
20.6586 49.0502
20.84 48.2631
21.0215 48.1026
21.203 50.5338
21.3846 48.3333
21.5662 48.5035
21.7479 52.2929
21.9297 64.2361
22.1115 55.795
22.2933 49.1153
22.4753 48.246
22.6572 48.4035
22.8393 51.578
23.0214 56.6183
23.2037 48.3159
23.3859 49.3656
23.5682 56.9902
23.7505 47.3337
23.9329 44.7298
24.1154 43.6182
24.2979 42.9787
24.4805 42.495
24.6631 42.5245
24.8458 41.8948
25.0286 42.5664
25.2114 44.3312
25.3943 44.0474
25.5773 40.4712
25.7605 40.1153
25.9436 40.4933
26.1268 41.2196
26.31 39.6728
26.4933 40.2924
26.6767 41.7708
26.8601 39.9867
27.0437 38.5985
27.2272 38.1448
27.4109 38.0613
27.5946 38.0422
27.7784 37.4161
27.9623 37.996
28.1462 38.4218
28.3304 36.7659
28.5145 35.5229
28.6987 35.1551
28.8829 35.1564
29.0673 34.3195
29.2517 34.0053
29.4361 33.8131
29.6207 32.8675
29.8053 32.5138
29.99 32.2515
30.1748 32.1251
30.3597 31.898
30.5447 31.9781
30.7297 31.931
30.915 31.2481
31.1002 30.8693
31.2855 30.5877
31.4708 30.5805
31.6563 30.0104
31.8418 29.8105
32.0275 29.6548
32.2132 29.0194
32.399 28.6447
32.5848 28.1831
32.7708 27.8937
32.9569 27.7527
33.143 27.5593
33.3293 27.1259
33.5158 26.7116
33.7022 26.2911
33.8887 26.1246
34.0753 25.8065
34.262 25.3058
34.4488 25.085
34.6357 24.6659
34.8227 24.5069
35.0098 24.2644
35.1969 23.9925
35.3842 23.7081
35.5716 23.5078
35.759 23.2006
35.9468 22.9429
36.1345 22.6443
36.3222 22.4277
36.5101 22.2058
36.6981 21.8565
36.8861 21.604
37.0743 21.2878
37.2626 21.0782
37.451 20.7643
37.6395 20.6219
37.8281 20.2621
38.0168 19.9473
38.2056 19.7904
38.3945 19.4831
38.5837 19.2504
38.7728 19.025
38.9621 18.776
39.1514 18.5546
39.3409 18.2351
39.5304 18.1024
39.7201 17.8546
39.9099 17.6943
40.0999 17.4055
40.2899 17.1919
40.48 16.9292
40.6703 16.7219
40.8607 16.5464
41.0512 16.32
41.242 16.0844
41.4327 15.8941
41.6236 15.6811
41.8146 15.4924
42.0057 15.2901
42.1969 15.0692
42.3882 14.8885
42.5797 14.6605
42.7713 14.4927
42.963 14.276
43.1549 14.1317
43.3468 13.8689
43.5389 13.6984
43.7312 13.4831
43.9237 13.3193
44.1162 13.1167
44.3088 12.9368
44.5016 12.7547
44.6945 12.622
44.8875 12.4087
45.0806 12.2011
45.2739 12.0866
45.4673 11.9552
45.6609 11.7434
45.8546 11.5704
46.0484 11.4264
46.2424 11.2253
46.4365 11.0947
46.631 10.9188
46.8254 10.7082
47.0199 10.6062
47.2146 10.4575
47.4095 10.3024
47.6044 10.1429
47.7996 9.98488
47.9948 9.81311
48.1902 9.71349
48.3858 9.54892
48.5815 9.44866
48.7774 9.27239
48.9734 9.15103
49.1696 8.96582
49.3661 8.85977
49.5626 8.71769
49.7592 8.58985
49.956 8.47954
50.153 8.35832
50.3501 8.20744
50.5474 8.11803
50.7448 8.01289
50.9424 7.8625
51.1402 7.70545
51.3381 7.62193
51.5362 7.42979
51.7344 7.34025
51.9328 7.23675
52.1316 7.08259
52.3304 7.00652
52.5293 6.86982
52.7284 6.79522
52.9276 6.67182
53.1271 6.58056
53.3267 6.44625
53.5265 6.32495
53.7264 6.18805
53.9266 6.11136
54.1269 6.00319
54.3274 5.88759
54.528 5.73186
54.7289 5.57226
54.9301 5.40175
55.1314 5.32558
55.3328 5.0827
55.5344 4.89038
55.7361 4.76553

File: Ni3Fe_FD0797.xy
TT I
1.27165 6.9098
1.45013 6.0342
1.62863 5.46294
1.80712 4.76313
1.98562 4.81105
2.16411 5.08859
2.34263 5.2581
2.52115 7.04335
2.69965 8.21523
2.87818 9.01538
3.05672 11.2901
3.23527 14.9329
3.4138 18.5408
3.59237 23.0733
3.77094 25.5753
3.9495 29.5833
4.12809 33.9346
4.30669 135.118
4.4853 57.1233
4.6639 55.1438
4.84253 66.8957
5.02118 86.0477
5.19981 375.558
5.37848 180.367
5.55716 101.157
5.73586 91.8131
5.91455 94.2029
6.09328 4560.77
6.27201 79.9987
6.45075 67.6996
6.62952 62.1955
6.8083 58.4246
6.98711 54.8056
7.16591 55.3134
7.34475 73.9505
7.5236 54.0441
7.70247 55.9407
7.88135 57.1373
8.06026 61.8058
8.23919 68.5279
8.41812 83.6793
8.59709 1213.73
8.77609 97.122
8.9551 88.7451
9.13412 81.5017
9.31318 83.1449
9.49226 84.0515
9.67134 94.9518
9.85047 99.8652
10.0296 343.73
10.2088 340.232
10.388 103.714
10.5672 537.51
10.7465 85.3236
10.9257 77.4699
11.105 70.8374
11.2844 68.4513
11.4637 64.2856
11.6431 63.1365
11.8225 61.8482
12.002 63.6636
12.1814 157.498
12.3609 66.9564
12.5405 64.039
12.72 67.9969
12.8996 70.0765
13.0792 78.9692
13.2589 246.926
13.4386 117.044
13.6183 256.473
13.7981 92.8624
13.9779 75.0618
14.1577 71.2498
14.3376 69.9663
14.5175 67.988
14.6974 69.7971
14.8774 111.297
15.0574 141.138
15.2374 69.0732
15.4175 65.822
15.5976 65.2036
15.7778 94.7455
15.958 146.116
16.1382 60.9819
16.3185 57.4607
16.4988 54.9885
16.6792 53.8266
16.8596 54.3643
17.04 55.4044
17.2205 66.8389
17.401 69.0991
17.5815 58.746
17.7622 60.5977
17.9428 73.204
18.1237 141.462
18.3044 91.2762
18.4852 73.8099
18.666 59.6647
18.8469 57.4805
19.0278 56.3363
19.2088 58.7061
19.3898 75.9604
19.5709 53.5694
19.752 52.5766
19.9332 55.7961
20.1144 69.7638
20.2957 64.0088
20.477 52.4688
20.6586 49.0216
20.84 48.3838
21.0215 48.0908
21.203 50.4814
21.3846 48.3283
21.5662 48.3108
21.7479 52.2676
21.9297 64.2258
22.1115 55.7087
22.2933 49.0169
22.4753 48.2996
22.6572 48.4948
22.8393 51.6102
23.0214 56.5585
23.2037 48.213
23.3859 49.2412
23.5682 57.1678
23.7505 47.7001
23.9329 44.8681
24.1154 43.7273
24.2979 42.8827
24.4805 42.5924
24.6631 42.3554
24.8458 41.7096
25.0286 42.4974
25.2114 44.3146
25.3943 44.0733
25.5773 40.3716
25.7605 39.9527
25.9436 40.5543
26.1268 41.2332
26.31 39.6252
26.4933 40.2258
26.6767 41.738
26.8601 39.9568
27.0437 38.4816
27.2272 38.0023
27.4109 38.0569
27.5946 38.0169
27.7784 37.5867
27.9623 38.0826
28.1462 38.3976
28.3304 36.7531
28.5145 35.622
28.6987 35.3129
28.8829 35.0247
29.0673 34.1749
29.2517 33.9188
29.4361 33.7548
29.6207 32.6623
29.8053 32.6162
29.99 32.159
30.1748 32.1114
30.3597 31.9242
30.5447 31.846
30.7297 31.8702
30.915 31.3309
31.1002 30.8287
31.2855 30.5624
31.4708 30.4987
31.6563 30.0669
31.8418 29.8111
32.0275 29.5649
32.2132 29.0658
32.399 28.6877
32.5848 28.1642
32.7708 27.8806
32.9569 27.6857
33.143 27.5456
33.3293 27.2009
33.5158 26.7654
33.7022 26.3675
33.8887 26.0011
34.0753 25.5992
34.262 25.4161
34.4488 25.0264
34.6357 24.6872
34.8227 24.4798
35.0098 24.2556
35.1969 23.9485
35.3842 23.7831
35.5716 23.5304
35.759 23.1952
35.9468 22.8439
36.1345 22.6765
36.3222 22.4492
36.5101 22.1289
36.6981 21.8314
36.8861 21.5701
37.0743 21.214
37.2626 21.0397
37.451 20.7473
37.6395 20.5857
37.8281 20.2876
38.0168 19.986
38.2056 19.6991
38.3945 19.4582
38.5837 19.2116
38.7728 18.9996
38.9621 18.7221
39.1514 18.5205
39.3409 18.3169
39.5304 18.0324
39.7201 17.8661
39.9099 17.6562
40.0999 17.3502
40.2899 17.2552
40.48 16.9467
40.6703 16.7165
40.8607 16.5501
41.0512 16.3401
41.242 16.0936
41.4327 15.9197
41.6236 15.633
41.8146 15.4728
42.0057 15.2901
42.1969 15.0606
42.3882 14.903
42.5797 14.6827
42.7713 14.475
42.963 14.2978
43.1549 14.1341
43.3468 13.8804
43.5389 13.6921
43.7312 13.5079
43.9237 13.274
44.1162 13.0941
44.3088 12.9447
44.5016 12.7887
44.6945 12.6025
44.8875 12.4202
45.0806 12.2244
45.2739 12.1162
45.4673 11.8787
45.6609 11.7175
45.8546 11.5889
46.0484 11.405
46.2424 11.2145
46.4365 11.0949
46.631 10.8824
46.8254 10.6947
47.0199 10.5994
47.2146 10.4072
47.4095 10.2523
47.6044 10.1186
47.7996 9.9854
47.9948 9.79108
48.1902 9.70942
48.3858 9.53248
48.5815 9.43027
48.7774 9.28713
48.9734 9.09811
49.1696 8.98653
49.3661 8.88857
49.5626 8.72522
49.7592 8.63368
49.956 8.47812
50.153 8.32653
50.3501 8.20836
50.5474 8.09457
50.7448 7.94208
50.9424 7.89116
51.1402 7.73033
51.3381 7.59767
51.5362 7.47301
51.7344 7.34441
51.9328 7.22231
52.1316 7.09967
52.3304 6.98206
52.5293 6.87899
52.7284 6.76626
52.9276 6.64472
53.1271 6.5591
53.3267 6.44343
53.5265 6.3183
53.7264 6.2229
53.9266 6.10925
54.1269 6.00944
54.3274 5.87796
54.528 5.79062
54.7289 5.59868
54.9301 5.40387
55.1314 5.3026
55.3328 5.05894
55.5344 4.89445
55.7361 4.75443