Folder: NiFe_MOF_catalyst_paper/XRD (part 23)

File: Ni3Fe_FD0115.xy
TT I
1.27165 8.32673
1.45013 6.60415
1.62863 5.88255
1.80712 5.84419
1.98562 5.911
2.16411 4.30071
2.34263 4.72026
2.52115 3.73098
2.69965 4.58946
2.87818 7.6254
3.05672 10.8628
3.23527 14.9161
3.4138 18.8205
3.59237 21.571
3.77094 24.6316
3.9495 28.4298
4.12809 32.3476
4.30669 37.7362
4.4853 43.9781
4.6639 53.1
4.84253 66.0349
5.02118 92.0248
5.19981 608.051
5.37848 559.413
5.55716 109.444
5.73586 96.1548
5.91455 107.898
6.09328 2420.53
6.27201 91.8602
6.45075 66.5062
6.62952 59.3091
6.8083 55.1339
6.98711 52.7119
7.16591 51.7207
7.34475 51.7194
7.5236 56.9667
7.70247 53.6548
7.88135 55.5284
8.06026 60.256
8.23919 66.9643
8.41812 83.586
8.59709 816.427
8.77609 122.26
8.9551 84.7893
9.13412 80.7653
9.31318 89.9298
9.49226 83.0746
9.67134 87.8405
9.85047 98.1509
10.0296 568.463
10.2088 1104.1
10.388 104.889
10.5672 294.129
10.7465 92.3441
10.9257 75.2012
11.105 69.4912
11.2844 65.3908
11.4637 62.7657
11.6431 61.2944
11.8225 60.452
12.002 66.5593
12.1814 110.42
12.3609 78.2772
12.5405 62.6835
12.72 64.4609
12.8996 69.2844
13.0792 79.0714
13.2589 193.599
13.4386 233.433
13.6183 179.007
13.7981 167.977
13.9779 75.432
14.1577 74.9725
14.3376 68.0128
14.5175 67.7633
14.6974 69.1769
14.8774 120.311
15.0574 206.687
15.2374 68.5946
15.4175 65.5923
15.5976 64.8456
15.7778 107.579
15.958 182.156
16.1382 61.7858
16.3185 56.684
16.4988 54.6474
16.6792 53.3297
16.8596 53.7368
17.04 54.7362
17.2205 64.0896
17.401 81.315
17.5815 58.4848
17.7622 60.8492
17.9428 84.2425
18.1237 106.963
18.3044 87.5359
18.4852 97.4421
18.666 60.5887
18.8469 57.6467
19.0278 56.2658
19.2088 61.5401
19.3898 66.8509
19.5709 56.479
19.752 52.7858
19.9332 58.0142
20.1144 65.1658
20.2957 60.2112
20.477 59.6292
20.6586 49.5088
20.84 48.7038
21.0215 48.4546
21.203 48.9296
21.3846 50.2733
21.5662 48.6005
21.7479 53.5494
21.9297 60.2123
22.1115 55.8609
22.2933 52.8261
22.4753 48.3237
22.6572 48.6141
22.8393 51.251
23.0214 55.8399
23.2037 49.6221
23.3859 51.5305
23.5682 52.1938
23.7505 53.9804
23.9329 45.3157
24.1154 43.9951
24.2979 43.2079
24.4805 42.5011
24.6631 42.7375
24.8458 42.0914
25.0286 42.533
25.2114 44.0442
25.3943 44.1334
25.5773 41.5045
25.7605 40.2958
25.9436 40.5966
26.1268 40.9709
26.31 40.7189
26.4933 40.4173
26.6767 41.4069
26.8601 41.1238
27.0437 39.229
27.2272 38.6161
27.4109 38.3694
27.5946 38.3289
27.7784 38.337
27.9623 37.948
28.1462 38.97
28.3304 37.6389
28.5145 36.1512
28.6987 35.6277
28.8829 35.1765
29.0673 34.9402
29.2517 34.2193
29.4361 33.9556
29.6207 33.3293
29.8053 32.6761
29.99 32.4845
30.1748 32.2082
30.3597 32.3567
30.5447 32.0367
30.7297 32.0262
30.915 31.909
31.1002 31.2039
31.2855 30.8587
31.4708 30.4579
31.6563 30.5488
31.8418 30.1338
32.0275 29.9367
32.2132 29.3998
32.399 29.0044
32.5848 28.346
32.7708 28.1223
32.9569 27.9332
33.143 27.551
33.3293 27.3763
33.5158 27.0754
33.7022 26.5419
33.8887 26.1879
34.0753 26.0039
34.262 25.5354
34.4488 25.3031
34.6357 24.8792
34.8227 24.6232
35.0098 24.4393
35.1969 24.218
35.3842 23.8104
35.5716 23.7302
35.759 23.5145
35.9468 23.103
36.1345 22.8469
36.3222 22.671
36.5101 22.4239
36.6981 22.1367
36.8861 21.765
37.0743 21.4763
37.2626 21.1819
37.451 21.0325
37.6395 20.759
37.8281 20.4359
38.0168 20.182
38.2056 19.915
38.3945 19.6101
38.5837 19.4358
38.7728 19.1329
38.9621 18.9145
39.1514 18.6701
39.3409 18.3964
39.5304 18.2018
39.7201 18.008
39.9099 17.7836
40.0999 17.6039
40.2899 17.3745
40.48 17.0879
40.6703 16.9241
40.8607 16.7066
41.0512 16.4354
41.242 16.2695
41.4327 16.0878
41.6236 15.7733
41.8146 15.6343
42.0057 15.4192
42.1969 15.2189
42.3882 14.991
42.5797 14.7986
42.7713 14.5727
42.963 14.3422
43.1549 14.1982
43.3468 13.9788
43.5389 13.8242
43.7312 13.6113
43.9237 13.4341
44.1162 13.2554
44.3088 13.0658
44.5016 12.8627
44.6945 12.6465
44.8875 12.4929
45.0806 12.3512
45.2739 12.1736
45.4673 12.0086
45.6609 11.8307
45.8546 11.6555
46.0484 11.4711
46.2424 11.3323
46.4365 11.1619
46.631 10.9473
46.8254 10.8213
47.0199 10.7216
47.2146 10.5163
47.4095 10.3506
47.6044 10.2237
47.7996 10.0462
47.9948 9.89803
48.1902 9.78034
48.3858 9.65087
48.5815 9.49882
48.7774 9.38757
48.9734 9.21214
49.1696 9.06899
49.3661 8.93246
49.5626 8.80094
49.7592 8.70228
49.956 8.58862
50.153 8.45753
50.3501 8.30459
50.5474 8.13612
50.7448 8.04872
50.9424 7.93877
51.1402 7.80587
51.3381 7.68295
51.5362 7.55811
51.7344 7.44188
51.9328 7.27648
52.1316 7.18447
52.3304 7.06857
52.5293 6.96049
52.7284 6.80889
52.9276 6.69904
53.1271 6.61882
53.3267 6.50376
53.5265 6.34359
53.7264 6.2706
53.9266 6.15009
54.1269 6.08044
54.3274 5.8838
54.528 5.74883
54.7289 5.52803
54.9301 5.38004
55.1314 5.23703
55.3328 5.03373
55.5344 4.79996
55.7361 4.70322

File: Ni3Fe_FD0116.xy
TT I
1.27165 8.43982
1.45013 6.91652
1.62863 6.32975
1.80712 5.77875
1.98562 4.71582
2.16411 4.80518
2.34263 4.46883
2.52115 4.07946
2.69965 5.20919
2.87818 7.66938
3.05672 10.994
3.23527 15.2351
3.4138 18.5528
3.59237 21.2698
3.77094 24.8353
3.9495 27.8819
4.12809 32.6068
4.30669 37.6211
4.4853 44.5179
4.6639 52.9702
4.84253 65.7145
5.02118 91.7766
5.19981 606.392
5.37848 550.376
5.55716 109.096
5.73586 96.3011
5.91455 107.578
6.09328 2431.65
6.27201 91.446
6.45075 65.9937
6.62952 59.4455
6.8083 55.0348
6.98711 52.4822
7.16591 52.0152
7.34475 51.6034
7.5236 57.0498
7.70247 53.3221
7.88135 55.4835
8.06026 60.249
8.23919 67.2828
8.41812 83.8302
8.59709 817.014
8.77609 121.53
8.9551 85.0632
9.13412 81.2748
9.31318 89.6435
9.49226 82.8513
9.67134 87.681
9.85047 98.1101
10.0296 567.54
10.2088 1095.59
10.388 104.741
10.5672 295.204
10.7465 91.9043
10.9257 75.1691
11.105 69.7236
11.2844 65.7913
11.4637 62.3708
11.6431 61.4098
11.8225 60.6413
12.002 66.6808
12.1814 110.578
12.3609 77.9483
12.5405 62.4103
12.72 64.2905
12.8996 68.8656
13.0792 78.9251
13.2589 194.107
13.4386 233.551
13.6183 179.55
13.7981 167.673
13.9779 75.4053
14.1577 74.9706
14.3376 68.3447
14.5175 67.5931
14.6974 68.8703
14.8774 120.357
15.0574 206.148
15.2374 68.5868
15.4175 65.4462
15.5976 64.9163
15.7778 107.476
15.958 182.963
16.1382 61.7279
16.3185 56.7155
16.4988 54.3433
16.6792 53.4701
16.8596 53.5914
17.04 54.902
17.2205 64.0698
17.401 81.2114
17.5815 58.3131
17.7622 60.759
17.9428 84.1304
18.1237 107.489
18.3044 87.4389
18.4852 97.3614
18.666 60.5938
18.8469 57.6648
19.0278 55.9965
19.2088 61.6836
19.3898 66.9492
19.5709 56.527
19.752 52.9084
19.9332 57.8844
20.1144 65.1764
20.2957 59.981
20.477 59.7729
20.6586 49.4723
20.84 48.7398
21.0215 48.6049
21.203 49.1218
21.3846 50.241
21.5662 48.5947
21.7479 53.5747
21.9297 60.3371
22.1115 56.0208
22.2933 52.6673
22.4753 48.3986
22.6572 48.6177
22.8393 51.2916
23.0214 55.8762
23.2037 49.6527
23.3859 51.4906
23.5682 52.2983
23.7505 53.9563
23.9329 45.3865
24.1154 44.0182
24.2979 43.328
24.4805 42.5045
24.6631 42.661
24.8458 42.0864
25.0286 42.6732
25.2114 43.9651
25.3943 44.1757
25.5773 41.632
25.7605 40.4426
25.9436 40.6079
26.1268 41.0209
26.31 40.7118
26.4933 40.5662
26.6767 41.4599
26.8601 40.9543
27.0437 39.2723
27.2272 38.597
27.4109 38.1111
27.5946 38.3522
27.7784 38.2509
27.9623 38.0385
28.1462 38.9285
28.3304 37.6354
28.5145 35.9955
28.6987 35.6973
28.8829 35.1888
29.0673 34.986
29.2517 34.2452
29.4361 33.9328
29.6207 33.3436
29.8053 32.7548
29.99 32.5137
30.1748 32.2208
30.3597 32.3583
30.5447 32.0688
30.7297 32.0128
30.915 31.7952
31.1002 31.1986
31.2855 30.8909
31.4708 30.6606
31.6563 30.6273
31.8418 30.0987
32.0275 29.9119
32.2132 29.5683
32.399 28.9646
32.5848 28.4389
32.7708 28.0543
32.9569 27.9737
33.143 27.674
33.3293 27.3965
33.5158 27.1363
33.7022 26.5672
33.8887 26.2524
34.0753 25.9251
34.262 25.487
34.4488 25.3176
34.6357 24.9734
34.8227 24.5748
35.0098 24.4701
35.1969 24.0786
35.3842 23.8985
35.5716 23.7649
35.759 23.4915
35.9468 23.0918
36.1345 22.8019
36.3222 22.664
36.5101 22.348
36.6981 22.1213
36.8861 21.8205
37.0743 21.523
37.2626 21.1822
37.451 20.9451
37.6395 20.7562
37.8281 20.4295
38.0168 20.2058
38.2056 19.8715
38.3945 19.6954
38.5837 19.4202
38.7728 19.2163
38.9621 18.9479
39.1514 18.6616
39.3409 18.3828
39.5304 18.1739
39.7201 18.0958
39.9099 17.8315
40.0999 17.5789
40.2899 17.351
40.48 17.1276
40.6703 16.8305
40.8607 16.774
41.0512 16.524
41.242 16.2332
41.4327 16.0103
41.6236 15.7998
41.8146 15.6194
42.0057 15.4311
42.1969 15.1846
42.3882 14.9641
42.5797 14.8002
42.7713 14.5675
42.963 14.3974
43.1549 14.2223
43.3468 14.0011
43.5389 13.7645
43.7312 13.5931
43.9237 13.4011
44.1162 13.2294
44.3088 13.0307
44.5016 12.8731
44.6945 12.7347
44.8875 12.5229
45.0806 12.3123
45.2739 12.1369
45.4673 12.0201
45.6609 11.8692
45.8546 11.6463
46.0484 11.5
46.2424 11.3425
46.4365 11.1911
46.631 11.0098
46.8254 10.8395
47.0199 10.6413
47.2146 10.513
47.4095 10.3348
47.6044 10.1944
47.7996 10.0665
47.9948 9.91364
48.1902 9.77547
48.3858 9.57958
48.5815 9.50855
48.7774 9.36076
48.9734 9.27033
49.1696 9.10058
49.3661 8.9386
49.5626 8.81384
49.7592 8.7062
49.956 8.58477
50.153 8.43374
50.3501 8.31775
50.5474 8.17541
50.7448 8.07753
50.9424 7.93598
51.1402 7.79886
51.3381 7.67337
51.5362 7.54016
51.7344 7.43019
51.9328 7.29655
52.1316 7.15896
52.3304 7.07746
52.5293 6.96202
52.7284 6.79368
52.9276 6.7314
53.1271 6.61738
53.3267 6.48449
53.5265 6.34967
53.7264 6.24916
53.9266 6.13969
54.1269 6.01778
54.3274 5.91497
54.528 5.7483
54.7289 5.59399
54.9301 5.40325
55.1314 5.25713
55.3328 4.99095
55.5344 4.82453
55.7361 4.74991

File: Ni3Fe_FD0117.xy
TT I
1.27165 8.34833
1.45013 6.47817
1.62863 5.82186
1.80712 5.64543
1.98562 5.42766
2.16411 4.50997
2.34263 4.45155
2.52115 4.28915
2.69965 5.13516
2.87818 7.70651
3.05672 11.6428
3.23527 14.888
3.4138 18.6942
3.59237 21.7072
3.77094 24.6011
3.9495 28.1008
4.12809 32.5391
4.30669 37.5893
4.4853 44.2912
4.6639 53.0999
4.84253 65.8482
5.02118 91.8391
5.19981 601.889
5.37848 548.003
5.55716 108.846
5.73586 95.5226
5.91455 107.549
6.09328 2447.27
6.27201 91.7075
6.45075 66.3665
6.62952 59.3575
6.8083 55.0106
6.98711 52.9708
7.16591 51.7599
7.34475 51.1962
7.5236 56.3021
7.70247 53.7039
7.88135 55.6041
8.06026 60.0833
8.23919 67.2713
8.41812 83.9033
8.59709 819.111
8.77609 120.952
8.9551 84.8952
9.13412 80.735
9.31318 89.107
9.49226 82.8092
9.67134 87.7065
9.85047 98.1564
10.0296 565.913
10.2088 1096.37
10.388 104.384
10.5672 295.633
10.7465 92.0285
10.9257 75.1979
11.105 69.4593
11.2844 65.2688
11.4637 62.5271
11.6431 61.3067
11.8225 60.5934
12.002 66.6502
12.1814 110.906
12.3609 77.6767
12.5405 62.5668
12.72 64.5429
12.8996 68.8905
13.0792 78.6717
13.2589 194.041
13.4386 230.619
13.6183 179.823
13.7981 167.416
13.9779 75.487
14.1577 74.8177
14.3376 68.3672
14.5175 67.7325
14.6974 68.9339
14.8774 120.306
15.0574 205.002
15.2374 68.5645
15.4175 65.4309
15.5976 64.9175
15.7778 107.501
15.958 181.494
16.1382 61.5629
16.3185 56.6457
16.4988 54.4735
16.6792 53.4738
16.8596 53.6515
17.04 54.8147
17.2205 63.9728
17.401 81.1098
17.5815 58.4393
17.7622 60.7942
17.9428 84.1464
18.1237 107.481
18.3044 87.5637
18.4852 97.1839
18.666 60.3089
18.8469 57.5823
19.0278 56.1761
19.2088 61.3706
19.3898 66.9995
19.5709 56.3734
19.752 52.7447
19.9332 57.9615
20.1144 65.2539
20.2957 60.1644
20.477 59.4775
20.6586 49.3502
20.84 48.5931
21.0215 48.5373
21.203 49.0506
21.3846 50.2815
21.5662 48.5603
21.7479 53.6562
21.9297 60.3065
22.1115 55.9256
22.2933 52.5715
22.4753 48.4305
22.6572 48.6547
22.8393 51.154
23.0214 55.8828
23.2037 49.6462
23.3859 51.5212
23.5682 52.3845
23.7505 53.786
23.9329 45.3463
24.1154 44.0141
24.2979 43.1996
24.4805 42.6399
24.6631 42.6445
24.8458 42.1272
25.0286 42.554
25.2114 43.8083
25.3943 44.2022
25.5773 41.6068
25.7605 40.4353
25.9436 40.5577
26.1268 41.17
26.31 40.8279
26.4933 40.5599
26.6767 41.5023
26.8601 40.9289
27.0437 39.1406
27.2272 38.6907
27.4109 38.2274
27.5946 38.4449
27.7784 38.3693
27.9623 38.1135
28.1462 38.9281
28.3304 37.8115
28.5145 35.9721
28.6987 35.5733
28.8829 35.2315
29.0673 34.9305
29.2517 34.1754
29.4361 33.8668
29.6207 33.3021
29.8053 32.7477
29.99 32.4094
30.1748 32.3065
30.3597 32.3469
30.5447 32.0491
30.7297 31.951
30.915 31.7523
31.1002 31.3133
31.2855 30.8029
31.4708 30.6599
31.6563 30.6076
31.8418 30.1852
32.0275 29.887
32.2132 29.4577
32.399 28.9397
32.5848 28.3246
32.7708 28.0982
32.9569 27.9439
33.143 27.6556
33.3293 27.3454
33.5158 27.134
33.7022 26.55
33.8887 26.2018
34.0753 25.972
34.262 25.6073
34.4488 25.2884
34.6357 24.9745
34.8227 24.6657
35.0098 24.4646
35.1969 24.1395
35.3842 23.92
35.5716 23.7495
35.759 23.4177
35.9468 23.0081
36.1345 22.8634
36.3222 22.7113
36.5101 22.326
36.6981 22.1078
36.8861 21.773
37.0743 21.4914
37.2626 21.192
37.451 20.9897
37.6395 20.7718
37.8281 20.4524
38.0168 20.141
38.2056 19.9566
38.3945 19.6276
38.5837 19.4102
38.7728 19.0937
38.9621 18.8413
39.1514 18.5993
39.3409 18.3567
39.5304 18.1957
39.7201 18.037
39.9099 17.8137
40.0999 17.5226
40.2899 17.2818
40.48 17.11
40.6703 16.8721
40.8607 16.6691
41.0512 16.4515
41.242 16.1902
41.4327 16.0213
41.6236 15.797
41.8146 15.6062
42.0057 15.4112
42.1969 15.2388
42.3882 14.9866
42.5797 14.788
42.7713 14.6219
42.963 14.3836
43.1549 14.1744
43.3468 13.9834
43.5389 13.7883
43.7312 13.5941
43.9237 13.4451
44.1162 13.2376
44.3088 13.0309
44.5016 12.8605
44.6945 12.6558
44.8875 12.5003
45.0806 12.3039
45.2739 12.1662
45.4673 11.9817
45.6609 11.7939
45.8546 11.6609
46.0484 11.5107
46.2424 11.2936
46.4365 11.1938
46.631 10.9917
46.8254 10.8228
47.0199 10.6796
47.2146 10.5225
47.4095 10.3547
47.6044 10.1706
47.7996 10.0214
47.9948 9.89313
48.1902 9.77321
48.3858 9.65191
48.5815 9.51216
48.7774 9.38094
48.9734 9.25901
49.1696 9.056
49.3661 8.94977
49.5626 8.78177
49.7592 8.68608
49.956 8.53626
50.153 8.40616
50.3501 8.30682
50.5474 8.15971
50.7448 8.04319
50.9424 7.91727
51.1402 7.79634
51.3381 7.6525
51.5362 7.54725
51.7344 7.41796
51.9328 7.2565
52.1316 7.19241
52.3304 7.06342
52.5293 6.96185
52.7284 6.80493
52.9276 6.72764
53.1271 6.59843
53.3267 6.45168
53.5265 6.40365
53.7264 6.31447
53.9266 6.12376
54.1269 6.00686
54.3274 5.89459
54.528 5.70071
54.7289 5.56778
54.9301 5.41354
55.1314 5.29613
55.3328 5.003
55.5344 4.85951
55.7361 4.72683

File: Ni3Fe_FD0118.xy
TT I
1.27165 7.82461
1.45013 6.57813
1.62863 5.80232
1.80712 5.45771
1.98562 5.29753
2.16411 4.42319
2.34263 3.97141
2.52115 3.6159
2.69965 5.72872
2.87818 7.96599
3.05672 10.8839
3.23527 15.4801
3.4138 18.1892
3.59237 21.3642
3.77094 24.7499
3.9495 28.282
4.12809 32.6046
4.30669 37.1457
4.4853 44.4253
4.6639 53.0169
4.84253 65.8542
5.02118 90.8545
5.19981 596.393
5.37848 550.417
5.55716 108.753
5.73586 95.3478
5.91455 107.085
6.09328 2447.3
6.27201 91.2789
6.45075 66.2422
6.62952 59.4618
6.8083 55.2022
6.98711 53.0833
7.16591 51.7469
7.34475 51.2103
7.5236 56.5632
7.70247 53.4092
7.88135 55.4337
8.06026 59.8829
8.23919 67.147
8.41812 83.4221
8.59709 820.645
8.77609 121.563
8.9551 84.552
9.13412 80.4883
9.31318 88.7855
9.49226 82.3094
9.67134 87.7178
9.85047 97.846
10.0296 563.212
10.2088 1092.84
10.388 104.447
10.5672 296.708
10.7465 91.9687
10.9257 75.27
11.105 69.5633
11.2844 65.3642
11.4637 62.6397
11.6431 61.1533
11.8225 60.527
12.002 66.4773
12.1814 110.47
12.3609 77.5224
12.5405 62.3381
12.72 64.4517
12.8996 68.8177
13.0792 78.7868
13.2589 194.184
13.4386 231.217
13.6183 180.488
13.7981 171.081
13.9779 75.5298
14.1577 74.4648
14.3376 68.1238
14.5175 67.6171
14.6974 68.9499
14.8774 120.369
15.0574 205.725
15.2374 68.5801
15.4175 65.2764
15.5976 64.9189
15.7778 107.232
15.958 181.728
16.1382 61.6055
16.3185 56.6437
16.4988 54.4225
16.6792 53.529
16.8596 53.5895
17.04 54.7094
17.2205 63.8898
17.401 81.1264
17.5815 58.5374
17.7622 60.6728
17.9428 84.012
18.1237 107.65
18.3044 87.5898
18.4852 96.978
18.666 60.4433
18.8469 57.6132
19.0278 56.1288
19.2088 61.2566
19.3898 66.9247
19.5709 56.4817
19.752 52.8013
19.9332 57.9326
20.1144 65.1484
20.2957 60.1469
20.477 59.7266
20.6586 49.2285
20.84 48.4916
21.0215 48.5395
21.203 49.01
21.3846 50.2735
21.5662 48.4963
21.7479 53.5586
21.9297 60.453
22.1115 55.8082
22.2933 52.438
22.4753 48.3165
22.6572 48.5676
22.8393 51.425
23.0214 55.9839
23.2037 49.7262
23.3859 51.449
23.5682 52.1415
23.7505 53.8384
23.9329 45.236
24.1154 43.853
24.2979 43.2193
24.4805 42.4405
24.6631 42.7757
24.8458 42.0329
25.0286 42.4958
25.2114 44.069
25.3943 44.1963
25.5773 41.4306
25.7605 40.3499
25.9436 40.6867
26.1268 41.1668
26.31 40.6228
26.4933 40.487
26.6767 41.3012
26.8601 41.0025
27.0437 39.252
27.2272 38.5326
27.4109 38.2059
27.5946 38.3347
27.7784 38.1952
27.9623 38.0107
28.1462 38.8017
28.3304 37.7418
28.5145 36.0042
28.6987 35.523
28.8829 35.0438
29.0673 34.8704
29.2517 34.0753
29.4361 33.77
29.6207 33.3022
29.8053 32.7686
29.99 32.4561
30.1748 32.1489
30.3597 32.3185
30.5447 32.0033
30.7297 31.9112
30.915 31.7834
31.1002 31.1369
31.2855 30.7731
31.4708 30.6781
31.6563 30.6656
31.8418 29.9577
32.0275 29.762
32.2132 29.4186
32.399 28.8502
32.5848 28.348
32.7708 28.0504
32.9569 27.9644
33.143 27.6112
33.3293 27.3933
33.5158 27.0855
33.7022 26.4636
33.8887 26.225
34.0753 25.9378
34.262 25.5695
34.4488 25.2198
34.6357 24.8585
34.8227 24.606
35.0098 24.3775
35.1969 24.1244
35.3842 23.8523
35.5716 23.7321
35.759 23.4641
35.9468 23.0573
36.1345 22.8629
36.3222 22.6581
36.5101 22.3761
36.6981 22.0619
36.8861 21.7282
37.0743 21.4649
37.2626 21.1751
37.451 20.9216
37.6395 20.6938
37.8281 20.4327
38.0168 20.1236
38.2056 19.9102
38.3945 19.6094
38.5837 19.3497
38.7728 19.1128
38.9621 18.9104
39.1514 18.5775
39.3409 18.4215
39.5304 18.1408
39.7201 18.0412
39.9099 17.7414
40.0999 17.5051
40.2899 17.2548
40.48 17.0053
40.6703 16.8835
40.8607 16.6332
41.0512 16.4661
41.242 16.1859
41.4327 15.9996
41.6236 15.8026
41.8146 15.5819
42.0057 15.3151
42.1969 15.1216
42.3882 14.9777
42.5797 14.7439
42.7713 14.5835
42.963 14.3268
43.1549 14.1594
43.3468 13.946
43.5389 13.7927
43.7312 13.6142
43.9237 13.4511
44.1162 13.2314
44.3088 13.0535
44.5016 12.8517
44.6945 12.7066
44.8875 12.5
45.0806 12.3016
45.2739 12.1452
45.4673 11.9969
45.6609 11.8243
45.8546 11.6546
46.0484 11.4863
46.2424 11.3295
46.4365 11.1924
46.631 10.9834
46.8254 10.7945
47.0199 10.661
47.2146 10.5094
47.4095 10.3528
47.6044 10.2026
47.7996 10.0524
47.9948 9.86787
48.1902 9.74805
48.3858 9.63266
48.5815 9.50028
48.7774 9.35398
48.9734 9.21982
49.1696 9.07659
49.3661 8.9031
49.5626 8.77597
49.7592 8.63342
49.956 8.53983
50.153 8.4359
50.3501 8.30571
50.5474 8.15266
50.7448 8.01432
50.9424 7.94532
51.1402 7.78837
51.3381 7.65393
51.5362 7.57779
51.7344 7.38422
51.9328 7.29581
52.1316 7.13692
52.3304 7.06899
52.5293 6.93469
52.7284 6.85658
52.9276 6.69505
53.1271 6.64611
53.3267 6.45002
53.5265 6.35984
53.7264 6.26155
53.9266 6.17822
54.1269 6.03102
54.3274 5.87497
54.528 5.71832
54.7289 5.5707
54.9301 5.39626
55.1314 5.26421
55.3328 5.04215
55.5344 4.82338
55.7361 4.71526

File: Ni3Fe_FD0119.xy
TT I
1.27165 8.06419
1.45013 6.23452
1.62863 6.28371
1.80712 5.09441
1.98562 5.39718
2.16411 4.25224
2.34263 5.0123
2.52115 3.70733
2.69965 5.35417
2.87818 7.65433
3.05672 10.8732
3.23527 14.4694
3.4138 18.8379
3.59237 21.6078
3.77094 24.6743
3.9495 28.2838
4.12809 32.5264
4.30669 37.5008
4.4853 44.5161
4.6639 53.3469
4.84253 65.5477
5.02118 91.0511
5.19981 598.892
5.37848 545.457
5.55716 108.972
5.73586 95.4419
5.91455 107.091
6.09328 2467.16
6.27201 91.1558
6.45075 66.1196
6.62952 59.2375
6.8083 55.1032
6.98711 52.6581
7.16591 51.4683
7.34475 51.2359
7.5236 56.6777
7.70247 53.3959
7.88135 55.5828
8.06026 60.1381
8.23919 67.0598
8.41812 83.2921
8.59709 823.8
8.77609 120.817
8.9551 84.3739
9.13412 80.4345
9.31318 88.8339
9.49226 82.4126
9.67134 87.476
9.85047 97.9256
10.0296 563.611
10.2088 1081.97
10.388 104.315
10.5672 297.397
10.7465 91.4104
10.9257 75.1249
11.105 69.3482
11.2844 65.4384
11.4637 62.5833
11.6431 61.385
11.8225 60.4687
12.002 66.3445
12.1814 110.852
12.3609 77.3883
12.5405 62.6182
12.72 64.5597
12.8996 68.978
13.0792 78.2514
13.2589 194.428
13.4386 227.958
13.6183 180.681
13.7981 166.221
13.9779 75.3294
14.1577 74.6404
14.3376 68.241
14.5175 67.4482
14.6974 68.791
14.8774 120.087
15.0574 205.297
15.2374 68.6103
15.4175 65.4199
15.5976 64.9603
15.7778 107.121
15.958 181.138
16.1382 61.6094
16.3185 56.7131
16.4988 54.4388
16.6792 53.3614
16.8596 53.5093
17.04 54.7954
17.2205 64.0984
17.401 80.8713
17.5815 58.383
17.7622 60.8194
17.9428 84.0521
18.1237 107.945
18.3044 87.3877
18.4852 96.4617
18.666 60.4848
18.8469 57.5113
19.0278 56.2096
19.2088 61.4167
19.3898 67.0661
19.5709 56.1972
19.752 52.7284
19.9332 57.731
20.1144 65.1918
20.2957 60.0689
20.477 59.7899
20.6586 49.4469
20.84 48.5292
21.0215 48.3975
21.203 49.1988
21.3846 50.1162
21.5662 48.3995
21.7479 53.6608
21.9297 60.3736
22.1115 55.885
22.2933 52.5122
22.4753 48.33
22.6572 48.4958
22.8393 51.4335
23.0214 55.8807
23.2037 49.7481
23.3859 51.3019
23.5682 52.4484
23.7505 53.6071
23.9329 45.2502
24.1154 43.9439
24.2979 43.1562
24.4805 42.605
24.6631 42.7159
24.8458 42.1905
25.0286 42.5839
25.2114 43.9337
25.3943 44.319
25.5773 41.4865
25.7605 40.4674
25.9436 40.5549
26.1268 40.9897
26.31 40.6106
26.4933 40.4081
26.6767 41.322
26.8601 41.0164
27.0437 39.1738
27.2272 38.4969
27.4109 38.1912
27.5946 38.3198
27.7784 38.1717
27.9623 38.0686
28.1462 38.8021
28.3304 37.7666
28.5145 35.9217
28.6987 35.6375
28.8829 35.1356
29.0673 34.8878
29.2517 34.1472
29.4361 33.8291
29.6207 33.3323
29.8053 32.7131
29.99 32.4804
30.1748 32.1957
30.3597 32.2611
30.5447 32.0406
30.7297 31.9836
30.915 31.8031
31.1002 31.2027
31.2855 30.8633
31.4708 30.5047
31.6563 30.5872
31.8418 30.0418
32.0275 29.8206
32.2132 29.4549
32.399 28.9243
32.5848 28.4975
32.7708 28.0029
32.9569 27.9096
33.143 27.63
33.3293 27.3375
33.5158 27.0625
33.7022 26.5505
33.8887 26.1709
34.0753 25.9801
34.262 25.5611
34.4488 25.2188
34.6357 24.8798
34.8227 24.6206
35.0098 24.4187
35.1969 24.0604
35.3842 23.819
35.5716 23.7151
35.759 23.4153
35.9468 23.13
36.1345 22.7869
36.3222 22.6168
36.5101 22.3868
36.6981 22.0283
36.8861 21.7117
37.0743 21.4541
37.2626 21.1762
37.451 20.9022
37.6395 20.8138
37.8281 20.4695
38.0168 20.1453
38.2056 19.9176
38.3945 19.5821
38.5837 19.343
38.7728 19.1158
38.9621 18.9233
39.1514 18.6507
39.3409 18.4166
39.5304 18.1858
39.7201 17.9551
39.9099 17.7546
40.0999 17.4832
40.2899 17.3083
40.48 17.0496
40.6703 16.8924
40.8607 16.6647
41.0512 16.4367
41.242 16.2257
41.4327 16.0102
41.6236 15.8268
41.8146 15.593
42.0057 15.3413
42.1969 15.1574
42.3882 14.9975
42.5797 14.7471
42.7713 14.519
42.963 14.3532
43.1549 14.2217
43.3468 14.017
43.5389 13.7508
43.7312 13.5544
43.9237 13.4474
44.1162 13.1899
44.3088 13.0316
44.5016 12.8221
44.6945 12.7026
44.8875 12.5084
45.0806 12.3448
45.2739 12.1855
45.4673 12.0253
45.6609 11.802
45.8546 11.6666
46.0484 11.4727
46.2424 11.3142
46.4365 11.1429
46.631 10.9625
46.8254 10.7869
47.0199 10.6443
47.2146 10.5024
47.4095 10.3386
47.6044 10.2152
47.7996 10.0157
47.9948 9.88641
48.1902 9.74583
48.3858 9.64164
48.5815 9.50586
48.7774 9.3455
48.9734 9.21616
49.1696 9.05205
49.3661 8.92129
49.5626 8.79482
49.7592 8.64793
49.956 8.56996
50.153 8.42982
50.3501 8.25721
50.5474 8.19147
50.7448 8.03758
50.9424 7.93704
51.1402 7.78793
51.3381 7.67413
51.5362 7.52652
51.7344 7.43251
51.9328 7.2372
52.1316 7.15672
52.3304 7.03913
52.5293 6.95579
52.7284 6.81835
52.9276 6.72008
53.1271 6.62309
53.3267 6.49267
53.5265 6.35699
53.7264 6.23179
53.9266 6.18026
54.1269 6.03184
54.3274 5.89368
54.528 5.72388
54.7289 5.53164
54.9301 5.35452
55.1314 5.20282
55.3328 5.01613
55.5344 4.82701
55.7361 4.71452