Folder: NiFe_MOF_catalyst_paper/XRD (part 9)

File: Ni3Fe_FD0044.xy
TT I
1.27165 32.5167
1.45013 27.6369
1.62863 23.6618
1.80712 21.6844
1.98562 21.0583
2.16411 20.9588
2.34263 21.586
2.52115 22.3226
2.69965 26.8756
2.87818 36.6413
3.05672 64.0347
3.23527 69.2612
3.4138 36.0373
3.59237 28.0102
3.77094 26.612
3.9495 27.1668
4.12809 30.0555
4.30669 41.6518
4.4853 37.9108
4.6639 41.916
4.84253 52.8444
5.02118 94.645
5.19981 298.63
5.37848 3416.4
5.55716 153.414
5.73586 102.1
5.91455 116.666
6.09328 538.458
6.27201 241.717
6.45075 64.475
6.62952 47.126
6.8083 42.1102
6.98711 40.0968
7.16591 41.9212
7.34475 42.3904
7.5236 54.9429
7.70247 43.4792
7.88135 37.4223
8.06026 39.2118
8.23919 44.7201
8.41812 57.4765
8.59709 179.764
8.77609 444.675
8.9551 74.9282
9.13412 63.1659
9.31318 334.996
9.49226 57.0584
9.67134 55.8164
9.85047 61.2183
10.0296 111.956
10.2088 647.73
10.388 105.931
10.5672 96.6422
10.7465 221.866
10.9257 50.3792
11.105 43.6321
11.2844 41.4583
11.4637 38.6089
11.6431 38.044
11.8225 38.4341
12.002 108.462
12.1814 49.3069
12.3609 90.5005
12.5405 42.132
12.72 39.1685
12.8996 40.5243
13.0792 45.6598
13.2589 67.988
13.4386 183.565
13.6183 83.3221
13.7981 185.954
13.9779 55.731
14.1577 58.1969
14.3376 46.4759
14.5175 40.5732
14.6974 40.3388
14.8774 47.1558
15.0574 71.6696
15.2374 66.7138
15.4175 41.4076
15.5976 39.7752
15.7778 44.4659
15.958 60.9428
16.1382 89.7785
16.3185 38.3192
16.4988 34.2628
16.6792 33.189
16.8596 33.2001
17.04 42.9894
17.2205 35.2074
17.401 39.4998
17.5815 40.9445
17.7622 37.0898
17.9428 40.766
18.1237 44.9168
18.3044 89.1532
18.4852 55.1837
18.666 52.2713
18.8469 36.7237
19.0278 35.0801
19.2088 34.9214
19.3898 45.9591
19.5709 45.9368
19.752 34.2456
19.9332 32.7595
20.1144 33.7908
20.2957 43.7044
20.477 38.8849
20.6586 33.9583
20.84 34.4736
21.0215 30.1954
21.203 29.722
21.3846 30.6214
21.5662 31.7278
21.7479 30.7491
21.9297 32.0277
22.1115 41.8658
22.2933 38.6584
22.4753 32.2479
22.6572 30.5081
22.8393 31.7257
23.0214 31.7721
23.2037 38.8267
23.3859 31.8543
23.5682 34.1064
23.7505 35.5708
23.9329 33.1271
24.1154 29.4526
24.2979 27.9168
24.4805 27.2536
24.6631 27.3469
24.8458 27.6508
25.0286 26.584
25.2114 26.9396
25.3943 28.8634
25.5773 29.6904
25.7605 26.8032
25.9436 26.9869
26.1268 25.7922
26.31 26.9416
26.4933 26.2986
26.6767 25.8417
26.8601 27.5633
27.0437 28.2388
27.2272 25.6541
27.4109 24.8526
27.5946 24.9814
27.7784 25.183
27.9623 24.6619
28.1462 25.6628
28.3304 26.3366
28.5145 25.2699
28.6987 23.9875
28.8829 23.0391
29.0673 22.7727
29.2517 22.7889
29.4361 22.1366
29.6207 22.0661
29.8053 21.8288
29.99 21.4045
30.1748 21.5358
30.3597 21.0723
30.5447 21.2455
30.7297 20.8908
30.915 21.1349
31.1002 21.4875
31.2855 20.7467
31.4708 20.3638
31.6563 20.5358
31.8418 20.5158
32.0275 20.0001
32.2132 20.106
32.399 19.8091
32.5848 19.2107
32.7708 18.8804
32.9569 18.7566
33.143 18.569
33.3293 18.2695
33.5158 18.4634
33.7022 18.1468
33.8887 17.5914
34.0753 17.454
34.262 17.3469
34.4488 16.9985
34.6357 16.9138
34.8227 16.6478
35.0098 16.4148
35.1969 16.2146
35.3842 16.165
35.5716 16.0225
35.759 16.1883
35.9468 15.8771
36.1345 15.5802
36.3222 15.4423
36.5101 15.3642
36.6981 15.1181
36.8861 14.9524
37.0743 14.7579
37.2626 14.5128
37.451 14.3432
37.6395 14.2205
37.8281 14.0245
38.0168 13.8186
38.2056 13.6636
38.3945 13.4523
38.5837 13.2806
38.7728 13.1625
38.9621 13.0128
39.1514 12.8435
39.3409 12.7239
39.5304 12.4865
39.7201 12.3563
39.9099 12.2754
40.0999 12.1149
40.2899 11.9791
40.48 11.7826
40.6703 11.6905
40.8607 11.5645
41.0512 11.4891
41.242 11.2987
41.4327 11.1019
41.6236 10.9357
41.8146 10.8798
42.0057 10.707
42.1969 10.5393
42.3882 10.4344
42.5797 10.3159
42.7713 10.1543
42.963 9.96853
43.1549 9.89425
43.3468 9.74869
43.5389 9.58966
43.7312 9.48926
43.9237 9.41252
44.1162 9.29339
44.3088 9.13184
44.5016 9.03242
44.6945 8.90794
44.8875 8.74625
45.0806 8.6752
45.2739 8.54972
45.4673 8.47269
45.6609 8.33273
45.8546 8.20055
46.0484 8.12558
46.2424 7.99959
46.4365 7.90958
46.631 7.74933
46.8254 7.63083
47.0199 7.54223
47.2146 7.41307
47.4095 7.32517
47.6044 7.22302
47.7996 7.13439
47.9948 6.98013
48.1902 6.92874
48.3858 6.82551
48.5815 6.73469
48.7774 6.64679
48.9734 6.53731
49.1696 6.47108
49.3661 6.35051
49.5626 6.24782
49.7592 6.17347
49.956 6.12333
50.153 6.01752
50.3501 5.91832
50.5474 5.83933
50.7448 5.76844
50.9424 5.66862
51.1402 5.55042
51.3381 5.51024
51.5362 5.42729
51.7344 5.32811
51.9328 5.24295
52.1316 5.1429
52.3304 5.05794
52.5293 5.03308
52.7284 4.94393
52.9276 4.84287
53.1271 4.78725
53.3267 4.6789
53.5265 4.61654
53.7264 4.53548
53.9266 4.45913
54.1269 4.29844
54.3274 4.24124
54.528 4.14837
54.7289 4.01928
54.9301 3.92315
55.1314 3.78223
55.3328 3.59215
55.5344 3.45538
55.7361 3.45453

File: Ni3Fe_FD0045.xy
TT I
1.27165 33.2677
1.45013 27.3409
1.62863 23.4174
1.80712 20.8483
1.98562 21.6873
2.16411 21.6267
2.34263 21.5324
2.52115 23.0739
2.69965 26.5171
2.87818 36.6029
3.05672 63.6066
3.23527 68.6106
3.4138 35.1623
3.59237 27.6508
3.77094 26.6387
3.9495 26.9049
4.12809 29.6881
4.30669 39.79
4.4853 37.7146
4.6639 41.8504
4.84253 53.5212
5.02118 97.0057
5.19981 299.224
5.37848 3388.03
5.55716 153.054
5.73586 101.697
5.91455 117.106
6.09328 542.475
6.27201 238.584
6.45075 64.5682
6.62952 47.099
6.8083 41.283
6.98711 40.2197
7.16591 42.4215
7.34475 40.8754
7.5236 55.2838
7.70247 43.4816
7.88135 37.7586
8.06026 39.7045
8.23919 45.1075
8.41812 57.8887
8.59709 179.629
8.77609 433.945
8.9551 74.8325
9.13412 63.7027
9.31318 335.355
9.49226 57.4596
9.67134 55.8887
9.85047 61.8253
10.0296 112.279
10.2088 653.25
10.388 105.111
10.5672 96.4668
10.7465 218.917
10.9257 50.125
11.105 43.6335
11.2844 41.7067
11.4637 38.8872
11.6431 37.9773
11.8225 38.8239
12.002 109.883
12.1814 49.5236
12.3609 90.1373
12.5405 42.2095
12.72 39.2423
12.8996 40.3655
13.0792 46.2416
13.2589 68.0587
13.4386 184.22
13.6183 83.1624
13.7981 186.295
13.9779 55.6681
14.1577 58.9549
14.3376 46.8023
14.5175 40.9346
14.6974 40.4015
14.8774 47.3841
15.0574 72.1454
15.2374 65.9257
15.4175 41.3889
15.5976 39.9947
15.7778 44.6528
15.958 61.2327
16.1382 88.4767
16.3185 38.3038
16.4988 34.6304
16.6792 33.225
16.8596 33.3658
17.04 42.8101
17.2205 35.1452
17.401 39.514
17.5815 40.5977
17.7622 37.2348
17.9428 40.8332
18.1237 45.1263
18.3044 88.4979
18.4852 55.0967
18.666 51.842
18.8469 36.8442
19.0278 35.0703
19.2088 35.2039
19.3898 46.2251
19.5709 45.7484
19.752 34.3572
19.9332 33.09
20.1144 33.8174
20.2957 43.7851
20.477 39.172
20.6586 33.8012
20.84 34.5628
21.0215 30.3541
21.203 29.893
21.3846 30.7774
21.5662 31.8522
21.7479 30.9057
21.9297 32.0418
22.1115 41.8473
22.2933 38.5354
22.4753 32.1711
22.6572 30.586
22.8393 31.8365
23.0214 31.8065
23.2037 38.423
23.3859 32.0474
23.5682 34.135
23.7505 35.5043
23.9329 32.9877
24.1154 29.557
24.2979 27.8663
24.4805 27.1567
24.6631 27.5464
24.8458 27.6221
25.0286 26.7051
25.2114 26.9348
25.3943 28.7959
25.5773 29.6317
25.7605 26.6847
25.9436 27.0399
26.1268 25.8506
26.31 27.0366
26.4933 26.33
26.6767 25.8501
26.8601 27.7537
27.0437 28.1204
27.2272 25.7307
27.4109 24.8094
27.5946 24.9314
27.7784 25.1655
27.9623 24.6268
28.1462 25.6102
28.3304 26.2633
28.5145 25.0752
28.6987 23.9005
28.8829 22.9878
29.0673 22.7841
29.2517 22.8121
29.4361 22.1994
29.6207 22.1923
29.8053 21.8337
29.99 21.4296
30.1748 21.5222
30.3597 21.0358
30.5447 21.2064
30.7297 20.9532
30.915 21.1798
31.1002 21.4574
31.2855 20.7458
31.4708 20.349
31.6563 20.4655
31.8418 20.5331
32.0275 19.9516
32.2132 20.0807
32.399 19.8348
32.5848 19.1776
32.7708 18.8524
32.9569 18.7943
33.143 18.5934
33.3293 18.2946
33.5158 18.4793
33.7022 18.2068
33.8887 17.726
34.0753 17.4416
34.262 17.2561
34.4488 17.0198
34.6357 16.9297
34.8227 16.6786
35.0098 16.4861
35.1969 16.2596
35.3842 16.1203
35.5716 16.0189
35.759 16.086
35.9468 15.8093
36.1345 15.5535
36.3222 15.405
36.5101 15.3932
36.6981 15.0794
36.8861 14.9205
37.0743 14.7488
37.2626 14.5277
37.451 14.2859
37.6395 14.229
37.8281 13.9888
38.0168 13.8375
38.2056 13.6236
38.3945 13.4427
38.5837 13.3022
38.7728 13.1154
38.9621 13.0025
39.1514 12.8345
39.3409 12.6503
39.5304 12.4689
39.7201 12.3627
39.9099 12.2778
40.0999 12.0983
40.2899 11.9949
40.48 11.7668
40.6703 11.6613
40.8607 11.5329
41.0512 11.4224
41.242 11.253
41.4327 11.11
41.6236 10.9599
41.8146 10.8377
42.0057 10.6743
42.1969 10.579
42.3882 10.4173
42.5797 10.2464
42.7713 10.2003
42.963 10.0302
43.1549 9.84132
43.3468 9.74321
43.5389 9.57182
43.7312 9.4573
43.9237 9.40203
44.1162 9.28524
44.3088 9.13646
44.5016 8.99351
44.6945 8.88001
44.8875 8.76768
45.0806 8.6494
45.2739 8.54438
45.4673 8.40965
45.6609 8.29119
45.8546 8.20281
46.0484 8.08326
46.2424 7.97522
46.4365 7.87598
46.631 7.74076
46.8254 7.61904
47.0199 7.53729
47.2146 7.41996
47.4095 7.30796
47.6044 7.2017
47.7996 7.12656
47.9948 6.97934
48.1902 6.92182
48.3858 6.82938
48.5815 6.71882
48.7774 6.6591
48.9734 6.54906
49.1696 6.48234
49.3661 6.35276
49.5626 6.26114
49.7592 6.14763
49.956 6.0793
50.153 5.96454
50.3501 5.91019
50.5474 5.8296
50.7448 5.74892
50.9424 5.69423
51.1402 5.57041
51.3381 5.48661
51.5362 5.41072
51.7344 5.34424
51.9328 5.24834
52.1316 5.14674
52.3304 5.0699
52.5293 4.99192
52.7284 4.92572
52.9276 4.82689
53.1271 4.76472
53.3267 4.70624
53.5265 4.59879
53.7264 4.48254
53.9266 4.45211
54.1269 4.33634
54.3274 4.28242
54.528 4.11496
54.7289 3.98189
54.9301 3.91406
55.1314 3.76884
55.3328 3.61134
55.5344 3.519
55.7361 3.43811

File: Ni3Fe_FD0046.xy
TT I
1.27165 33.1425
1.45013 26.5735
1.62863 23.7251
1.80712 21.2837
1.98562 21.186
2.16411 20.9358
2.34263 21.9181
2.52115 22.4881
2.69965 26.4137
2.87818 37.2752
3.05672 63.4236
3.23527 68.2941
3.4138 35.1229
3.59237 27.0899
3.77094 26.0843
3.9495 26.8245
4.12809 29.5837
4.30669 38.6025
4.4853 37.2871
4.6639 41.8604
4.84253 53.5663
5.02118 98.4452
5.19981 300.788
5.37848 3366.53
5.55716 152.793
5.73586 102.502
5.91455 117.265
6.09328 545.022
6.27201 237.101
6.45075 64.2758
6.62952 46.8613
6.8083 41.535
6.98711 40.0783
7.16591 42.9922
7.34475 39.8743
7.5236 55.6001
7.70247 43.7903
7.88135 37.8097
8.06026 39.7218
8.23919 45.13
8.41812 57.8562
8.59709 180.925
8.77609 426.836
8.9551 74.9088
9.13412 63.9513
9.31318 335.722
9.49226 57.5429
9.67134 55.9855
9.85047 62.056
10.0296 113.142
10.2088 658.34
10.388 104.191
10.5672 96.8635
10.7465 217.047
10.9257 50.7296
11.105 44.1219
11.2844 42.0439
11.4637 38.9722
11.6431 38.3501
11.8225 39.039
12.002 110.785
12.1814 49.6256
12.3609 89.7783
12.5405 42.3539
12.72 39.27
12.8996 40.643
13.0792 46.3785
13.2589 68.0659
13.4386 184.763
13.6183 82.2345
13.7981 186.655
13.9779 55.6643
14.1577 59.8777
14.3376 46.9596
14.5175 41.1054
14.6974 40.4971
14.8774 47.6801
15.0574 72.7927
15.2374 65.0629
15.4175 41.49
15.5976 40.0693
15.7778 44.5305
15.958 61.6189
16.1382 87.3782
16.3185 38.5111
16.4988 34.4865
16.6792 33.2064
16.8596 33.2834
17.04 42.8915
17.2205 35.0965
17.401 39.6985
17.5815 40.502
17.7622 37.2662
17.9428 40.8592
18.1237 45.0158
18.3044 87.5129
18.4852 55.5465
18.666 51.2421
18.8469 36.9168
19.0278 35.1499
19.2088 35.3001
19.3898 46.4657
19.5709 45.5834
19.752 34.257
19.9332 32.9507
20.1144 33.8795
20.2957 43.3703
20.477 39.184
20.6586 33.8151
20.84 34.6254
21.0215 30.1869
21.203 29.894
21.3846 30.8382
21.5662 31.6119
21.7479 30.7605
21.9297 32.2358
22.1115 41.7422
22.2933 38.4204
22.4753 32.1017
22.6572 30.5031
22.8393 31.8736
23.0214 31.7229
23.2037 38.3977
23.3859 31.8837
23.5682 34.0788
23.7505 35.5183
23.9329 33.0015
24.1154 29.4215
24.2979 27.9189
24.4805 27.2454
24.6631 27.3485
24.8458 27.4682
25.0286 26.7911
25.2114 26.9284
25.3943 28.9157
25.5773 29.6693
25.7605 26.6292
25.9436 26.9003
26.1268 25.8655
26.31 27.0165
26.4933 26.3949
26.6767 25.9877
26.8601 27.6253
27.0437 28.1227
27.2272 25.6404
27.4109 24.8827
27.5946 24.8942
27.7784 25.2752
27.9623 24.6542
28.1462 25.548
28.3304 26.2453
28.5145 25.0997
28.6987 23.8139
28.8829 23.0102
29.0673 22.8253
29.2517 22.8064
29.4361 22.1439
29.6207 22.0627
29.8053 21.8553
29.99 21.2629
30.1748 21.495
30.3597 21.0411
30.5447 21.1631
30.7297 20.877
30.915 21.173
31.1002 21.357
31.2855 20.6706
31.4708 20.3019
31.6563 20.4683
31.8418 20.4668
32.0275 19.9378
32.2132 20.0421
32.399 19.7703
32.5848 19.1377
32.7708 18.8085
32.9569 18.8176
33.143 18.5995
33.3293 18.311
33.5158 18.4174
33.7022 18.1101
33.8887 17.7214
34.0753 17.534
34.262 17.3244
34.4488 17.0063
34.6357 16.8895
34.8227 16.6173
35.0098 16.4027
35.1969 16.2363
35.3842 16.1585
35.5716 16.0225
35.759 16.0808
35.9468 15.7644
36.1345 15.534
36.3222 15.3345
36.5101 15.297
36.6981 15.05
36.8861 14.8416
37.0743 14.6564
37.2626 14.4752
37.451 14.2344
37.6395 14.2015
37.8281 14.014
38.0168 13.7309
38.2056 13.6296
38.3945 13.3945
38.5837 13.2489
38.7728 13.0647
38.9621 12.9756
39.1514 12.8071
39.3409 12.6501
39.5304 12.5348
39.7201 12.3982
39.9099 12.1998
40.0999 12.0868
40.2899 11.9619
40.48 11.7439
40.6703 11.7096
40.8607 11.5826
41.0512 11.4081
41.242 11.2658
41.4327 11.1131
41.6236 10.9408
41.8146 10.848
42.0057 10.7132
42.1969 10.5755
42.3882 10.4284
42.5797 10.277
42.7713 10.139
42.963 9.97938
43.1549 9.83526
43.3468 9.71343
43.5389 9.6232
43.7312 9.47753
43.9237 9.34383
44.1162 9.22593
44.3088 9.12937
44.5016 8.96307
44.6945 8.84939
44.8875 8.75393
45.0806 8.63139
45.2739 8.51252
45.4673 8.41686
45.6609 8.289
45.8546 8.17999
46.0484 8.1164
46.2424 7.9713
46.4365 7.86853
46.631 7.74472
46.8254 7.60726
47.0199 7.53335
47.2146 7.40292
47.4095 7.30074
47.6044 7.19999
47.7996 7.08571
47.9948 7.01361
48.1902 6.90894
48.3858 6.79744
48.5815 6.70714
48.7774 6.6402
48.9734 6.53292
49.1696 6.43181
49.3661 6.34951
49.5626 6.23398
49.7592 6.13889
49.956 6.0706
50.153 5.99996
50.3501 5.88373
50.5474 5.82177
50.7448 5.7118
50.9424 5.63545
51.1402 5.60279
51.3381 5.50523
51.5362 5.37845
51.7344 5.28883
51.9328 5.22372
52.1316 5.11789
52.3304 5.08888
52.5293 4.96936
52.7284 4.94989
52.9276 4.8645
53.1271 4.76251
53.3267 4.69133
53.5265 4.62297
53.7264 4.51793
53.9266 4.43617
54.1269 4.31738
54.3274 4.21544
54.528 4.15409
54.7289 3.98316
54.9301 3.84825
55.1314 3.78291
55.3328 3.60527
55.5344 3.41938
55.7361 3.41067

File: Ni3Fe_FD0047.xy
TT I
1.27165 33.4733
1.45013 26.9345
1.62863 24.2199
1.80712 22.0716
1.98562 21.1972
2.16411 20.6623
2.34263 21.8125
2.52115 22.6143
2.69965 26.6943
2.87818 37.148
3.05672 64.3812
3.23527 67.8969
3.4138 34.8343
3.59237 27.0669
3.77094 26.0943
3.9495 26.8005
4.12809 29.0007
4.30669 38.0107
4.4853 37.328
4.6639 41.5678
4.84253 53.6391
5.02118 100.761
5.19981 302.531
5.37848 3324.84
5.55716 152.684
5.73586 102.654
5.91455 117.409
6.09328 548.559
6.27201 234.147
6.45075 64.3205
6.62952 47.1031
6.8083 41.4374
6.98711 40.3766
7.16591 43.3789
7.34475 39.3123
7.5236 56.6347
7.70247 43.8127
7.88135 37.9506
8.06026 39.7803
8.23919 45.4839
8.41812 58.1291
8.59709 180.914
8.77609 416.494
8.9551 74.8017
9.13412 64.0608
9.31318 334.697
9.49226 58.0236
9.67134 56.3355
9.85047 62.126
10.0296 114.033
10.2088 664.628
10.388 103.522
10.5672 96.9836
10.7465 213.306
10.9257 50.7319
11.105 44.0151
11.2844 42.0293
11.4637 39.1127
11.6431 38.331
11.8225 39.1289
12.002 111.865
12.1814 49.4651
12.3609 88.9371
12.5405 42.1635
12.72 39.2268
12.8996 40.6629
13.0792 46.7104
13.2589 67.9481
13.4386 186.652
13.6183 82.3557
13.7981 186.561
13.9779 55.5636
14.1577 60.6089
14.3376 46.9142
14.5175 41.1282
14.6974 40.7378
14.8774 47.8445
15.0574 73.5366
15.2374 64.0656
15.4175 41.6319
15.5976 40.0292
15.7778 44.8532
15.958 62.2744
16.1382 86.0441
16.3185 38.4315
16.4988 34.7238
16.6792 33.4657
16.8596 33.6234
17.04 42.7765
17.2205 35.3209
17.401 39.8323
17.5815 40.317
17.7622 37.5169
17.9428 40.856
18.1237 45.3111
18.3044 86.9178
18.4852 55.743
18.666 51.1469
18.8469 37.0153
19.0278 35.3333
19.2088 35.4874
19.3898 46.8234
19.5709 45.3559
19.752 34.3127
19.9332 33.2784
20.1144 33.9475
20.2957 43.5358
20.477 39.2099
20.6586 33.7101
20.84 34.6947
21.0215 30.3453
21.203 29.9104
21.3846 30.9982
21.5662 31.6765
21.7479 30.8081
21.9297 32.1101
22.1115 41.6708
22.2933 38.4533
22.4753 32.0612
22.6572 30.354
22.8393 32.0686
23.0214 31.759
23.2037 38.0992
23.3859 31.9767
23.5682 33.775
23.7505 35.63
23.9329 32.6491
24.1154 29.5113
24.2979 27.9692
24.4805 27.3138
24.6631 27.4792
24.8458 27.6524
25.0286 26.8777
25.2114 27.1097
25.3943 28.8387
25.5773 29.528
25.7605 26.7318
25.9436 26.8569
26.1268 25.8478
26.31 26.9953
26.4933 26.2778
26.6767 25.7912
26.8601 27.5924
27.0437 27.9686
27.2272 25.5641
27.4109 24.918
27.5946 24.8911
27.7784 25.1539
27.9623 24.6085
28.1462 25.5062
28.3304 26.113
28.5145 25.0945
28.6987 23.8737
28.8829 22.9686
29.0673 22.8213
29.2517 22.8004
29.4361 22.0792
29.6207 22.1497
29.8053 21.7654
29.99 21.4194
30.1748 21.4889
30.3597 21.0963
30.5447 21.1848
30.7297 20.9073
30.915 21.1401
31.1002 21.5064
31.2855 20.7105
31.4708 20.3245
31.6563 20.4721
31.8418 20.4957
32.0275 19.9223
32.2132 20.0281
32.399 19.677
32.5848 19.1933
32.7708 18.8326
32.9569 18.8596
33.143 18.53
33.3293 18.3108
33.5158 18.4498
33.7022 18.0353
33.8887 17.6542
34.0753 17.444
34.262 17.3023
34.4488 17.0248
34.6357 16.8413
34.8227 16.647
35.0098 16.3694
35.1969 16.3069
35.3842 16.1057
35.5716 16.0119
35.759 16.0965
35.9468 15.8234
36.1345 15.4975
36.3222 15.3685
36.5101 15.302
36.6981 15.0658
36.8861 14.887
37.0743 14.6285
37.2626 14.4605
37.451 14.3251
37.6395 14.2151
37.8281 13.9341
38.0168 13.7927
38.2056 13.6272
38.3945 13.3778
38.5837 13.2178
38.7728 13.1486
38.9621 13.0482
39.1514 12.8238
39.3409 12.6847
39.5304 12.4432
39.7201 12.3385
39.9099 12.2352
40.0999 12.095
40.2899 11.9497
40.48 11.7936
40.6703 11.6747
40.8607 11.5224
41.0512 11.3912
41.242 11.2303
41.4327 11.117
41.6236 10.9435
41.8146 10.8411
42.0057 10.6423
42.1969 10.5403
42.3882 10.3878
42.5797 10.2452
42.7713 10.1294
42.963 9.98588
43.1549 9.86175
43.3468 9.71361
43.5389 9.61852
43.7312 9.4841
43.9237 9.35326
44.1162 9.26017
44.3088 9.10127
44.5016 8.92879
44.6945 8.86828
44.8875 8.74713
45.0806 8.61076
45.2739 8.51607
45.4673 8.38691
45.6609 8.30741
45.8546 8.19628
46.0484 8.08769
46.2424 7.94907
46.4365 7.8596
46.631 7.72751
46.8254 7.61722
47.0199 7.51035
47.2146 7.41702
47.4095 7.29026
47.6044 7.2141
47.7996 7.12473
47.9948 6.99304
48.1902 6.90252
48.3858 6.81026
48.5815 6.72223
48.7774 6.65398
48.9734 6.53732
49.1696 6.4306
49.3661 6.3436
49.5626 6.22689
49.7592 6.14055
49.956 6.06274
50.153 5.9924
50.3501 5.90088
50.5474 5.81387
50.7448 5.7669
50.9424 5.65573
51.1402 5.57639
51.3381 5.48954
51.5362 5.38218
51.7344 5.3011
51.9328 5.22038
52.1316 5.14469
52.3304 5.0554
52.5293 4.95877
52.7284 4.89205
52.9276 4.82087
53.1271 4.78454
53.3267 4.65035
53.5265 4.58582
53.7264 4.55891
53.9266 4.4703
54.1269 4.32405
54.3274 4.26845
54.528 4.13057
54.7289 3.98641
54.9301 3.88528
55.1314 3.76885
55.3328 3.57683
55.5344 3.4328
55.7361 3.41704

File: Ni3Fe_FD0048.xy
TT I
1.27165 33.1835
1.45013 28.1761
1.62863 23.3181
1.80712 21.537
1.98562 20.9022
2.16411 20.6292
2.34263 21.3072
2.52115 22.2468
2.69965 26.5954
2.87818 36.771
3.05672 64.0942
3.23527 68.0691
3.4138 34.8538
3.59237 27.2459
3.77094 25.5553
3.9495 26.297
4.12809 29.4808
4.30669 37.6338
4.4853 37.1242
4.6639 41.757
4.84253 53.8655
5.02118 102.235
5.19981 303.218
5.37848 3290.91
5.55716 152.369
5.73586 102.5
5.91455 117.366
6.09328 552.21
6.27201 230.966
6.45075 64.2373
6.62952 46.7962
6.8083 41.2968
6.98711 40.5486
7.16591 43.3453
7.34475 38.8765
7.5236 56.7684
7.70247 43.7351
7.88135 38.1238
8.06026 40.3111
8.23919 45.5602
8.41812 58.1165
8.59709 181.932
8.77609 406.837
8.9551 74.9223
9.13412 63.9967
9.31318 334.706
9.49226 57.8048
9.67134 56.473
9.85047 62.5876
10.0296 114.982
10.2088 670.967
10.388 103.144
10.5672 96.9357
10.7465 210.334
10.9257 51.3568
11.105 44.3904
11.2844 42.2313
11.4637 39.4396
11.6431 38.6358
11.8225 39.0965
12.002 112.99
12.1814 49.8286
12.3609 88.4323
12.5405 42.2179
12.72 39.5391
12.8996 40.8688
13.0792 46.7595
13.2589 68.3787
13.4386 187.116
13.6183 81.5653
13.7981 186.252
13.9779 55.3738
14.1577 61.4307
14.3376 46.8881
14.5175 41.306
14.6974 40.9633
14.8774 47.9169
15.0574 74.2898
15.2374 63.4619
15.4175 41.7537
15.5976 40.337
15.7778 45.1724
15.958 62.6014
16.1382 84.8858
16.3185 38.4604
16.4988 34.8035
16.6792 33.5726
16.8596 33.6254
17.04 42.713
17.2205 35.4279
17.401 40.2126
17.5815 40.1594
17.7622 37.7256
17.9428 40.8694
18.1237 45.3762
18.3044 85.9324
18.4852 55.8424
18.666 50.7083
18.8469 36.9937
19.0278 35.1744
19.2088 35.4601
19.3898 46.6646
19.5709 45.3392
19.752 34.3388
19.9332 33.1162
20.1144 34.0008
20.2957 43.282
20.477 39.3078
20.6586 33.7214
20.84 34.6778
21.0215 30.3072
21.203 30.119
21.3846 30.9334
21.5662 31.679
21.7479 30.8747
21.9297 32.1247
22.1115 41.5906
22.2933 38.0262
22.4753 32.151
22.6572 30.5011
22.8393 32.0106
23.0214 31.8513
23.2037 38.0004
23.3859 31.847
23.5682 33.9512
23.7505 35.7649
23.9329 32.5297
24.1154 29.5076
24.2979 27.9386
24.4805 27.1731
24.6631 27.5017
24.8458 27.5575
25.0286 26.881
25.2114 27.0429
25.3943 28.781
25.5773 29.4237
25.7605 26.6074
25.9436 26.8507
26.1268 25.909
26.31 26.9691
26.4933 26.2445
26.6767 25.8905
26.8601 27.6668
27.0437 28.0026
27.2272 25.5083
27.4109 25.0262
27.5946 24.9929
27.7784 25.1761
27.9623 24.5195
28.1462 25.5081
28.3304 26.1399
28.5145 24.971
28.6987 23.8366
28.8829 23.074
29.0673 22.8446
29.2517 22.7098
29.4361 22.1394
29.6207 22.0623
29.8053 21.7852
29.99 21.3037
30.1748 21.5936
30.3597 21.1219
30.5447 21.1712
30.7297 20.8973
30.915 21.1348
31.1002 21.4175
31.2855 20.5791
31.4708 20.2302
31.6563 20.3368
31.8418 20.4181
32.0275 19.9134
32.2132 20.1225
32.399 19.6194
32.5848 19.177
32.7708 18.8634
32.9569 18.7119
33.143 18.5917
33.3293 18.242
33.5158 18.3486
33.7022 18.0399
33.8887 17.6781
34.0753 17.4729
34.262 17.2194
34.4488 17.0173
34.6357 16.8619
34.8227 16.609
35.0098 16.4331
35.1969 16.2512
35.3842 16.0464
35.5716 16.0292
35.759 16.053
35.9468 15.8048
36.1345 15.5871
36.3222 15.3528
36.5101 15.3214
36.6981 15.0358
36.8861 14.9476
37.0743 14.6912
37.2626 14.4884
37.451 14.2767
37.6395 14.2468
37.8281 13.9397
38.0168 13.7356
38.2056 13.6506
38.3945 13.3664
38.5837 13.2597
38.7728 13.1569
38.9621 12.9593
39.1514 12.8013
39.3409 12.61
39.5304 12.469
39.7201 12.3705
39.9099 12.2258
40.0999 12.0595
40.2899 11.9456
40.48 11.7103
40.6703 11.619
40.8607 11.542
41.0512 11.3863
41.242 11.2035
41.4327 11.0895
41.6236 10.942
41.8146 10.841
42.0057 10.6754
42.1969 10.5243
42.3882 10.3863
42.5797 10.261
42.7713 10.1312
42.963 9.97076
43.1549 9.84655
43.3468 9.69209
43.5389 9.6101
43.7312 9.4868
43.9237 9.36517
44.1162 9.20248
44.3088 9.11245
44.5016 8.97404
44.6945 8.88335
44.8875 8.73785
45.0806 8.66133
45.2739 8.5346
45.4673 8.40332
45.6609 8.30165
45.8546 8.19288
46.0484 8.05781
46.2424 7.96419
46.4365 7.84774
46.631 7.7353
46.8254 7.63128
47.0199 7.52738
47.2146 7.43777
47.4095 7.32254
47.6044 7.17844
47.7996 7.11053
47.9948 6.98718
48.1902 6.88222
48.3858 6.79805
48.5815 6.74714
48.7774 6.60829
48.9734 6.53698
49.1696 6.40454
49.3661 6.33563
49.5626 6.23701
49.7592 6.13959
49.956 6.07969
50.153 5.97694
50.3501 5.89232
50.5474 5.82121
50.7448 5.74934
50.9424 5.65589
51.1402 5.58155
51.3381 5.45896
51.5362 5.41562
51.7344 5.30111
51.9328 5.20758
52.1316 5.14955
52.3304 5.06013
52.5293 4.99695
52.7284 4.9152
52.9276 4.82217
53.1271 4.7513
53.3267 4.65386
53.5265 4.58579
53.7264 4.49515
53.9266 4.43992
54.1269 4.33999
54.3274 4.27399
54.528 4.11642
54.7289 3.96621
54.9301 3.8493
55.1314 3.76454
55.3328 3.58964
55.5344 3.49274
55.7361 3.37496