Folder: NiFe_MOF_catalyst_paper/XRD (part 14)

File: Ni3Fe_FD0070.xy
TT I
1.27165 27.9171
1.45013 21.2184
1.62863 18.523
1.80712 16.6838
1.98562 16.5612
2.16411 15.8882
2.34263 16.1899
2.52115 17.0406
2.69965 20.5998
2.87818 28.6241
3.05672 48.7219
3.23527 46.6897
3.4138 27.4425
3.59237 24.0913
3.77094 24.3411
3.9495 25.8209
4.12809 29.1946
4.30669 35.9236
4.4853 38.4754
4.6639 45.3849
4.84253 59.5511
5.02118 105.064
5.19981 433.165
5.37848 2303.44
5.55716 142.334
5.73586 103.832
5.91455 127.469
6.09328 761.308
6.27201 173.796
6.45075 63.1335
6.62952 49.356
6.8083 43.9856
6.98711 43.004
7.16591 42.6733
7.34475 41.0619
7.5236 74.0666
7.70247 44.1043
7.88135 41.348
8.06026 44.4253
8.23919 50.4308
8.41812 66.4202
8.59709 250.674
8.77609 242.446
8.9551 74.1801
9.13412 68.8562
9.31318 224.334
9.49226 63.0306
9.67134 63.4924
9.85047 71.8232
10.0296 192.422
10.2088 774.899
10.388 93.0137
10.5672 113.279
10.7465 139.912
10.9257 54.523
11.105 49.1353
11.2844 46.1346
11.4637 43.6318
11.6431 43.0158
11.8225 43.6222
12.002 104.831
12.1814 55.687
12.3609 75.114
12.5405 44.5568
12.72 43.7755
12.8996 45.9274
13.0792 55.5235
13.2589 79.8941
13.4386 194.21
13.6183 82.7122
13.7981 165.578
13.9779 55.1725
14.1577 79.5564
14.3376 48.4449
14.5175 45.6272
14.6974 46.0858
14.8774 57.7532
15.0574 97.6883
15.2374 52.8363
15.4175 44.4598
15.5976 43.9403
15.7778 53.6494
15.958 79.1748
16.1382 60.9569
16.3185 39.7146
16.4988 37.2198
16.6792 36.2668
16.8596 36.641
17.04 39.8249
17.2205 38.7495
17.401 46.4752
17.5815 39.58
17.7622 42.1562
17.9428 46.018
18.1237 50.6118
18.3044 66.5093
18.4852 61.3449
18.666 44.2054
18.8469 38.8338
19.0278 37.6642
19.2088 38.7394
19.3898 47.1312
19.5709 42.1016
19.752 35.6395
19.9332 36.0883
20.1144 37.0861
20.2957 40.6956
20.477 40.6651
20.6586 33.7727
20.84 35.423
21.0215 32.1773
21.203 31.8279
21.3846 33.1099
21.5662 32.3982
21.7479 33.0339
21.9297 34.3535
22.1115 39.0674
22.2933 36.2844
22.4753 32.2997
22.6572 32.0249
22.8393 33.2492
23.0214 33.6243
23.2037 34.9659
23.3859 33.0276
23.5682 32.8651
23.7505 36.652
23.9329 31.1688
24.1154 30.0154
24.2979 29.0299
24.4805 28.5542
24.6631 28.9847
24.8458 28.1942
25.0286 27.9457
25.2114 28.0925
25.3943 28.7681
25.5773 28.6151
25.7605 27.0509
25.9436 26.9428
26.1268 26.7018
26.31 27.4043
26.4933 26.6543
26.6767 26.5506
26.8601 27.5016
27.0437 26.8666
27.2272 25.7861
27.4109 25.4582
27.5946 25.4186
27.7784 25.4666
27.9623 25.1107
28.1462 25.2792
28.3304 25.1933
28.5145 24.5314
28.6987 23.8342
28.8829 23.5049
29.0673 23.3166
29.2517 22.8943
29.4361 22.6211
29.6207 22.4729
29.8053 22.0372
29.99 21.8921
30.1748 21.7489
30.3597 21.552
30.5447 21.3474
30.7297 21.1877
30.915 21.3813
31.1002 21.0259
31.2855 20.7112
31.4708 20.5003
31.6563 20.5068
31.8418 20.2381
32.0275 20.013
32.2132 19.8852
32.399 19.5893
32.5848 19.2694
32.7708 18.9975
32.9569 18.9151
33.143 18.6799
33.3293 18.4316
33.5158 18.3936
33.7022 17.9748
33.8887 17.7628
34.0753 17.5973
34.262 17.4414
34.4488 17.0838
34.6357 16.9111
34.8227 16.7275
35.0098 16.6136
35.1969 16.3347
35.3842 16.1446
35.5716 16.0879
35.759 15.9882
35.9468 15.6078
36.1345 15.55
36.3222 15.3678
36.5101 15.2034
36.6981 15.0454
36.8861 14.839
37.0743 14.6899
37.2626 14.4437
37.451 14.3051
37.6395 14.1814
37.8281 13.9237
38.0168 13.7373
38.2056 13.6334
38.3945 13.4609
38.5837 13.2593
38.7728 13.1024
38.9621 12.9932
39.1514 12.7806
39.3409 12.5937
39.5304 12.4975
39.7201 12.341
39.9099 12.1506
40.0999 12.0376
40.2899 11.8742
40.48 11.7295
40.6703 11.5679
40.8607 11.4359
41.0512 11.2998
41.242 11.1433
41.4327 11.0413
41.6236 10.8642
41.8146 10.7723
42.0057 10.606
42.1969 10.5227
42.3882 10.3667
42.5797 10.189
42.7713 10.0458
42.963 9.90311
43.1549 9.81368
43.3468 9.67451
43.5389 9.52157
43.7312 9.38901
43.9237 9.30813
44.1162 9.18058
44.3088 9.01754
44.5016 8.93628
44.6945 8.82354
44.8875 8.69576
45.0806 8.53613
45.2739 8.46202
45.4673 8.34849
45.6609 8.24079
45.8546 8.0887
46.0484 8.0112
46.2424 7.85451
46.4365 7.7783
46.631 7.63842
46.8254 7.54439
47.0199 7.4517
47.2146 7.32576
47.4095 7.2391
47.6044 7.13444
47.7996 7.0457
47.9948 6.92664
48.1902 6.80526
48.3858 6.74689
48.5815 6.62465
48.7774 6.53654
48.9734 6.48215
49.1696 6.35688
49.3661 6.25068
49.5626 6.17535
49.7592 6.0982
49.956 5.99386
50.153 5.91036
50.3501 5.81734
50.5474 5.74223
50.7448 5.6589
50.9424 5.56699
51.1402 5.50204
51.3381 5.40346
51.5362 5.31519
51.7344 5.21938
51.9328 5.15398
52.1316 5.04536
52.3304 4.99196
52.5293 4.89453
52.7284 4.79536
52.9276 4.73003
53.1271 4.70497
53.3267 4.59839
53.5265 4.55423
53.7264 4.45001
53.9266 4.3966
54.1269 4.23658
54.3274 4.19092
54.528 4.059
54.7289 3.89323
54.9301 3.76604
55.1314 3.67396
55.3328 3.48361
55.5344 3.37171
55.7361 3.31521

File: Ni3Fe_FD0071.xy
TT I
1.27165 24.7053
1.45013 19.6052
1.62863 16.3777
1.80712 14.9652
1.98562 14.5549
2.16411 13.97
2.34263 14.3017
2.52115 14.6557
2.69965 17.9053
2.87818 23.6085
3.05672 40.5477
3.23527 39.2535
3.4138 24.9739
3.59237 22.6562
3.77094 23.4038
3.9495 25.2011
4.12809 28.0904
4.30669 34.5273
4.4853 37.7241
4.6639 45.2899
4.84253 58.3973
5.02118 101.809
5.19981 454.058
5.37848 2186.87
5.55716 136.619
5.73586 100.957
5.91455 124.159
6.09328 777.886
6.27201 164.817
6.45075 61.8727
6.62952 48.4229
6.8083 43.1811
6.98711 41.8937
7.16591 41.9002
7.34475 40.3153
7.5236 71.6516
7.70247 43.2328
7.88135 41.1132
8.06026 43.9712
8.23919 50.0248
8.41812 65.7576
8.59709 257.45
8.77609 229.263
8.9551 72.4846
9.13412 67.2274
9.31318 208.723
9.49226 62.5305
9.67134 63.0601
9.85047 71.8649
10.0296 209.484
10.2088 804.394
10.388 90.9236
10.5672 112.259
10.7465 132.651
10.9257 54.471
11.105 48.611
11.2844 45.9593
11.4637 43.3692
11.6431 43.0061
11.8225 43.2883
12.002 100.146
12.1814 55.5002
12.3609 74.5928
12.5405 44.1797
12.72 43.6335
12.8996 45.7087
13.0792 55.5253
13.2589 80.6113
13.4386 199.163
13.6183 82.2881
13.7981 167.501
13.9779 54.4821
14.1577 77.5685
14.3376 47.8059
14.5175 45.6016
14.6974 45.8306
14.8774 59.0132
15.0574 100.138
15.2374 52.2289
15.4175 44.5076
15.5976 44.0231
15.7778 54.4219
15.958 79.951
16.1382 58.6895
16.3185 39.4442
16.4988 37.1026
16.6792 36.0909
16.8596 36.408
17.04 39.2187
17.2205 38.5878
17.401 46.7585
17.5815 39.552
17.7622 41.8435
17.9428 46.7412
18.1237 50.5248
18.3044 65.7421
18.4852 61.7045
18.666 43.5127
18.8469 38.7611
19.0278 37.7162
19.2088 38.6493
19.3898 46.4616
19.5709 41.8385
19.752 35.4383
19.9332 36.0556
20.1144 36.9167
20.2957 40.2793
20.477 40.8015
20.6586 33.6055
20.84 35.074
21.0215 32.0319
21.203 31.7621
21.3846 33.2375
21.5662 32.2422
21.7479 33.0855
21.9297 34.3183
22.1115 39.1505
22.2933 36.0914
22.4753 32.1847
22.6572 31.7944
22.8393 33.0162
23.0214 33.263
23.2037 34.8062
23.3859 33.0318
23.5682 32.4864
23.7505 36.5804
23.9329 30.8327
24.1154 29.8988
24.2979 28.9937
24.4805 28.2772
24.6631 28.8079
24.8458 28.1478
25.0286 27.749
25.2114 28.0178
25.3943 28.5057
25.5773 28.6119
25.7605 26.815
25.9436 26.8399
26.1268 26.5791
26.31 27.1771
26.4933 26.4806
26.6767 26.4627
26.8601 27.4187
27.0437 26.6602
27.2272 25.6418
27.4109 25.3285
27.5946 25.2914
27.7784 25.3363
27.9623 24.7876
28.1462 25.2496
28.3304 25.1072
28.5145 24.3665
28.6987 23.6715
28.8829 23.3506
29.0673 23.1963
29.2517 22.7093
29.4361 22.4038
29.6207 22.278
29.8053 21.8485
29.99 21.6904
30.1748 21.5343
30.3597 21.4516
30.5447 21.2478
30.7297 21.0987
30.915 21.179
31.1002 21.0105
31.2855 20.5102
31.4708 20.3839
31.6563 20.3466
31.8418 20.0923
32.0275 19.9091
32.2132 19.7857
32.399 19.4591
32.5848 19.0323
32.7708 18.8327
32.9569 18.8303
33.143 18.5181
33.3293 18.2646
33.5158 18.2002
33.7022 17.8412
33.8887 17.6675
34.0753 17.463
34.262 17.2229
34.4488 17.0109
34.6357 16.7822
34.8227 16.652
35.0098 16.4797
35.1969 16.2555
35.3842 15.9899
35.5716 15.9142
35.759 15.8453
35.9468 15.5797
36.1345 15.3495
36.3222 15.2874
36.5101 15.0763
36.6981 14.9249
36.8861 14.6619
37.0743 14.5348
37.2626 14.3508
37.451 14.1277
37.6395 14.1053
37.8281 13.8431
38.0168 13.6449
38.2056 13.4555
38.3945 13.2871
38.5837 13.1555
38.7728 13.0297
38.9621 12.8373
39.1514 12.6769
39.3409 12.5301
39.5304 12.3353
39.7201 12.2059
39.9099 12.0859
40.0999 11.9224
40.2899 11.7693
40.48 11.5736
40.6703 11.5118
40.8607 11.3862
41.0512 11.2023
41.242 11.0568
41.4327 10.8728
41.6236 10.7832
41.8146 10.6957
42.0057 10.4874
42.1969 10.343
42.3882 10.2055
42.5797 10.1119
42.7713 9.97171
42.963 9.88376
43.1549 9.73884
43.3468 9.54437
43.5389 9.45735
43.7312 9.28423
43.9237 9.18203
44.1162 9.01366
44.3088 8.90885
44.5016 8.80053
44.6945 8.68457
44.8875 8.60459
45.0806 8.45889
45.2739 8.33217
45.4673 8.2172
45.6609 8.15259
45.8546 8.00014
46.0484 7.94729
46.2424 7.74644
46.4365 7.70109
46.631 7.52567
46.8254 7.42821
47.0199 7.32453
47.2146 7.23618
47.4095 7.11341
47.6044 7.03393
47.7996 6.90989
47.9948 6.81011
48.1902 6.72407
48.3858 6.61821
48.5815 6.555
48.7774 6.43396
48.9734 6.36709
49.1696 6.25458
49.3661 6.14328
49.5626 6.07331
49.7592 6.00619
49.956 5.937
50.153 5.80667
50.3501 5.72381
50.5474 5.6831
50.7448 5.56964
50.9424 5.49092
51.1402 5.43073
51.3381 5.31888
51.5362 5.24147
51.7344 5.16741
51.9328 5.0875
52.1316 4.96887
52.3304 4.92925
52.5293 4.85226
52.7284 4.77556
52.9276 4.68495
53.1271 4.6253
53.3267 4.5373
53.5265 4.45854
53.7264 4.36421
53.9266 4.32073
54.1269 4.18684
54.3274 4.14569
54.528 3.97421
54.7289 3.88303
54.9301 3.71719
55.1314 3.61753
55.3328 3.39627
55.5344 3.25592
55.7361 3.16904

File: Ni3Fe_FD0072.xy
TT I
1.27165 22.0504
1.45013 17.3078
1.62863 14.7227
1.80712 12.5937
1.98562 12.2434
2.16411 12.1729
2.34263 12.2897
2.52115 12.1537
2.69965 14.232
2.87818 19.1823
3.05672 33.0513
3.23527 32.2544
3.4138 22.3224
3.59237 20.7097
3.77094 21.8972
3.9495 24.5629
4.12809 28.1898
4.30669 34.3419
4.4853 38.4688
4.6639 45.6013
4.84253 58.9156
5.02118 101.603
5.19981 498.037
5.37848 2107.74
5.55716 134.298
5.73586 100.807
5.91455 124.981
6.09328 821.723
6.27201 156.388
6.45075 61.9812
6.62952 49.2374
6.8083 44.0183
6.98711 42.5002
7.16591 42.4253
7.34475 40.9928
7.5236 71.8908
7.70247 43.5773
7.88135 42.5996
8.06026 45.3669
8.23919 51.8554
8.41812 68.1276
8.59709 272.784
8.77609 219.141
8.9551 73.5685
9.13412 68.5428
9.31318 198.121
9.49226 64.5514
9.67134 65.6554
9.85047 74.5057
10.0296 243.93
10.2088 902.441
10.388 92.0565
10.5672 115.119
10.7465 128.45
10.9257 56.1873
11.105 50.6611
11.2844 47.5097
11.4637 45.414
11.6431 44.4297
11.8225 44.955
12.002 99.2062
12.1814 57.218
12.3609 77.9072
12.5405 45.7465
12.72 45.4243
12.8996 48.1078
13.0792 58.2527
13.2589 84.8027
13.4386 217.749
13.6183 84.5009
13.7981 178.815
13.9779 56.4822
14.1577 79.8274
14.3376 49.8475
14.5175 47.7296
14.6974 48.1993
14.8774 62.891
15.0574 108.575
15.2374 53.3827
15.4175 46.072
15.5976 45.7238
15.7778 57.6839
15.958 85.1148
16.1382 58.6578
16.3185 41.0691
16.4988 38.6516
16.6792 37.6906
16.8596 37.9189
17.04 40.4335
17.2205 40.3832
17.401 49.6224
17.5815 40.8883
17.7622 43.8035
17.9428 50.0595
18.1237 52.7178
18.3044 67.5626
18.4852 65.8484
18.666 44.8933
18.8469 40.4368
19.0278 39.1416
19.2088 40.5774
19.3898 47.3841
19.5709 43.6069
19.752 36.9932
19.9332 37.9062
20.1144 38.8276
20.2957 42.0115
20.477 43.1629
20.6586 34.8657
20.84 36.3238
21.0215 33.4694
21.203 33.3002
21.3846 34.7623
21.5662 33.6669
21.7479 34.5304
21.9297 35.8319
22.1115 40.5538
22.2933 37.7209
22.4753 33.6222
22.6572 33.1585
22.8393 34.4297
23.0214 34.6941
23.2037 36.0731
23.3859 34.5452
23.5682 33.8959
23.7505 38.3949
23.9329 31.9855
24.1154 30.9787
24.2979 30.0873
24.4805 29.4772
24.6631 29.9905
24.8458 29.3009
25.0286 28.9806
25.2114 29.1426
25.3943 29.6703
25.5773 29.5481
25.7605 28.0682
25.9436 27.8576
26.1268 27.747
26.31 28.4091
26.4933 27.5413
26.6767 27.5798
26.8601 28.6202
27.0437 27.682
27.2272 26.6241
27.4109 26.3301
27.5946 26.2449
27.7784 26.3299
27.9623 25.8858
28.1462 26.1118
28.3304 26.134
28.5145 25.1095
28.6987 24.6033
28.8829 24.1459
29.0673 24.1818
29.2517 23.7192
29.4361 23.2747
29.6207 23.2288
29.8053 22.7149
29.99 22.4805
30.1748 22.3961
30.3597 22.2056
30.5447 22.0481
30.7297 21.8834
30.915 21.9366
31.1002 21.7147
31.2855 21.3023
31.4708 21.2173
31.6563 21.1553
31.8418 20.805
32.0275 20.6644
32.2132 20.511
32.399 20.1304
32.5848 19.8807
32.7708 19.6437
32.9569 19.4464
33.143 19.266
33.3293 19.0362
33.5158 18.8997
33.7022 18.5722
33.8887 18.2748
34.0753 18.1463
34.262 17.9243
34.4488 17.6412
34.6357 17.4463
34.8227 17.2358
35.0098 17.0429
35.1969 16.9346
35.3842 16.6596
35.5716 16.5479
35.759 16.3834
35.9468 16.2177
36.1345 15.9897
36.3222 15.8803
36.5101 15.6729
36.6981 15.4184
36.8861 15.2173
37.0743 15.0292
37.2626 14.8998
37.451 14.6117
37.6395 14.5986
37.8281 14.3365
38.0168 14.1484
38.2056 14.0169
38.3945 13.7349
38.5837 13.6568
38.7728 13.4267
38.9621 13.2513
39.1514 13.0342
39.3409 12.8945
39.5304 12.7298
39.7201 12.6711
39.9099 12.4867
40.0999 12.3292
40.2899 12.1415
40.48 12.0125
40.6703 11.847
40.8607 11.7531
41.0512 11.5926
41.242 11.3689
41.4327 11.2848
41.6236 11.0702
41.8146 10.9858
42.0057 10.7962
42.1969 10.6529
42.3882 10.559
42.5797 10.3873
42.7713 10.2706
42.963 10.1414
43.1549 10.0009
43.3468 9.79835
43.5389 9.73133
43.7312 9.58247
43.9237 9.425
44.1162 9.27468
44.3088 9.16658
44.5016 9.0718
44.6945 8.93854
44.8875 8.83141
45.0806 8.7265
45.2739 8.60226
45.4673 8.44678
45.6609 8.33467
45.8546 8.23481
46.0484 8.16529
46.2424 7.97649
46.4365 7.89391
46.631 7.78024
46.8254 7.66142
47.0199 7.56105
47.2146 7.49056
47.4095 7.3263
47.6044 7.20213
47.7996 7.10297
47.9948 7.01689
48.1902 6.92067
48.3858 6.82238
48.5815 6.74438
48.7774 6.64948
48.9734 6.53659
49.1696 6.46524
49.3661 6.34117
49.5626 6.21591
49.7592 6.16119
49.956 6.09338
50.153 5.99693
50.3501 5.88657
50.5474 5.83396
50.7448 5.72965
50.9424 5.63408
51.1402 5.54755
51.3381 5.42927
51.5362 5.36581
51.7344 5.24441
51.9328 5.21002
52.1316 5.11227
52.3304 5.02647
52.5293 4.93256
52.7284 4.90477
52.9276 4.79513
53.1271 4.72547
53.3267 4.65881
53.5265 4.55955
53.7264 4.45722
53.9266 4.44538
54.1269 4.28221
54.3274 4.21174
54.528 4.02627
54.7289 3.89202
54.9301 3.80222
55.1314 3.67473
55.3328 3.4896
55.5344 3.36661
55.7361 3.27015

File: Ni3Fe_FD0073.xy
TT I
1.27165 18.2493
1.45013 13.8962
1.62863 12.4011
1.80712 11.1713
1.98562 10.4049
2.16411 9.73222
2.34263 9.6652
2.52115 9.18798
2.69965 11.4009
2.87818 14.093
3.05672 24.1454
3.23527 25.0894
3.4138 19.7073
3.59237 20.0055
3.77094 21.4653
3.9495 24.5073
4.12809 27.7367
4.30669 34.0671
4.4853 38.7835
4.6639 46.3717
4.84253 59.5551
5.02118 99.805
5.19981 542.631
5.37848 2086.17
5.55716 129.247
5.73586 99.533
5.91455 123.164
6.09328 875.484
6.27201 141.72
6.45075 61.3919
6.62952 49.9155
6.8083 45.0127
6.98711 43.4625
7.16591 43.0493
7.34475 42.2007
7.5236 74.7451
7.70247 45.2583
7.88135 43.6573
8.06026 46.8933
8.23919 53.2185
8.41812 70.5531
8.59709 305.655
8.77609 202.299
8.9551 74.4282
9.13412 70.5826
9.31318 207.66
9.49226 66.9183
9.67134 68.6709
9.85047 78.0722
10.0296 294.686
10.2088 1032.67
10.388 92.5594
10.5672 118.595
10.7465 129.269
10.9257 58.8737
11.105 52.9163
11.2844 49.831
11.4637 47.3436
11.6431 46.6924
11.8225 46.9398
12.002 103.859
12.1814 60.5816
12.3609 81.6121
12.5405 47.527
12.72 47.593
12.8996 50.8051
13.0792 62.0725
13.2589 93.0169
13.4386 241.524
13.6183 89.3907
13.7981 193.256
13.9779 58.7499
14.1577 87.2779
14.3376 52.5914
14.5175 50.3205
14.6974 50.9335
14.8774 69.7407
15.0574 121.396
15.2374 55.1743
15.4175 48.5134
15.5976 48.0976
15.7778 63.872
15.958 92.3423
16.1382 59.9684
16.3185 42.8685
16.4988 40.538
16.6792 39.6394
16.8596 39.9924
17.04 42.6775
17.2205 42.9908
17.401 53.4112
17.5815 43.1996
17.7622 46.4952
17.9428 54.8404
18.1237 55.3242
18.3044 70.9292
18.4852 71.8374
18.666 47.0024
18.8469 42.5498
19.0278 41.3574
19.2088 43.2931
19.3898 49.7999
19.5709 46.015
19.752 38.8376
19.9332 40.3376
20.1144 41.2532
20.2957 44.0801
20.477 46.2727
20.6586 36.6414
20.84 37.961
21.0215 35.3839
21.203 34.7843
21.3846 36.9189
21.5662 35.4791
21.7479 36.8421
21.9297 37.9363
22.1115 42.9317
22.2933 40.2573
22.4753 35.3833
22.6572 35.2426
22.8393 36.564
23.0214 36.6247
23.2037 38.1172
23.3859 36.6933
23.5682 35.4938
23.7505 41.3163
23.9329 33.6054
24.1154 32.613
24.2979 31.555
24.4805 31.2181
24.6631 31.5858
24.8458 30.7224
25.0286 30.5484
25.2114 30.8501
25.3943 31.393
25.5773 31.2901
25.7605 29.4515
25.9436 29.3076
26.1268 29.1099
26.31 29.9147
26.4933 28.9793
26.6767 29.0152
26.8601 30.1929
27.0437 29.0729
27.2272 28.0886
27.4109 27.8574
27.5946 27.6153
27.7784 27.8607
27.9623 27.3041
28.1462 27.4689
28.3304 27.3727
28.5145 26.5579
28.6987 25.9409
28.8829 25.5514
29.0673 25.4436
29.2517 24.9847
29.4361 24.6664
29.6207 24.4757
29.8053 24.0019
29.99 23.7085
30.1748 23.5404
30.3597 23.5259
30.5447 23.1407
30.7297 23.0502
30.915 23.2554
31.1002 22.8991
31.2855 22.4976
31.4708 22.317
31.6563 22.1854
31.8418 21.8242
32.0275 21.6689
32.2132 21.5913
32.399 21.1741
32.5848 20.8281
32.7708 20.5447
32.9569 20.5123
33.143 20.2046
33.3293 20.0144
33.5158 19.9289
33.7022 19.443
33.8887 19.2256
34.0753 18.9738
34.262 18.7096
34.4488 18.4673
34.6357 18.2483
34.8227 17.9904
35.0098 17.8635
35.1969 17.6318
35.3842 17.4472
35.5716 17.3181
35.759 17.1645
35.9468 16.7576
36.1345 16.6732
36.3222 16.4766
36.5101 16.3663
36.6981 16.0931
36.8861 15.8814
37.0743 15.6545
37.2626 15.4738
37.451 15.2761
37.6395 15.1665
37.8281 14.9323
38.0168 14.7415
38.2056 14.5448
38.3945 14.3491
38.5837 14.1534
38.7728 13.9828
38.9621 13.8089
39.1514 13.5617
39.3409 13.4309
39.5304 13.2832
39.7201 13.113
39.9099 12.9448
40.0999 12.7863
40.2899 12.6594
40.48 12.4638
40.6703 12.3629
40.8607 12.1454
41.0512 11.9875
41.242 11.8358
41.4327 11.6842
41.6236 11.47
41.8146 11.3933
42.0057 11.2775
42.1969 11.053
42.3882 10.973
42.5797 10.7418
42.7713 10.6715
42.963 10.5034
43.1549 10.3533
43.3468 10.2505
43.5389 10.0699
43.7312 9.92806
43.9237 9.84546
44.1162 9.66617
44.3088 9.56639
44.5016 9.3887
44.6945 9.31282
44.8875 9.13597
45.0806 8.99993
45.2739 8.86071
45.4673 8.76662
45.6609 8.65919
45.8546 8.55372
46.0484 8.43461
46.2424 8.30116
46.4365 8.20702
46.631 8.03781
46.8254 7.93607
47.0199 7.83621
47.2146 7.70343
47.4095 7.58616
47.6044 7.46746
47.7996 7.37752
47.9948 7.27229
48.1902 7.14645
48.3858 7.07983
48.5815 6.95058
48.7774 6.89202
48.9734 6.74406
49.1696 6.64233
49.3661 6.57405
49.5626 6.47483
49.7592 6.34809
49.956 6.27124
50.153 6.18467
50.3501 6.08069
50.5474 5.99715
50.7448 5.89305
50.9424 5.81845
51.1402 5.71563
51.3381 5.60798
51.5362 5.55652
51.7344 5.47558
51.9328 5.30657
52.1316 5.23456
52.3304 5.17865
52.5293 5.10569
52.7284 4.98117
52.9276 4.9296
53.1271 4.85048
53.3267 4.76646
53.5265 4.69983
53.7264 4.60254
53.9266 4.52175
54.1269 4.42445
54.3274 4.3254
54.528 4.14466
54.7289 4.0124
54.9301 3.84654
55.1314 3.78944
55.3328 3.66808
55.5344 3.47107
55.7361 3.38567

File: Ni3Fe_FD0074.xy
TT I
1.27165 15.2959
1.45013 11.6616
1.62863 10.0205
1.80712 8.60929
1.98562 9.00144
2.16411 9.41603
2.34263 8.65967
2.52115 7.59827
2.69965 9.47737
2.87818 12.582
3.05672 18.2192
3.23527 20.2665
3.4138 19.1323
3.59237 20.3551
3.77094 22.6214
3.9495 25.707
4.12809 28.4859
4.30669 34.6441
4.4853 39.7892
4.6639 47.9675
4.84253 61.3325
5.02118 99.4654
5.19981 600.768
5.37848 2059.23
5.55716 126.3
5.73586 99.0994
5.91455 122.878
6.09328 957.005
6.27201 128.491
6.45075 61.858
6.62952 51.8046
6.8083 47.2105
6.98711 45.5401
7.16591 44.9918
7.34475 44.4387
7.5236 81.7906
7.70247 47.5319
7.88135 46.6516
8.06026 49.9271
8.23919 56.6722
8.41812 74.3624
8.59709 355.098
8.77609 186.102
8.9551 76.4086
9.13412 73.8638
9.31318 218.625
9.49226 70.8111
9.67134 72.9903
9.85047 82.4665
10.0296 360.487
10.2088 1171.71
10.388 95.1158
10.5672 125.534
10.7465 132.36
10.9257 62.2272
11.105 56.7104
11.2844 53.3297
11.4637 50.5888
11.6431 50.0502
11.8225 50.4493
12.002 111.167
12.1814 65.7569
12.3609 86.3868
12.5405 50.7314
12.72 51.4964
12.8996 54.6255
13.0792 67.6375
13.2589 106.191
13.4386 269.5
13.6183 98.5557
13.7981 210.126
13.9779 62.9211
14.1577 96.212
14.3376 56.5238
14.5175 54.1908
14.6974 55.0832
14.8774 79.6322
15.0574 138.89
15.2374 58.3449
15.4175 52.2345
15.5976 51.7728
15.7778 73.0933
15.958 103.965
16.1382 63.4871
16.3185 46.0147
16.4988 43.7195
16.6792 42.679
16.8596 43.3505
17.04 46.2988
17.2205 47.1416
17.401 59.3633
17.5815 46.3337
17.7622 50.826
17.9428 61.935
18.1237 59.9861
18.3044 75.8574
18.4852 80.3527
18.666 50.6079
18.8469 45.994
19.0278 44.8515
19.2088 47.4015
19.3898 53.7596
19.5709 49.6954
19.752 42.1308
19.9332 44.2143
20.1144 45.0416
20.2957 47.731
20.477 50.9163
20.6586 39.4999
20.84 41.1495
21.0215 38.2678
21.203 37.8942
21.3846 40.2101
21.5662 38.6126
21.7479 40.5893
21.9297 41.3892
22.1115 46.7952
22.2933 43.8493
22.4753 38.2349
22.6572 38.2171
22.8393 39.8283
23.0214 39.7623
23.2037 41.1597
23.3859 40.2737
23.5682 38.4696
23.7505 45.3139
23.9329 36.1634
24.1154 35.2973
24.2979 34.3246
24.4805 33.6556
24.6631 34.1868
24.8458 33.4271
25.0286 33.2967
25.2114 33.2635
25.3943 33.9419
25.5773 33.9483
25.7605 31.8972
25.9436 31.8656
26.1268 31.5018
26.31 32.7009
26.4933 31.5673
26.6767 31.4874
26.8601 32.7221
27.0437 31.6531
27.2272 30.4803
27.4109 30.0634
27.5946 30.0083
27.7784 30.2483
27.9623 29.7452
28.1462 29.9076
28.3304 29.8649
28.5145 28.7579
28.6987 28.1649
28.8829 27.7131
29.0673 27.6837
29.2517 27.0483
29.4361 26.5554
29.6207 26.5468
29.8053 25.8991
29.99 25.722
30.1748 25.4986
30.3597 25.4275
30.5447 25.3156
30.7297 24.9215
30.915 25.2614
31.1002 24.7655
31.2855 24.3539
31.4708 24.0643
31.6563 24.0815
31.8418 23.7076
32.0275 23.4255
32.2132 23.339
32.399 22.8485
32.5848 22.4205
32.7708 22.2792
32.9569 22.11
33.143 21.7954
33.3293 21.5186
33.5158 21.4604
33.7022 20.9457
33.8887 20.7322
34.0753 20.5334
34.262 20.1837
34.4488 19.9359
34.6357 19.6972
34.8227 19.376
35.0098 19.2093
35.1969 18.9608
35.3842 18.7529
35.5716 18.6164
35.759 18.3948
35.9468 18.0961
36.1345 17.9328
36.3222 17.786
36.5101 17.586
36.6981 17.3216
36.8861 17.11
37.0743 16.9073
37.2626 16.6685
37.451 16.4277
37.6395 16.3048
37.8281 16.0316
38.0168 15.8003
38.2056 15.6643
38.3945 15.4446
38.5837 15.2138
38.7728 15.0274
38.9621 14.847
39.1514 14.6345
39.3409 14.4558
39.5304 14.2502
39.7201 14.0823
39.9099 13.9374
40.0999 13.7328
40.2899 13.6004
40.48 13.3721
40.6703 13.2738
40.8607 13.0624
41.0512 12.9402
41.242 12.7585
41.4327 12.5759
41.6236 12.3666
41.8146 12.2818
42.0057 12.0886
42.1969 11.9246
42.3882 11.8042
42.5797 11.5811
42.7713 11.4583
42.963 11.3018
43.1549 11.1482
43.3468 10.9548
43.5389 10.8749
43.7312 10.7026
43.9237 10.5388
44.1162 10.38
44.3088 10.2594
44.5016 10.0806
44.6945 10.0009
44.8875 9.84078
45.0806 9.67617
45.2739 9.59523
45.4673 9.48316
45.6609 9.30564
45.8546 9.18878
46.0484 9.09731
46.2424 8.95075
46.4365 8.81515
46.631 8.67772
46.8254 8.52814
47.0199 8.43078
47.2146 8.29971
47.4095 8.18096
47.6044 8.04425
47.7996 7.94842
47.9948 7.82878
48.1902 7.71436
48.3858 7.58739
48.5815 7.5214
48.7774 7.42852
48.9734 7.29798
49.1696 7.16981
49.3661 7.0917
49.5626 6.96423
49.7592 6.88862
49.956 6.77604
50.153 6.64241
50.3501 6.53134
50.5474 6.47963
50.7448 6.3998
50.9424 6.2867
51.1402 6.19386
51.3381 6.05915
51.5362 5.96667
51.7344 5.87123
51.9328 5.77663
52.1316 5.68132
52.3304 5.61372
52.5293 5.49539
52.7284 5.44659
52.9276 5.32984
53.1271 5.26965
53.3267 5.15925
53.5265 5.03299
53.7264 4.94007
53.9266 4.9063
54.1269 4.77361
54.3274 4.61817
54.528 4.47017
54.7289 4.38426
54.9301 4.20578
55.1314 4.08919
55.3328 3.94243
55.5344 3.82433
55.7361 3.64013