Folder: NiFe_MOF_catalyst_paper/XRD (part 116)

File: Ni3Fe_FD0628.xy
TT I
1.27165 7.04401
1.45013 6.2148
1.62863 5.2354
1.80712 5.01069
1.98562 4.56769
2.16411 4.6452
2.34263 5.17312
2.52115 6.34644
2.69965 8.66702
2.87818 8.28595
3.05672 11.3281
3.23527 15.2701
3.4138 18.6229
3.59237 24.6233
3.77094 26.3863
3.9495 29.6914
4.12809 34.8797
4.30669 231.526
4.4853 67.4419
4.6639 55.3953
4.84253 67.5269
5.02118 86.4155
5.19981 343.651
5.37848 194.887
5.55716 102.384
5.73586 92.5323
5.91455 94.236
6.09328 4335.09
6.27201 84.1929
6.45075 67.7405
6.62952 62.9983
6.8083 58.8953
6.98711 55.8563
7.16591 55.5886
7.34475 96.2931
7.5236 55.0526
7.70247 56.3143
7.88135 57.9467
8.06026 62.4102
8.23919 69.8085
8.41812 85.2854
8.59709 1137.9
8.77609 100.163
8.9551 92.6297
9.13412 82.217
9.31318 82.4968
9.49226 84.9198
9.67134 99.7548
9.85047 100.017
10.0296 329.646
10.2088 428.414
10.388 105.179
10.5672 502.89
10.7465 87.027
10.9257 79.1093
11.105 71.8743
11.2844 70.9111
11.4637 65.3708
11.6431 63.876
11.8225 62.9239
12.002 63.6527
12.1814 151.006
12.3609 71.4745
12.5405 64.7305
12.72 70.3204
12.8996 71.1284
13.0792 78.8117
13.2589 232.442
13.4386 128.435
13.6183 243.726
13.7981 100.879
13.9779 76.2145
14.1577 73.055
14.3376 72.095
14.5175 69.0929
14.6974 70.7689
14.8774 109.035
15.0574 151.28
15.2374 71.7138
15.4175 66.4824
15.5976 65.9539
15.7778 94.1535
15.958 157.911
16.1382 63.394
16.3185 59.1556
16.4988 56.0123
16.6792 54.8278
16.8596 55.5473
17.04 56.0226
17.2205 66.4739
17.401 72.5096
17.5815 59.6686
17.7622 61.3997
17.9428 73.5182
18.1237 138.994
18.3044 90.7362
18.4852 78.9865
18.666 60.603
18.8469 58.2707
19.0278 57.1064
19.2088 59.794
19.3898 77.0524
19.5709 54.4431
19.752 53.5499
19.9332 56.3516
20.1144 69.641
20.2957 64.0476
20.477 54.1141
20.6586 49.9219
20.84 49.1995
21.0215 48.6696
21.203 50.954
21.3846 49.3557
21.5662 48.8022
21.7479 52.6863
21.9297 64.651
22.1115 56.396
22.2933 50.1315
22.4753 49.0262
22.6572 48.8589
22.8393 51.991
23.0214 57.9147
23.2037 48.9627
23.3859 49.9913
23.5682 57.0646
23.7505 48.5618
23.9329 45.426
24.1154 44.3453
24.2979 43.7182
24.4805 43.2034
24.6631 43.0474
24.8458 42.332
25.0286 42.9524
25.2114 44.7875
25.3943 44.8031
25.5773 41.1282
25.7605 40.6282
25.9436 41.04
26.1268 41.8969
26.31 40.2648
26.4933 40.851
26.6767 42.3101
26.8601 40.6675
27.0437 39.0479
27.2272 38.7543
27.4109 38.7097
27.5946 38.5649
27.7784 37.9815
27.9623 38.6941
28.1462 39.0111
28.3304 37.4641
28.5145 36.17
28.6987 35.7442
28.8829 35.4959
29.0673 34.8781
29.2517 34.4673
29.4361 34.3813
29.6207 33.287
29.8053 33.066
29.99 32.6771
30.1748 32.5482
30.3597 32.4573
30.5447 32.297
30.7297 32.3156
30.915 31.8256
31.1002 31.1961
31.2855 31.0172
31.4708 31.0038
31.6563 30.5373
31.8418 30.2469
32.0275 30.0303
32.2132 29.5116
32.399 29.0945
32.5848 28.5168
32.7708 28.2694
32.9569 28.1532
33.143 27.9751
33.3293 27.4845
33.5158 27.1623
33.7022 26.7223
33.8887 26.4949
34.0753 26.1509
34.262 25.835
34.4488 25.4037
34.6357 25.0978
34.8227 24.8188
35.0098 24.5769
35.1969 24.2851
35.3842 24.0068
35.5716 23.9211
35.759 23.5554
35.9468 23.2424
36.1345 22.9697
36.3222 22.7926
36.5101 22.5411
36.6981 22.2179
36.8861 21.924
37.0743 21.6343
37.2626 21.4091
37.451 21.1337
37.6395 20.9832
37.8281 20.5808
38.0168 20.2866
38.2056 20.0772
38.3945 19.8155
38.5837 19.5426
38.7728 19.3196
38.9621 19.0403
39.1514 18.7848
39.3409 18.5513
39.5304 18.3611
39.7201 18.1166
39.9099 17.972
40.0999 17.653
40.2899 17.4339
40.48 17.2318
40.6703 17.0129
40.8607 16.8274
41.0512 16.5453
41.242 16.37
41.4327 16.1982
41.6236 15.9293
41.8146 15.7491
42.0057 15.4979
42.1969 15.294
42.3882 15.1704
42.5797 14.9496
42.7713 14.7037
42.963 14.5023
43.1549 14.3342
43.3468 14.1042
43.5389 13.8832
43.7312 13.723
43.9237 13.4981
44.1162 13.3458
44.3088 13.1511
44.5016 12.9391
44.6945 12.8058
44.8875 12.6263
45.0806 12.4024
45.2739 12.2531
45.4673 12.0935
45.6609 11.9364
45.8546 11.7699
46.0484 11.5843
46.2424 11.4485
46.4365 11.2916
46.631 11.1074
46.8254 10.9178
47.0199 10.7802
47.2146 10.628
47.4095 10.4436
47.6044 10.3286
47.7996 10.1249
47.9948 9.99441
48.1902 9.85691
48.3858 9.73695
48.5815 9.5711
48.7774 9.44355
48.9734 9.26896
49.1696 9.18284
49.3661 8.98734
49.5626 8.89312
49.7592 8.72804
49.956 8.56314
50.153 8.4764
50.3501 8.33249
50.5474 8.23574
50.7448 8.0938
50.9424 7.99372
51.1402 7.86076
51.3381 7.72648
51.5362 7.58403
51.7344 7.47564
51.9328 7.31382
52.1316 7.16373
52.3304 7.13664
52.5293 6.99499
52.7284 6.88983
52.9276 6.75544
53.1271 6.64955
53.3267 6.5627
53.5265 6.40543
53.7264 6.31442
53.9266 6.20362
54.1269 6.12132
54.3274 5.98535
54.528 5.86993
54.7289 5.69746
54.9301 5.53941
55.1314 5.38122
55.3328 5.1338
55.5344 4.98184
55.7361 4.86544

File: Ni3Fe_FD0629.xy
TT I
1.27165 7.51182
1.45013 6.64134
1.62863 5.8112
1.80712 4.80196
1.98562 5.17388
2.16411 5.41297
2.34263 4.91341
2.52115 6.42389
2.69965 7.28811
2.87818 8.69245
3.05672 11.0029
3.23527 15.166
3.4138 18.7824
3.59237 24.3513
3.77094 26.0804
3.9495 30.3052
4.12809 34.3483
4.30669 234.635
4.4853 67.5824
4.6639 55.3492
4.84253 66.9977
5.02118 87.171
5.19981 344.452
5.37848 195.25
5.55716 102.465
5.73586 92.3008
5.91455 93.8543
6.09328 4352.88
6.27201 84.1292
6.45075 67.7375
6.62952 63.338
6.8083 58.9307
6.98711 56.0288
7.16591 55.9164
7.34475 96.5447
7.5236 54.9709
7.70247 56.5869
7.88135 58.3883
8.06026 62.366
8.23919 69.7263
8.41812 85.2471
8.59709 1137.63
8.77609 100.177
8.9551 92.5022
9.13412 82.1567
9.31318 82.5066
9.49226 84.3001
9.67134 99.7546
9.85047 99.597
10.0296 332.04
10.2088 428.036
10.388 105.395
10.5672 504.16
10.7465 87.0728
10.9257 79.0627
11.105 71.961
11.2844 71.0061
11.4637 65.2096
11.6431 63.9499
11.8225 62.89
12.002 63.7337
12.1814 150.452
12.3609 72.1046
12.5405 64.8542
12.72 70.6471
12.8996 71.1709
13.0792 78.7808
13.2589 232.593
13.4386 128.025
13.6183 243.089
13.7981 100.624
13.9779 76.0876
14.1577 72.9029
14.3376 72.1899
14.5175 69.0617
14.6974 70.8692
14.8774 109.271
15.0574 152.087
15.2374 71.5804
15.4175 66.5086
15.5976 66.0348
15.7778 94.0509
15.958 158.491
16.1382 63.2923
16.3185 59.2786
16.4988 55.8705
16.6792 54.8478
16.8596 55.2924
17.04 55.8614
17.2205 66.6467
17.401 72.734
17.5815 59.4749
17.7622 61.4355
17.9428 73.4088
18.1237 138.602
18.3044 90.3329
18.4852 78.9439
18.666 60.7643
18.8469 58.3857
19.0278 57.4014
19.2088 59.6833
19.3898 76.7308
19.5709 54.6099
19.752 53.6214
19.9332 56.3285
20.1144 69.8314
20.2957 64.1203
20.477 54.1753
20.6586 49.9787
20.84 49.0113
21.0215 48.7783
21.203 50.9137
21.3846 49.1555
21.5662 48.8887
21.7479 52.6735
21.9297 64.7396
22.1115 56.4021
22.2933 50.2703
22.4753 49.0529
22.6572 48.9215
22.8393 52.0558
23.0214 57.8555
23.2037 48.8883
23.3859 49.9637
23.5682 56.8049
23.7505 48.9063
23.9329 45.5633
24.1154 44.3733
24.2979 43.5962
24.4805 43.0362
24.6631 43.0882
24.8458 42.3821
25.0286 43.0674
25.2114 44.8992
25.3943 44.883
25.5773 41.0293
25.7605 40.6367
25.9436 40.9868
26.1268 41.933
26.31 40.3187
26.4933 40.8101
26.6767 42.3717
26.8601 40.8072
27.0437 39.102
27.2272 38.6106
27.4109 38.5357
27.5946 38.5644
27.7784 38.0091
27.9623 38.6092
28.1462 38.916
28.3304 37.4457
28.5145 36.0984
28.6987 35.6759
28.8829 35.5876
29.0673 34.922
29.2517 34.5244
29.4361 34.3213
29.6207 33.3721
29.8053 33.0649
29.99 32.6715
30.1748 32.553
30.3597 32.4077
30.5447 32.2997
30.7297 32.3689
30.915 31.7722
31.1002 31.3038
31.2855 30.9993
31.4708 30.9182
31.6563 30.4848
31.8418 30.3174
32.0275 30.0746
32.2132 29.6302
32.399 29.0851
32.5848 28.6006
32.7708 28.295
32.9569 28.1588
33.143 27.8935
33.3293 27.5812
33.5158 27.2725
33.7022 26.7239
33.8887 26.4728
34.0753 26.1546
34.262 25.7264
34.4488 25.3922
34.6357 25.0549
34.8227 24.8516
35.0098 24.6239
35.1969 24.3655
35.3842 24.053
35.5716 23.8954
35.759 23.5914
35.9468 23.2409
36.1345 23.0164
36.3222 22.7244
36.5101 22.4841
36.6981 22.2915
36.8861 21.8642
37.0743 21.6611
37.2626 21.3861
37.451 21.1556
37.6395 20.8697
37.8281 20.5732
38.0168 20.3468
38.2056 20.1434
38.3945 19.7319
38.5837 19.5205
38.7728 19.352
38.9621 19.0348
39.1514 18.7961
39.3409 18.5942
39.5304 18.3409
39.7201 18.2073
39.9099 17.9793
40.0999 17.6479
40.2899 17.4522
40.48 17.1786
40.6703 17.0638
40.8607 16.8982
41.0512 16.6074
41.242 16.2649
41.4327 16.1765
41.6236 15.9592
41.8146 15.7263
42.0057 15.4768
42.1969 15.2837
42.3882 15.1518
42.5797 14.9188
42.7713 14.6679
42.963 14.5072
43.1549 14.2994
43.3468 14.0461
43.5389 13.9294
43.7312 13.7296
43.9237 13.5614
44.1162 13.3494
44.3088 13.1705
44.5016 12.9664
44.6945 12.8208
44.8875 12.6342
45.0806 12.4263
45.2739 12.2317
45.4673 12.0945
45.6609 11.9043
45.8546 11.7673
46.0484 11.5852
46.2424 11.4436
46.4365 11.2892
46.631 11.1011
46.8254 10.9012
47.0199 10.7962
47.2146 10.645
47.4095 10.4434
47.6044 10.2805
47.7996 10.1313
47.9948 10.0118
48.1902 9.86472
48.3858 9.73351
48.5815 9.62051
48.7774 9.42019
48.9734 9.2964
49.1696 9.11822
49.3661 9.02811
49.5626 8.85596
49.7592 8.76332
49.956 8.61022
50.153 8.5231
50.3501 8.33434
50.5474 8.22797
50.7448 8.13079
50.9424 7.9734
51.1402 7.87157
51.3381 7.7167
51.5362 7.61968
51.7344 7.46932
51.9328 7.34419
52.1316 7.22941
52.3304 7.11423
52.5293 7.01653
52.7284 6.86903
52.9276 6.747
53.1271 6.6821
53.3267 6.52494
53.5265 6.37787
53.7264 6.32616
53.9266 6.23199
54.1269 6.07319
54.3274 5.98821
54.528 5.83776
54.7289 5.67031
54.9301 5.51926
55.1314 5.40678
55.3328 5.1738
55.5344 5.0218
55.7361 4.80848

File: Ni3Fe_FD0630.xy
TT I
1.27165 7.59184
1.45013 6.14929
1.62863 5.49549
1.80712 4.58767
1.98562 4.71536
2.16411 4.96579
2.34263 5.42162
2.52115 6.77173
2.69965 8.51579
2.87818 8.90599
3.05672 11.2129
3.23527 15.0261
3.4138 18.834
3.59237 24.6967
3.77094 26.4087
3.9495 30.1048
4.12809 35.237
4.30669 237.686
4.4853 67.6113
4.6639 55.3398
4.84253 67.4098
5.02118 86.7355
5.19981 343.912
5.37848 194.68
5.55716 102.603
5.73586 92.5038
5.91455 94.1725
6.09328 4392.83
6.27201 84.3719
6.45075 67.4789
6.62952 63.3665
6.8083 59.1416
6.98711 56.2921
7.16591 55.8012
7.34475 97.1174
7.5236 55.2579
7.70247 56.1846
7.88135 57.9449
8.06026 62.6132
8.23919 69.9546
8.41812 85.1625
8.59709 1141.13
8.77609 100.348
8.9551 92.3949
9.13412 82.1522
9.31318 82.5259
9.49226 84.5586
9.67134 99.9429
9.85047 99.8324
10.0296 329.973
10.2088 430.619
10.388 104.444
10.5672 505.678
10.7465 86.973
10.9257 79.0493
11.105 72.0004
11.2844 71.0452
11.4637 64.9568
11.6431 63.9123
11.8225 62.7401
12.002 63.803
12.1814 149.543
12.3609 71.9705
12.5405 64.7556
12.72 70.6591
12.8996 71.0202
13.0792 78.7721
13.2589 232.944
13.4386 128.293
13.6183 242.531
13.7981 100.671
13.9779 76.1469
14.1577 72.8923
14.3376 72.2072
14.5175 69.024
14.6974 70.7071
14.8774 108.898
15.0574 151.628
15.2374 71.7245
15.4175 66.5677
15.5976 65.996
15.7778 93.9919
15.958 158.771
16.1382 63.3589
16.3185 59.0224
16.4988 55.7826
16.6792 54.7817
16.8596 55.5612
17.04 55.9597
17.2205 66.4658
17.401 72.4322
17.5815 59.3428
17.7622 61.4093
17.9428 73.4133
18.1237 138.936
18.3044 90.2629
18.4852 79.2398
18.666 60.8019
18.8469 58.1798
19.0278 57.2219
19.2088 59.5852
19.3898 76.8308
19.5709 54.6057
19.752 53.4695
19.9332 56.2103
20.1144 69.6654
20.2957 63.8668
20.477 54.0449
20.6586 49.8912
20.84 49.0655
21.0215 48.6447
21.203 51.067
21.3846 49.2099
21.5662 48.7712
21.7479 52.732
21.9297 64.6406
22.1115 56.2914
22.2933 50.1034
22.4753 49.0982
22.6572 48.9536
22.8393 52.0729
23.0214 57.6551
23.2037 48.9613
23.3859 49.7699
23.5682 57.0151
23.7505 48.6763
23.9329 45.5089
24.1154 44.4055
24.2979 43.6134
24.4805 43.1007
24.6631 43.0531
24.8458 42.4377
25.0286 42.9298
25.2114 44.6468
25.3943 44.7371
25.5773 41.0426
25.7605 40.6249
25.9436 41.0418
26.1268 41.7131
26.31 40.2345
26.4933 40.9406
26.6767 42.2894
26.8601 40.6204
27.0437 39.0508
27.2272 38.6905
27.4109 38.619
27.5946 38.5335
27.7784 38.096
27.9623 38.5162
28.1462 39.0503
28.3304 37.3846
28.5145 36.0912
28.6987 35.7772
28.8829 35.6935
29.0673 34.8328
29.2517 34.4286
29.4361 34.2548
29.6207 33.4215
29.8053 33.0106
29.99 32.7772
30.1748 32.5713
30.3597 32.3502
30.5447 32.306
30.7297 32.1928
30.915 31.7364
31.1002 31.306
31.2855 30.975
31.4708 30.9942
31.6563 30.3906
31.8418 30.2709
32.0275 29.9957
32.2132 29.5479
32.399 29.0704
32.5848 28.718
32.7708 28.3261
32.9569 28.09
33.143 27.9661
33.3293 27.592
33.5158 27.1799
33.7022 26.7366
33.8887 26.4989
34.0753 26.0718
34.262 25.7271
34.4488 25.4019
34.6357 25.117
34.8227 24.7894
35.0098 24.5898
35.1969 24.2606
35.3842 24.1454
35.5716 23.8805
35.759 23.5594
35.9468 23.2222
36.1345 22.9993
36.3222 22.7495
36.5101 22.4614
36.6981 22.2027
36.8861 21.8806
37.0743 21.6372
37.2626 21.363
37.451 21.1234
37.6395 20.9646
37.8281 20.5774
38.0168 20.2818
38.2056 20.0339
38.3945 19.7624
38.5837 19.5599
38.7728 19.3408
38.9621 19.068
39.1514 18.7822
39.3409 18.5643
39.5304 18.2962
39.7201 18.1319
39.9099 18.021
40.0999 17.6593
40.2899 17.44
40.48 17.2209
40.6703 17.0464
40.8607 16.8627
41.0512 16.6149
41.242 16.3804
41.4327 16.1075
41.6236 15.9404
41.8146 15.7773
42.0057 15.5627
42.1969 15.2821
42.3882 15.0978
42.5797 14.8725
42.7713 14.7355
42.963 14.5042
43.1549 14.2728
43.3468 14.0896
43.5389 13.888
43.7312 13.6894
43.9237 13.5552
44.1162 13.3523
44.3088 13.2025
44.5016 12.9869
44.6945 12.8169
44.8875 12.6322
45.0806 12.4425
45.2739 12.234
45.4673 12.1199
45.6609 11.9425
45.8546 11.7428
46.0484 11.5705
46.2424 11.4391
46.4365 11.2523
46.631 11.0908
46.8254 10.8826
47.0199 10.7451
47.2146 10.6213
47.4095 10.4585
47.6044 10.3019
47.7996 10.1126
47.9948 9.99944
48.1902 9.86225
48.3858 9.68181
48.5815 9.58744
48.7774 9.43686
48.9734 9.28365
49.1696 9.16129
49.3661 8.99438
49.5626 8.85897
49.7592 8.75213
49.956 8.61718
50.153 8.48628
50.3501 8.32367
50.5474 8.22062
50.7448 8.10538
50.9424 7.99128
51.1402 7.86979
51.3381 7.73422
51.5362 7.58651
51.7344 7.47839
51.9328 7.37464
52.1316 7.17476
52.3304 7.13374
52.5293 6.97449
52.7284 6.89224
52.9276 6.73301
53.1271 6.62503
53.3267 6.52468
53.5265 6.43274
53.7264 6.31384
53.9266 6.1798
54.1269 6.11164
54.3274 6.00517
54.528 5.831
54.7289 5.70038
54.9301 5.53008
55.1314 5.39605
55.3328 5.20762
55.5344 5.00185
55.7361 4.79591

File: Ni3Fe_FD0631.xy
TT I
1.27165 7.63039
1.45013 5.84778
1.62863 4.76394
1.80712 4.66948
1.98562 4.6148
2.16411 4.87476
2.34263 5.20765
2.52115 6.39855
2.69965 7.44663
2.87818 8.45566
3.05672 11.4396
3.23527 15.0294
3.4138 19.241
3.59237 24.3939
3.77094 26.2525
3.9495 30.1266
4.12809 34.8864
4.30669 239.968
4.4853 67.8902
4.6639 55.5383
4.84253 67.1708
5.02118 87.0288
5.19981 342.848
5.37848 195.764
5.55716 102.479
5.73586 92.5339
5.91455 94.0068
6.09328 4395.03
6.27201 83.9818
6.45075 67.6969
6.62952 63.2459
6.8083 58.8846
6.98711 56.0806
7.16591 55.4394
7.34475 97.1094
7.5236 55.1255
7.70247 56.2103
7.88135 58.3641
8.06026 62.1518
8.23919 69.777
8.41812 85.2969
8.59709 1137.58
8.77609 100.181
8.9551 92.2814
9.13412 81.8236
9.31318 82.4046
9.49226 84.6734
9.67134 99.9952
9.85047 99.7295
10.0296 329.993
10.2088 429.502
10.388 105.002
10.5672 506.058
10.7465 86.6593
10.9257 78.8882
11.105 72.1781
11.2844 71.2913
11.4637 65.3497
11.6431 64.0432
11.8225 62.6954
12.002 63.7985
12.1814 149.837
12.3609 72.0304
12.5405 64.7159
12.72 70.6119
12.8996 71.0579
13.0792 78.9977
13.2589 232.221
13.4386 128.239
13.6183 242.002
13.7981 101.121
13.9779 76.0358
14.1577 72.5017
14.3376 72.0198
14.5175 68.8873
14.6974 70.6472
14.8774 108.588
15.0574 151.633
15.2374 71.7109
15.4175 66.5089
15.5976 65.9367
15.7778 93.763
15.958 159.087
16.1382 63.3777
16.3185 59.146
16.4988 55.8505
16.6792 54.7114
16.8596 55.5768
17.04 55.9356
17.2205 66.5428
17.401 72.5371
17.5815 59.4707
17.7622 61.6597
17.9428 73.3037
18.1237 138.884
18.3044 90.2109
18.4852 79.0368
18.666 60.5875
18.8469 58.1557
19.0278 57.283
19.2088 59.7458
19.3898 76.7462
19.5709 54.5732
19.752 53.2647
19.9332 56.2403
20.1144 69.7694
20.2957 63.8196
20.477 54.1094
20.6586 49.8205
20.84 49.0125
21.0215 48.8901
21.203 51.1159
21.3846 49.3258
21.5662 48.8487
21.7479 52.603
21.9297 64.8209
22.1115 56.3473
22.2933 50.37
22.4753 49.1758
22.6572 48.8786
22.8393 51.7481
23.0214 57.6264
23.2037 49.0222
23.3859 49.8192
23.5682 56.8984
23.7505 48.7364
23.9329 45.5805
24.1154 44.4378
24.2979 43.5576
24.4805 43.2079
24.6631 43.0156
24.8458 42.4757
25.0286 42.9417
25.2114 44.8463
25.3943 44.7723
25.5773 41.0311
25.7605 40.4986
25.9436 41.0158
26.1268 41.8613
26.31 40.3472
26.4933 40.9865
26.6767 42.3321
26.8601 40.6675
27.0437 38.9506
27.2272 38.5749
27.4109 38.5923
27.5946 38.4884
27.7784 37.9655
27.9623 38.5396
28.1462 39.0688
28.3304 37.4084
28.5145 36.1174
28.6987 35.7787
28.8829 35.4931
29.0673 34.8214
29.2517 34.4548
29.4361 34.222
29.6207 33.2851
29.8053 33.1112
29.99 32.7585
30.1748 32.6373
30.3597 32.3934
30.5447 32.3743
30.7297 32.2911
30.915 31.6712
31.1002 31.1915
31.2855 31.0405
31.4708 31.0402
31.6563 30.4951
31.8418 30.3384
32.0275 30.0038
32.2132 29.514
32.399 29.07
32.5848 28.6613
32.7708 28.361
32.9569 28.0932
33.143 27.9002
33.3293 27.5401
33.5158 27.1502
33.7022 26.7441
33.8887 26.4293
34.0753 26.1265
34.262 25.8538
34.4488 25.4735
34.6357 25.0523
34.8227 24.8217
35.0098 24.6134
35.1969 24.3283
35.3842 24.1064
35.5716 23.8105
35.759 23.5416
35.9468 23.1871
36.1345 23.0048
36.3222 22.7923
36.5101 22.4895
36.6981 22.2039
36.8861 21.988
37.0743 21.5645
37.2626 21.447
37.451 21.0327
37.6395 20.9293
37.8281 20.5968
38.0168 20.2518
38.2056 20.0659
38.3945 19.7815
38.5837 19.5645
38.7728 19.3376
38.9621 19.0461
39.1514 18.8516
39.3409 18.5333
39.5304 18.3303
39.7201 18.1943
39.9099 17.9391
40.0999 17.6459
40.2899 17.4716
40.48 17.2056
40.6703 16.9893
40.8607 16.7706
41.0512 16.6223
41.242 16.3288
41.4327 16.1536
41.6236 15.9491
41.8146 15.7376
42.0057 15.4991
42.1969 15.3413
42.3882 15.1137
42.5797 14.9156
42.7713 14.7016
42.963 14.4616
43.1549 14.3063
43.3468 14.079
43.5389 13.9642
43.7312 13.7537
43.9237 13.5107
44.1162 13.3563
44.3088 13.0984
44.5016 12.9832
44.6945 12.8177
44.8875 12.5439
45.0806 12.4427
45.2739 12.276
45.4673 12.1204
45.6609 11.9314
45.8546 11.7695
46.0484 11.5664
46.2424 11.4187
46.4365 11.2682
46.631 11.1069
46.8254 10.8793
47.0199 10.7442
47.2146 10.6345
47.4095 10.4777
47.6044 10.3048
47.7996 10.1318
47.9948 9.99722
48.1902 9.85956
48.3858 9.71459
48.5815 9.60379
48.7774 9.44384
48.9734 9.3157
49.1696 9.16287
49.3661 9.00622
49.5626 8.86161
49.7592 8.73941
49.956 8.61669
50.153 8.48805
50.3501 8.30782
50.5474 8.22451
50.7448 8.09761
50.9424 7.95493
51.1402 7.85563
51.3381 7.72061
51.5362 7.61065
51.7344 7.50346
51.9328 7.29975
52.1316 7.20091
52.3304 7.08584
52.5293 6.99179
52.7284 6.86085
52.9276 6.73818
53.1271 6.68782
53.3267 6.51198
53.5265 6.42099
53.7264 6.30835
53.9266 6.17978
54.1269 6.05369
54.3274 5.96157
54.528 5.8625
54.7289 5.70916
54.9301 5.51522
55.1314 5.4317
55.3328 5.17505
55.5344 5.02804
55.7361 4.90711

File: Ni3Fe_FD0632.xy
TT I
1.27165 7.27827
1.45013 6.59378
1.62863 4.78161
1.80712 4.40214
1.98562 4.82192
2.16411 4.92178
2.34263 4.80396
2.52115 6.48854
2.69965 7.81097
2.87818 8.57266
3.05672 10.8083
3.23527 14.6769
3.4138 19.2827
3.59237 24.4863
3.77094 26.423
3.9495 30.0625
4.12809 34.9906
4.30669 242.38
4.4853 68.5169
4.6639 55.0093
4.84253 67.2242
5.02118 86.3949
5.19981 342.473
5.37848 194.476
5.55716 102.391
5.73586 92.1432
5.91455 93.3681
6.09328 4407.79
6.27201 84.0403
6.45075 67.7064
6.62952 63.2776
6.8083 59.0837
6.98711 56.1055
7.16591 55.4083
7.34475 97.4409
7.5236 55.1738
7.70247 56.5864
7.88135 58.2437
8.06026 62.4364
8.23919 69.5826
8.41812 85.5871
8.59709 1135.34
8.77609 100.471
8.9551 92.8851
9.13412 82.0929
9.31318 82.5011
9.49226 84.9022
9.67134 100.092
9.85047 100.027
10.0296 328.613
10.2088 430.036
10.388 105.281
10.5672 501.144
10.7465 87.2457
10.9257 79.2212
11.105 72.1307
11.2844 70.9214
11.4637 65.4097
11.6431 63.7471
11.8225 62.781
12.002 63.8676
12.1814 148.893
12.3609 71.9838
12.5405 64.6664
12.72 70.5223
12.8996 71.0648
13.0792 78.9263
13.2589 232.723
13.4386 127.873
13.6183 242.421
13.7981 100.443
13.9779 76.0393
14.1577 72.8347
14.3376 72.4094
14.5175 69.2307
14.6974 70.5964
14.8774 108.63
15.0574 154.408
15.2374 71.5565
15.4175 66.553
15.5976 65.8054
15.7778 93.6746
15.958 159.533
16.1382 63.4647
16.3185 59.0967
16.4988 55.8036
16.6792 54.645
16.8596 55.555
17.04 56.0436
17.2205 66.5337
17.401 72.2879
17.5815 59.4838
17.7622 61.356
17.9428 73.301
18.1237 138.746
18.3044 90.1487
18.4852 79.2792
18.666 60.622
18.8469 58.2242
19.0278 57.2526
19.2088 59.6951
19.3898 76.709
19.5709 54.4737
19.752 53.4832
19.9332 56.3258
20.1144 69.6898
20.2957 63.9014
20.477 54.1413
20.6586 49.7672
20.84 48.8868
21.0215 48.7713
21.203 50.9116
21.3846 49.2012
21.5662 48.9498
21.7479 52.5564
21.9297 64.5817
22.1115 56.0984
22.2933 50.2349
22.4753 49.0346
22.6572 48.8024
22.8393 51.9245
23.0214 57.763
23.2037 49.0366
23.3859 49.9312
23.5682 56.8929
23.7505 48.6829
23.9329 45.2695
24.1154 44.1862
24.2979 43.6047
24.4805 43.0647
24.6631 42.9819
24.8458 42.3602
25.0286 42.8645
25.2114 44.719
25.3943 44.8392
25.5773 41.1765
25.7605 40.562
25.9436 41.0523
26.1268 41.9307
26.31 40.2114
26.4933 40.7556
26.6767 42.3042
26.8601 40.6224
27.0437 39.0315
27.2272 38.6408
27.4109 38.6365
27.5946 38.5146
27.7784 38.0676
27.9623 38.4822
28.1462 39.0726
28.3304 37.455
28.5145 36.2041
28.6987 35.8451
28.8829 35.6415
29.0673 34.8463
29.2517 34.5444
29.4361 34.307
29.6207 33.327
29.8053 33.0653
29.99 32.66
30.1748 32.654
30.3597 32.4166
30.5447 32.3209
30.7297 32.3657
30.915 31.7362
31.1002 31.3276
31.2855 30.9502
31.4708 30.9043
31.6563 30.4932
31.8418 30.2926
32.0275 30.0494
32.2132 29.546
32.399 29.1312
32.5848 28.5653
32.7708 28.2053
32.9569 28.159
33.143 27.9148
33.3293 27.5055
33.5158 27.2047
33.7022 26.717
33.8887 26.5529
34.0753 26.1388
34.262 25.7241
34.4488 25.3807
34.6357 25.0972
34.8227 24.8023
35.0098 24.6143
35.1969 24.2858
35.3842 24.073
35.5716 23.9192
35.759 23.5027
35.9468 23.2146
36.1345 23.0215
36.3222 22.7857
36.5101 22.4847
36.6981 22.1701
36.8861 21.9176
37.0743 21.6219
37.2626 21.4406
37.451 21.1588
37.6395 20.9915
37.8281 20.577
38.0168 20.3636
38.2056 20.0846
38.3945 19.8374
38.5837 19.5506
38.7728 19.3066
38.9621 19.0164
39.1514 18.8512
39.3409 18.5422
39.5304 18.3738
39.7201 18.2112
39.9099 17.9637
40.0999 17.636
40.2899 17.4756
40.48 17.1682
40.6703 17.0207
40.8607 16.8112
41.0512 16.5893
41.242 16.3944
41.4327 16.1301
41.6236 15.9212
41.8146 15.7565
42.0057 15.439
42.1969 15.266
42.3882 15.1283
42.5797 14.9587
42.7713 14.6633
42.963 14.5535
43.1549 14.3046
43.3468 14.1079
43.5389 13.8809
43.7312 13.6893
43.9237 13.5494
44.1162 13.3235
44.3088 13.16
44.5016 12.9705
44.6945 12.7688
44.8875 12.6026
45.0806 12.4078
45.2739 12.2691
45.4673 12.1088
45.6609 11.9062
45.8546 11.7459
46.0484 11.5761
46.2424 11.3872
46.4365 11.2625
46.631 11.0808
46.8254 10.9379
47.0199 10.7759
47.2146 10.6072
47.4095 10.4588
47.6044 10.3182
47.7996 10.1317
47.9948 9.98451
48.1902 9.8381
48.3858 9.75172
48.5815 9.6085
48.7774 9.41684
48.9734 9.31881
49.1696 9.12327
49.3661 9.05517
49.5626 8.85376
49.7592 8.73694
49.956 8.63022
50.153 8.48049
50.3501 8.31791
50.5474 8.23798
50.7448 8.08554
50.9424 7.92437
51.1402 7.8517
51.3381 7.71819
51.5362 7.60549
51.7344 7.46867
51.9328 7.34333
52.1316 7.17764
52.3304 7.10394
52.5293 6.9771
52.7284 6.93294
52.9276 6.76541
53.1271 6.65028
53.3267 6.52979
53.5265 6.43962
53.7264 6.2755
53.9266 6.20844
54.1269 6.06654
54.3274 5.99542
54.528 5.8573
54.7289 5.67086
54.9301 5.5229
55.1314 5.3907
55.3328 5.23614
55.5344 4.98517
55.7361 4.8644