Folder: NiFe_MOF_catalyst_paper/XRD (part 57)

File: Ni3Fe_FD0296.xy
TT I
1.27165 7.78073
1.45013 6.24824
1.62863 5.6848
1.80712 5.34554
1.98562 4.85586
2.16411 4.93199
2.34263 4.91726
2.52115 5.78123
2.69965 7.5063
2.87818 8.41661
3.05672 11.1813
3.23527 15.2877
3.4138 19.2344
3.59237 25.2119
3.77094 27.2918
3.9495 30.7135
4.12809 36.3556
4.30669 294.587
4.4853 74.8438
4.6639 56.618
4.84253 69.5669
5.02118 90.6865
5.19981 497.135
5.37848 258.002
5.55716 107.525
5.73586 96.7207
5.91455 99.9109
6.09328 3676.29
6.27201 90.0055
6.45075 70.7502
6.62952 65.3823
6.8083 61.1973
6.98711 57.9989
7.16591 57.9435
7.34475 110.525
7.5236 56.5028
7.70247 58.4581
7.88135 59.938
8.06026 64.7491
8.23919 72.0948
8.41812 89.75
8.59709 995.423
8.77609 108.573
8.9551 97.4414
9.13412 84.5184
9.31318 85.6542
9.49226 87.1493
9.67134 105.154
9.85047 103.628
10.0296 380.377
10.2088 588.782
10.388 110.383
10.5672 450.039
10.7465 90.9281
10.9257 81.806
11.105 74.5901
11.2844 74.449
11.4637 67.4616
11.6431 66.0238
11.8225 64.6115
12.002 66.0254
12.1814 137.258
12.3609 77.0035
12.5405 67.1018
12.72 73.9643
12.8996 73.4864
13.0792 81.7237
13.2589 212.25
13.4386 149.09
13.6183 214.169
13.7981 113.623
13.9779 78.6966
14.1577 75.5537
14.3376 74.8791
14.5175 71.4778
14.6974 73.0793
14.8774 109.433
15.0574 176.948
15.2374 74.7551
15.4175 68.6269
15.5976 68.1892
15.7778 95.4428
15.958 178.097
16.1382 66.3935
16.3185 61.1786
16.4988 57.6721
16.6792 56.4316
16.8596 57.2886
17.04 57.8704
17.2205 67.0662
17.401 77.2532
17.5815 61.3443
17.7622 63.5627
17.9428 77.2817
18.1237 137.47
18.3044 88.7984
18.4852 85.5182
18.666 62.9556
18.8469 60.1067
19.0278 59.2235
19.2088 61.939
19.3898 78.2658
19.5709 56.5049
19.752 55.217
19.9332 58.2372
20.1144 71.4605
20.2957 64.1217
20.477 57.1754
20.6586 51.6058
20.84 50.625
21.0215 50.468
21.203 51.9356
21.3846 51.3131
21.5662 50.6517
21.7479 54.0016
21.9297 66.2905
22.1115 57.4385
22.2933 52.164
22.4753 50.9448
22.6572 50.8644
22.8393 52.9174
23.0214 60.0847
23.2037 50.755
23.3859 51.4174
23.5682 57.4568
23.7505 51.0723
23.9329 46.9024
24.1154 45.8225
24.2979 45.1145
24.4805 44.5
24.6631 44.3913
24.8458 43.6719
25.0286 44.2216
25.2114 46.1267
25.3943 46.3294
25.5773 42.4515
25.7605 41.9704
25.9436 42.0839
26.1268 43.1189
26.31 41.6009
26.4933 42.0484
26.6767 43.7082
26.8601 42.0001
27.0437 40.3541
27.2272 39.9354
27.4109 39.7103
27.5946 39.8093
27.7784 39.2469
27.9623 39.5138
28.1462 40.2709
28.3304 38.6458
28.5145 37.2759
28.6987 36.8441
28.8829 36.6326
29.0673 35.929
29.2517 35.5321
29.4361 35.5091
29.6207 34.4427
29.8053 34.1634
29.99 33.6855
30.1748 33.5962
30.3597 33.533
30.5447 33.2113
30.7297 33.3353
30.915 32.8992
31.1002 32.2343
31.2855 32.0148
31.4708 31.8211
31.6563 31.4611
31.8418 31.2328
32.0275 30.9677
32.2132 30.5383
32.399 29.9993
32.5848 29.5829
32.7708 29.1961
32.9569 29.0143
33.143 28.7221
33.3293 28.3397
33.5158 28.0607
33.7022 27.5636
33.8887 27.3787
34.0753 26.9063
34.262 26.5192
34.4488 26.281
34.6357 25.8135
34.8227 25.6306
35.0098 25.4455
35.1969 25.0408
35.3842 24.851
35.5716 24.6343
35.759 24.3351
35.9468 24.009
36.1345 23.7105
36.3222 23.4514
36.5101 23.2117
36.6981 22.9185
36.8861 22.5973
37.0743 22.3158
37.2626 22.0552
37.451 21.7722
37.6395 21.5545
37.8281 21.2048
38.0168 20.9998
38.2056 20.7038
38.3945 20.4036
38.5837 20.1345
38.7728 19.892
38.9621 19.7236
39.1514 19.4545
39.3409 19.1171
39.5304 18.9313
39.7201 18.7095
39.9099 18.4702
40.0999 18.2658
40.2899 18.0264
40.48 17.8031
40.6703 17.5632
40.8607 17.3843
41.0512 17.1159
41.242 16.8971
41.4327 16.7045
41.6236 16.4326
41.8146 16.2614
42.0057 16.0028
42.1969 15.7761
42.3882 15.6376
42.5797 15.3733
42.7713 15.1808
42.963 14.922
43.1549 14.728
43.3468 14.5332
43.5389 14.3057
43.7312 14.1606
43.9237 13.9649
44.1162 13.7476
44.3088 13.5894
44.5016 13.3784
44.6945 13.2247
44.8875 13.0544
45.0806 12.7833
45.2739 12.6436
45.4673 12.4883
45.6609 12.2939
45.8546 12.1657
46.0484 11.9529
46.2424 11.7959
46.4365 11.6273
46.631 11.4512
46.8254 11.272
47.0199 11.1292
47.2146 10.9159
47.4095 10.8231
47.6044 10.6477
47.7996 10.4846
47.9948 10.3275
48.1902 10.1567
48.3858 10.0258
48.5815 9.88838
48.7774 9.7557
48.9734 9.58601
49.1696 9.42228
49.3661 9.31645
49.5626 9.13136
49.7592 9.04443
49.956 8.88452
50.153 8.74187
50.3501 8.62738
50.5474 8.47472
50.7448 8.38698
50.9424 8.22248
51.1402 8.08864
51.3381 7.98222
51.5362 7.82337
51.7344 7.72483
51.9328 7.53818
52.1316 7.4285
52.3304 7.34915
52.5293 7.20858
52.7284 7.10428
52.9276 6.97649
53.1271 6.86581
53.3267 6.74403
53.5265 6.62773
53.7264 6.47747
53.9266 6.43751
54.1269 6.29228
54.3274 6.17893
54.528 6.00112
54.7289 5.88087
54.9301 5.71056
55.1314 5.4783
55.3328 5.39132
55.5344 5.09458
55.7361 4.99419

File: Ni3Fe_FD0297.xy
TT I
1.27165 7.82772
1.45013 7.03553
1.62863 5.55767
1.80712 5.04615
1.98562 4.46654
2.16411 5.00241
2.34263 5.27059
2.52115 5.74348
2.69965 7.14631
2.87818 8.56159
3.05672 11.3764
3.23527 15.4068
3.4138 19.4226
3.59237 25.4034
3.77094 27.0017
3.9495 31.0245
4.12809 36.5314
4.30669 296.939
4.4853 75.0891
4.6639 57.3239
4.84253 69.1342
5.02118 90.9987
5.19981 496.344
5.37848 258.425
5.55716 107.368
5.73586 96.1273
5.91455 100.467
6.09328 3649.63
6.27201 90.2573
6.45075 70.4846
6.62952 65.6416
6.8083 61.7066
6.98711 58.0815
7.16591 57.8376
7.34475 110.789
7.5236 56.9886
7.70247 58.4606
7.88135 59.702
8.06026 64.2263
8.23919 72.2809
8.41812 90.0315
8.59709 995.071
8.77609 108.094
8.9551 97.5669
9.13412 84.3259
9.31318 85.6204
9.49226 87.22
9.67134 105.282
9.85047 103.863
10.0296 379.11
10.2088 581.403
10.388 110.534
10.5672 450.332
10.7465 90.979
10.9257 81.9415
11.105 74.4702
11.2844 74.2478
11.4637 67.2193
11.6431 65.7542
11.8225 64.9091
12.002 66.1354
12.1814 137.312
12.3609 77.1861
12.5405 67.2904
12.72 74.0616
12.8996 73.4751
13.0792 81.6803
13.2589 211.484
13.4386 148.879
13.6183 213.686
13.7981 113.097
13.9779 78.6364
14.1577 75.5082
14.3376 74.8902
14.5175 71.1707
14.6974 73.2292
14.8774 109.236
15.0574 176.593
15.2374 74.6538
15.4175 68.9974
15.5976 68.1781
15.7778 95.4863
15.958 178.878
16.1382 66.1848
16.3185 61.2854
16.4988 57.6479
16.6792 56.6123
16.8596 57.3546
17.04 57.9456
17.2205 66.9071
17.401 77.2844
17.5815 61.3439
17.7622 63.5249
17.9428 76.9664
18.1237 137.961
18.3044 88.6571
18.4852 85.686
18.666 62.8965
18.8469 60.3785
19.0278 59.1357
19.2088 61.9706
19.3898 78.2442
19.5709 56.5053
19.752 55.2642
19.9332 58.1669
20.1144 71.2957
20.2957 63.9014
20.477 56.927
20.6586 51.4786
20.84 50.6814
21.0215 50.5541
21.203 52.0536
21.3846 51.0918
21.5662 50.444
21.7479 54.0462
21.9297 66.2773
22.1115 57.4792
22.2933 52.2157
22.4753 50.8423
22.6572 50.6574
22.8393 53.1416
23.0214 60.1101
23.2037 50.8794
23.3859 51.3202
23.5682 57.1872
23.7505 50.8946
23.9329 46.9569
24.1154 45.7327
24.2979 45.0763
24.4805 44.4166
24.6631 44.4069
24.8458 43.8492
25.0286 44.2357
25.2114 45.8876
25.3943 46.4447
25.5773 42.463
25.7605 41.8811
25.9436 42.0676
26.1268 43.1607
26.31 41.531
26.4933 42.0176
26.6767 43.6114
26.8601 41.9261
27.0437 40.3607
27.2272 39.8977
27.4109 39.5839
27.5946 39.8352
27.7784 39.3285
27.9623 39.5848
28.1462 40.3285
28.3304 38.6935
28.5145 37.2077
28.6987 36.8808
28.8829 36.6145
29.0673 36.0107
29.2517 35.4715
29.4361 35.3164
29.6207 34.2844
29.8053 34.0583
29.99 33.6944
30.1748 33.6339
30.3597 33.5391
30.5447 33.1774
30.7297 33.3534
30.915 32.7046
31.1002 32.1906
31.2855 31.9381
31.4708 31.9148
31.6563 31.4411
31.8418 31.1135
32.0275 31.0894
32.2132 30.4776
32.399 30.0385
32.5848 29.474
32.7708 29.2085
32.9569 29.0861
33.143 28.7991
33.3293 28.45
33.5158 28.0996
33.7022 27.5902
33.8887 27.2342
34.0753 26.9235
34.262 26.5854
34.4488 26.2747
34.6357 25.9045
34.8227 25.5361
35.0098 25.375
35.1969 25.0712
35.3842 24.84
35.5716 24.6501
35.759 24.3189
35.9468 23.9082
36.1345 23.7007
36.3222 23.4568
36.5101 23.207
36.6981 22.9367
36.8861 22.6459
37.0743 22.265
37.2626 22.0368
37.451 21.8219
37.6395 21.5624
37.8281 21.2869
38.0168 20.9669
38.2056 20.6493
38.3945 20.3937
38.5837 20.1479
38.7728 19.8902
38.9621 19.6264
39.1514 19.4306
39.3409 19.0783
39.5304 18.9091
39.7201 18.7
39.9099 18.5018
40.0999 18.1997
40.2899 17.9403
40.48 17.7281
40.6703 17.5914
40.8607 17.3909
41.0512 17.1704
41.242 16.8455
41.4327 16.6449
41.6236 16.4173
41.8146 16.2871
42.0057 16.0041
42.1969 15.8208
42.3882 15.5877
42.5797 15.4082
42.7713 15.1236
42.963 14.9856
43.1549 14.7705
43.3468 14.5111
43.5389 14.3605
43.7312 14.176
43.9237 13.9636
44.1162 13.7957
44.3088 13.5442
44.5016 13.4053
44.6945 13.1868
44.8875 13.0246
45.0806 12.8515
45.2739 12.6425
45.4673 12.4654
45.6609 12.3299
45.8546 12.1557
46.0484 11.9395
46.2424 11.7856
46.4365 11.6478
46.631 11.4089
46.8254 11.2525
47.0199 11.1066
47.2146 10.9425
47.4095 10.7886
47.6044 10.6157
47.7996 10.4511
47.9948 10.3186
48.1902 10.1688
48.3858 10.035
48.5815 9.86321
48.7774 9.71503
48.9734 9.63771
49.1696 9.45043
49.3661 9.29051
49.5626 9.13679
49.7592 9.01804
49.956 8.88222
50.153 8.76535
50.3501 8.62163
50.5474 8.4826
50.7448 8.39896
50.9424 8.247
51.1402 8.11691
51.3381 7.93876
51.5362 7.8335
51.7344 7.68647
51.9328 7.58304
52.1316 7.43736
52.3304 7.34357
52.5293 7.18201
52.7284 7.13254
52.9276 6.97667
53.1271 6.88887
53.3267 6.72894
53.5265 6.63719
53.7264 6.48226
53.9266 6.3838
54.1269 6.26575
54.3274 6.21163
54.528 6.01027
54.7289 5.86723
54.9301 5.63357
55.1314 5.51421
55.3328 5.33074
55.5344 5.13383
55.7361 4.96189

File: Ni3Fe_FD0298.xy
TT I
1.27165 7.89446
1.45013 5.75696
1.62863 5.50062
1.80712 5.29587
1.98562 4.62019
2.16411 5.17176
2.34263 5.50018
2.52115 5.54303
2.69965 7.07414
2.87818 8.48145
3.05672 11.1515
3.23527 15.2498
3.4138 19.4044
3.59237 25.2905
3.77094 26.9183
3.9495 30.9586
4.12809 36.0262
4.30669 299.061
4.4853 74.8239
4.6639 56.8224
4.84253 69.2579
5.02118 90.7717
5.19981 498.656
5.37848 257.213
5.55716 107.404
5.73586 96.6306
5.91455 100.353
6.09328 3656.36
6.27201 90.1638
6.45075 70.4192
6.62952 66.0219
6.8083 61.7176
6.98711 58.1064
7.16591 57.8715
7.34475 110.755
7.5236 56.9303
7.70247 58.4011
7.88135 60.0501
8.06026 64.8249
8.23919 71.8092
8.41812 89.9206
8.59709 993.158
8.77609 108.518
8.9551 97.9567
9.13412 84.7086
9.31318 85.7936
9.49226 87.4603
9.67134 105.561
9.85047 104.272
10.0296 378.6
10.2088 573.308
10.388 110.426
10.5672 446.154
10.7465 90.5907
10.9257 82.0444
11.105 74.6779
11.2844 74.3922
11.4637 67.395
11.6431 66.0628
11.8225 64.9112
12.002 66.2419
12.1814 137.559
12.3609 76.9874
12.5405 67.0735
12.72 74.0243
12.8996 73.5151
13.0792 81.7339
13.2589 211.702
13.4386 149.172
13.6183 214.213
13.7981 113.141
13.9779 78.6221
14.1577 75.5195
14.3376 75.2933
14.5175 71.0458
14.6974 73.3729
14.8774 108.9
15.0574 176.265
15.2374 74.8137
15.4175 68.6522
15.5976 68.0777
15.7778 95.3478
15.958 180.083
16.1382 66.4246
16.3185 61.365
16.4988 57.7385
16.6792 56.7528
16.8596 57.4638
17.04 58.172
17.2205 67.0397
17.401 77.2803
17.5815 61.2533
17.7622 63.5655
17.9428 76.9619
18.1237 137.553
18.3044 88.5592
18.4852 85.6793
18.666 62.8781
18.8469 60.1138
19.0278 59.0879
19.2088 61.8436
19.3898 78.33
19.5709 56.4659
19.752 55.2496
19.9332 58.4642
20.1144 71.5684
20.2957 63.7875
20.477 57.021
20.6586 51.7109
20.84 50.701
21.0215 50.435
21.203 51.9527
21.3846 51.1101
21.5662 50.5964
21.7479 54.1605
21.9297 66.217
22.1115 57.3593
22.2933 52.1109
22.4753 50.9277
22.6572 50.6151
22.8393 53.0562
23.0214 59.9945
23.2037 50.8484
23.3859 51.4107
23.5682 57.2328
23.7505 51.1092
23.9329 47.1052
24.1154 45.8815
24.2979 45.1906
24.4805 44.5172
24.6631 44.4992
24.8458 43.826
25.0286 44.2469
25.2114 46.1232
25.3943 46.4197
25.5773 42.4277
25.7605 41.8728
25.9436 42.149
26.1268 43.1561
26.31 41.7068
26.4933 42.1643
26.6767 43.5072
26.8601 41.9784
27.0437 40.1842
27.2272 39.9331
27.4109 39.79
27.5946 39.8224
27.7784 39.1712
27.9623 39.4821
28.1462 40.2016
28.3304 38.6326
28.5145 37.3187
28.6987 36.9244
28.8829 36.7153
29.0673 36.1098
29.2517 35.4815
29.4361 35.3667
29.6207 34.4083
29.8053 34.055
29.99 33.7778
30.1748 33.5397
30.3597 33.4718
30.5447 33.254
30.7297 33.3634
30.915 32.9038
31.1002 32.2802
31.2855 31.8963
31.4708 31.7946
31.6563 31.5606
31.8418 31.2354
32.0275 31.0774
32.2132 30.4734
32.399 30.0437
32.5848 29.5781
32.7708 29.193
32.9569 29.0287
33.143 28.6966
33.3293 28.4295
33.5158 28.0512
33.7022 27.6862
33.8887 27.2857
34.0753 26.9516
34.262 26.5995
34.4488 26.2603
34.6357 25.8153
34.8227 25.6157
35.0098 25.3108
35.1969 25.0916
35.3842 24.8923
35.5716 24.6647
35.759 24.3709
35.9468 23.9236
36.1345 23.7024
36.3222 23.4636
36.5101 23.2425
36.6981 22.9317
36.8861 22.5856
37.0743 22.256
37.2626 22.1117
37.451 21.8185
37.6395 21.6123
37.8281 21.2225
38.0168 20.9628
38.2056 20.6885
38.3945 20.4124
38.5837 20.1651
38.7728 19.919
38.9621 19.6669
39.1514 19.3623
39.3409 19.1947
39.5304 18.8899
39.7201 18.7793
39.9099 18.5053
40.0999 18.2264
40.2899 17.9926
40.48 17.7784
40.6703 17.5754
40.8607 17.3125
41.0512 17.1381
41.242 16.8808
41.4327 16.6827
41.6236 16.4624
41.8146 16.2414
42.0057 16.0111
42.1969 15.7843
42.3882 15.5417
42.5797 15.4121
42.7713 15.1712
42.963 14.9928
43.1549 14.759
43.3468 14.4801
43.5389 14.3299
43.7312 14.1326
43.9237 13.9778
44.1162 13.7321
44.3088 13.5151
44.5016 13.4028
44.6945 13.1912
44.8875 13.0285
45.0806 12.8433
45.2739 12.594
45.4673 12.4267
45.6609 12.3267
45.8546 12.1175
46.0484 11.9402
46.2424 11.8116
46.4365 11.6242
46.631 11.457
46.8254 11.2141
47.0199 11.0847
47.2146 10.9416
47.4095 10.728
47.6044 10.6197
47.7996 10.4766
47.9948 10.3061
48.1902 10.1579
48.3858 10.0091
48.5815 9.8841
48.7774 9.74994
48.9734 9.59672
49.1696 9.45351
49.3661 9.31232
49.5626 9.13394
49.7592 9.01373
49.956 8.90541
50.153 8.75465
50.3501 8.59783
50.5474 8.45618
50.7448 8.3974
50.9424 8.22644
51.1402 8.10964
51.3381 7.99054
51.5362 7.83778
51.7344 7.69437
51.9328 7.57102
52.1316 7.4324
52.3304 7.33485
52.5293 7.19212
52.7284 7.07095
52.9276 6.95487
53.1271 6.89596
53.3267 6.72019
53.5265 6.60001
53.7264 6.51523
53.9266 6.39352
54.1269 6.30041
54.3274 6.13909
54.528 6.03072
54.7289 5.8723
54.9301 5.67457
55.1314 5.51022
55.3328 5.30988
55.5344 5.10938
55.7361 4.98755

File: Ni3Fe_FD0299.xy
TT I
1.27165 7.47502
1.45013 6.32242
1.62863 5.22379
1.80712 5.14426
1.98562 5.42164
2.16411 5.22022
2.34263 5.10539
2.52115 6.10318
2.69965 6.77529
2.87818 8.19359
3.05672 11.4318
3.23527 15.568
3.4138 19.2398
3.59237 25.4584
3.77094 26.7947
3.9495 30.7242
4.12809 36.3751
4.30669 304.403
4.4853 75.6049
4.6639 56.9684
4.84253 68.9581
5.02118 90.8259
5.19981 493.465
5.37848 258.226
5.55716 107.108
5.73586 96.1792
5.91455 100.383
6.09328 3609.49
6.27201 90.1129
6.45075 70.6231
6.62952 65.763
6.8083 61.2432
6.98711 58.0575
7.16591 58.4962
7.34475 111.87
7.5236 56.9106
7.70247 58.233
7.88135 59.6845
8.06026 64.7988
8.23919 72.1016
8.41812 89.4677
8.59709 985.579
8.77609 107.861
8.9551 98.0636
9.13412 84.3908
9.31318 85.5114
9.49226 87.3035
9.67134 105.803
9.85047 103.608
10.0296 376.02
10.2088 578.525
10.388 110.51
10.5672 447.528
10.7465 90.5447
10.9257 81.9854
11.105 74.4427
11.2844 74.5592
11.4637 67.2333
11.6431 66.0916
11.8225 64.8167
12.002 66.0365
12.1814 137.217
12.3609 77.3807
12.5405 67.164
12.72 74.3163
12.8996 73.4958
13.0792 81.4545
13.2589 210.64
13.4386 150.188
13.6183 213.412
13.7981 112.986
13.9779 78.5165
14.1577 75.4646
14.3376 75.0046
14.5175 71.173
14.6974 73.1588
14.8774 108.661
15.0574 177.032
15.2374 74.8494
15.4175 68.7341
15.5976 68.101
15.7778 95.1699
15.958 181.912
16.1382 66.3053
16.3185 61.4909
16.4988 57.8311
16.6792 56.5995
16.8596 57.4648
17.04 57.8711
17.2205 67.0001
17.401 77.4867
17.5815 61.4702
17.7622 63.3892
17.9428 77.0443
18.1237 137.403
18.3044 88.5902
18.4852 86.1155
18.666 62.8587
18.8469 60.2033
19.0278 59.1106
19.2088 61.9787
19.3898 78.4775
19.5709 56.5487
19.752 55.2874
19.9332 58.3412
20.1144 71.1193
20.2957 63.741
20.477 57.1414
20.6586 51.635
20.84 50.5986
21.0215 50.5646
21.203 52.106
21.3846 51.235
21.5662 50.6308
21.7479 53.8043
21.9297 66.349
22.1115 57.4767
22.2933 52.1481
22.4753 50.901
22.6572 50.6683
22.8393 53.1418
23.0214 60.05
23.2037 50.6469
23.3859 51.5501
23.5682 57.3799
23.7505 51.1113
23.9329 47.0904
24.1154 45.7616
24.2979 45.0159
24.4805 44.4607
24.6631 44.5368
24.8458 43.8786
25.0286 44.0518
25.2114 45.99
25.3943 46.4823
25.5773 42.605
25.7605 41.9147
25.9436 42.1589
26.1268 43.0788
26.31 41.605
26.4933 42.1569
26.6767 43.6772
26.8601 41.9978
27.0437 40.3237
27.2272 40.1059
27.4109 39.694
27.5946 39.7719
27.7784 39.2058
27.9623 39.5304
28.1462 40.272
28.3304 38.5873
28.5145 37.3506
28.6987 36.8495
28.8829 36.6864
29.0673 36.0625
29.2517 35.6008
29.4361 35.3938
29.6207 34.4217
29.8053 34.1314
29.99 33.7719
30.1748 33.4926
30.3597 33.4886
30.5447 33.3498
30.7297 33.3754
30.915 32.8208
31.1002 32.1973
31.2855 31.9326
31.4708 31.8511
31.6563 31.4646
31.8418 31.2577
32.0275 30.8845
32.2132 30.4619
32.399 30.0009
32.5848 29.464
32.7708 29.1578
32.9569 29.027
33.143 28.7192
33.3293 28.3894
33.5158 28.0382
33.7022 27.5861
33.8887 27.3113
34.0753 26.918
34.262 26.5299
34.4488 26.2561
34.6357 25.9351
34.8227 25.6002
35.0098 25.3929
35.1969 24.9971
35.3842 24.8453
35.5716 24.6019
35.759 24.2875
35.9468 23.9442
36.1345 23.6937
36.3222 23.5197
36.5101 23.2396
36.6981 22.948
36.8861 22.6243
37.0743 22.2991
37.2626 21.9622
37.451 21.7957
37.6395 21.5491
37.8281 21.2266
38.0168 20.9965
38.2056 20.7736
38.3945 20.3889
38.5837 20.1533
38.7728 19.9522
38.9621 19.6281
39.1514 19.4319
39.3409 19.182
39.5304 18.9306
39.7201 18.733
39.9099 18.5156
40.0999 18.2259
40.2899 17.9513
40.48 17.7802
40.6703 17.5385
40.8607 17.3899
41.0512 17.0862
41.242 16.8667
41.4327 16.6777
41.6236 16.4015
41.8146 16.278
42.0057 16.0118
42.1969 15.7867
42.3882 15.6161
42.5797 15.3363
42.7713 15.1719
42.963 14.9937
43.1549 14.7594
43.3468 14.5158
43.5389 14.3197
43.7312 14.1796
43.9237 13.9702
44.1162 13.7588
44.3088 13.5533
44.5016 13.4328
44.6945 13.1971
44.8875 13.0553
45.0806 12.8343
45.2739 12.6068
45.4673 12.4799
45.6609 12.2922
45.8546 12.1345
46.0484 11.9171
46.2424 11.8261
46.4365 11.5862
46.631 11.4711
46.8254 11.2604
47.0199 11.1137
47.2146 10.9547
47.4095 10.7657
47.6044 10.6139
47.7996 10.4833
47.9948 10.3161
48.1902 10.1436
48.3858 10.0542
48.5815 9.86049
48.7774 9.7195
48.9734 9.57485
49.1696 9.4435
49.3661 9.29888
49.5626 9.14847
49.7592 8.99501
49.956 8.86967
50.153 8.74936
50.3501 8.58757
50.5474 8.47214
50.7448 8.35121
50.9424 8.23712
51.1402 8.11414
51.3381 7.95794
51.5362 7.80992
51.7344 7.70663
51.9328 7.57292
52.1316 7.42643
52.3304 7.32959
52.5293 7.21897
52.7284 7.07908
52.9276 6.93763
53.1271 6.89567
53.3267 6.72477
53.5265 6.63062
53.7264 6.47969
53.9266 6.39401
54.1269 6.2844
54.3274 6.1485
54.528 5.98799
54.7289 5.83498
54.9301 5.63657
55.1314 5.53378
55.3328 5.32499
55.5344 5.12069
55.7361 5.00693

File: Ni3Fe_FD0301.xy
TT I
1.27165 7.71009
1.45013 6.65284
1.62863 5.66159
1.80712 5.15561
1.98562 4.93714
2.16411 5.08456
2.34263 5.06063
2.52115 5.3911
2.69965 7.04434
2.87818 8.64774
3.05672 11.5663
3.23527 15.0902
3.4138 19.4701
3.59237 25.4871
3.77094 27.3547
3.9495 30.6135
4.12809 36.0392
4.30669 309.523
4.4853 76.34
4.6639 56.9953
4.84253 69.1532
5.02118 90.4234
5.19981 491.328
5.37848 257.641
5.55716 106.999
5.73586 96.2555
5.91455 100.099
6.09328 3627.26
6.27201 89.9685
6.45075 70.5633
6.62952 66.0737
6.8083 61.3303
6.98711 58.0874
7.16591 58.1984
7.34475 113.471
7.5236 56.9105
7.70247 58.1787
7.88135 59.6642
8.06026 64.5092
8.23919 71.6452
8.41812 89.7061
8.59709 981.575
8.77609 108.217
8.9551 97.4775
9.13412 84.2137
9.31318 85.6132
9.49226 87.4067
9.67134 106.327
9.85047 103.821
10.0296 374.79
10.2088 585.523
10.388 110.496
10.5672 443.439
10.7465 90.6459
10.9257 81.9403
11.105 74.8551
11.2844 74.4219
11.4637 67.3076
11.6431 66.2268
11.8225 64.9246
12.002 65.6904
12.1814 136.407
12.3609 77.4149
12.5405 67.1581
12.72 74.1509
12.8996 73.5471
13.0792 81.8626
13.2589 210.062
13.4386 149.874
13.6183 212.973
13.7981 112.366
13.9779 78.7395
14.1577 75.5809
14.3376 75.1843
14.5175 71.0817
14.6974 73.3598
14.8774 108.47
15.0574 176.454
15.2374 75.0921
15.4175 68.8369
15.5976 68.2198
15.7778 94.7086
15.958 180.662
16.1382 66.4703
16.3185 61.0716
16.4988 57.589
16.6792 56.5353
16.8596 57.4291
17.04 58.0991
17.2205 67.0125
17.401 77.3568
17.5815 61.3528
17.7622 63.2529
17.9428 77.024
18.1237 137.348
18.3044 88.3887
18.4852 85.6671
18.666 62.7096
18.8469 60.1078
19.0278 59.0892
19.2088 61.7814
19.3898 78.2973
19.5709 56.5613
19.752 55.2869
19.9332 58.3068
20.1144 71.1509
20.2957 63.8233
20.477 57.0291
20.6586 51.4818
20.84 50.7922
21.0215 50.3568
21.203 52.3107
21.3846 51.0809
21.5662 50.4593
21.7479 54.069
21.9297 66.2745
22.1115 57.5637
22.2933 52.2798
22.4753 50.8105
22.6572 50.6715
22.8393 53.028
23.0214 60.0466
23.2037 50.7129
23.3859 51.5054
23.5682 57.3216
23.7505 51.0545
23.9329 46.9226
24.1154 45.951
24.2979 44.9029
24.4805 44.3962
24.6631 44.4702
24.8458 43.854
25.0286 44.2513
25.2114 45.9415
25.3943 46.3577
25.5773 42.4271
25.7605 42.0534
25.9436 42.1637
26.1268 43.0949
26.31 41.6302
26.4933 42.0032
26.6767 43.4893
26.8601 42.1221
27.0437 40.2562
27.2272 39.9441
27.4109 39.6601
27.5946 39.7445
27.7784 39.2028
27.9623 39.6171
28.1462 40.3192
28.3304 38.8494
28.5145 37.423
28.6987 36.8961
28.8829 36.6062
29.0673 35.9994
29.2517 35.6468
29.4361 35.4467
29.6207 34.4295
29.8053 34.1527
29.99 33.7635
30.1748 33.6478
30.3597 33.5358
30.5447 33.2691
30.7297 33.4006
30.915 32.8081
31.1002 32.2505
31.2855 31.8944
31.4708 31.8715
31.6563 31.4641
31.8418 31.1813
32.0275 30.9932
32.2132 30.4873
32.399 29.9896
32.5848 29.4884
32.7708 29.2415
32.9569 29.0799
33.143 28.8711
33.3293 28.4157
33.5158 28.0176
33.7022 27.591
33.8887 27.2662
34.0753 26.9732
34.262 26.5542
34.4488 26.257
34.6357 25.9305
34.8227 25.5566
35.0098 25.4407
35.1969 25.0785
35.3842 24.7654
35.5716 24.6364
35.759 24.3375
35.9468 24.0281
36.1345 23.704
36.3222 23.4576
36.5101 23.2111
36.6981 23.0045
36.8861 22.5653
37.0743 22.2917
37.2626 22.0756
37.451 21.7059
37.6395 21.6083
37.8281 21.2328
38.0168 20.9064
38.2056 20.6839
38.3945 20.4172
38.5837 20.1067
38.7728 19.8717
38.9621 19.6605
39.1514 19.3827
39.3409 19.1766
39.5304 18.9216
39.7201 18.7417
39.9099 18.5012
40.0999 18.2586
40.2899 18.0281
40.48 17.7246
40.6703 17.6031
40.8607 17.3627
41.0512 17.1154
41.242 16.8203
41.4327 16.6862
41.6236 16.4014
41.8146 16.2282
42.0057 15.9855
42.1969 15.79
42.3882 15.6035
42.5797 15.3401
42.7713 15.1569
42.963 14.9397
43.1549 14.7703
43.3468 14.4878
43.5389 14.3349
43.7312 14.1775
43.9237 13.9749
44.1162 13.74
44.3088 13.5453
44.5016 13.3998
44.6945 13.178
44.8875 13.0253
45.0806 12.8091
45.2739 12.6566
45.4673 12.505
45.6609 12.2546
45.8546 12.085
46.0484 11.9453
46.2424 11.7944
46.4365 11.6302
46.631 11.4375
46.8254 11.2282
47.0199 11.1482
47.2146 10.9441
47.4095 10.7969
47.6044 10.5557
47.7996 10.4458
47.9948 10.3109
48.1902 10.1527
48.3858 10.0198
48.5815 9.86609
48.7774 9.74387
48.9734 9.56926
49.1696 9.41433
49.3661 9.30071
49.5626 9.10933
49.7592 9.00738
49.956 8.86454
50.153 8.73362
50.3501 8.62045
50.5474 8.49522
50.7448 8.36052
50.9424 8.25019
51.1402 8.1023
51.3381 7.93299
51.5362 7.84259
51.7344 7.69077
51.9328 7.56159
52.1316 7.4575
52.3304 7.32557
52.5293 7.19174
52.7284 7.0641
52.9276 6.94858
53.1271 6.85089
53.3267 6.70317
53.5265 6.62031
53.7264 6.52377
53.9266 6.39639
54.1269 6.30703
54.3274 6.17436
54.528 6.02468
54.7289 5.83389
54.9301 5.64223
55.1314 5.5098
55.3328 5.33081
55.5344 5.1186
55.7361 5.00202