Folder: NiFe_MOF_catalyst_paper/XRD (part 105)

File: Ni3Fe_FD0569.xy
TT I
1.27165 7.4108
1.45013 6.12321
1.62863 5.5257
1.80712 4.15044
1.98562 4.20077
2.16411 4.60161
2.34263 5.16605
2.52115 6.299
2.69965 7.88114
2.87818 8.79661
3.05672 11.0573
3.23527 14.7854
3.4138 18.7641
3.59237 23.3992
3.77094 25.8929
3.9495 29.8524
4.12809 34.2993
4.30669 138.544
4.4853 58.3079
4.6639 56.1417
4.84253 67.9164
5.02118 88.7078
5.19981 450.249
5.37848 196.856
5.55716 103.307
5.73586 93.9423
5.91455 96.8257
6.09328 4483.07
6.27201 82.5284
6.45075 67.9531
6.62952 62.6333
6.8083 58.5124
6.98711 55.8667
7.16591 55.455
7.34475 76.02
7.5236 54.7081
7.70247 56.2777
7.88135 58.0895
8.06026 62.524
8.23919 69.9301
8.41812 85.4819
8.59709 1233.38
8.77609 99.7303
8.9551 89.858
9.13412 82.5824
9.31318 83.5846
9.49226 85.5005
9.67134 96.1607
9.85047 101.174
10.0296 380.865
10.2088 372.345
10.388 106.299
10.5672 524.506
10.7465 87.0947
10.9257 78.3276
11.105 72.0595
11.2844 69.6381
11.4637 65.2441
11.6431 63.7075
11.8225 63.0622
12.002 64.8189
12.1814 156.342
12.3609 68.4047
12.5405 65.029
12.72 68.9416
12.8996 71.4691
13.0792 80.9062
13.2589 250.64
13.4386 121.599
13.6183 257.206
13.7981 96.6677
13.9779 76.4307
14.1577 72.4145
14.3376 71.4289
14.5175 69.2728
14.6974 71.0501
14.8774 116.002
15.0574 144.614
15.2374 70.5819
15.4175 66.7575
15.5976 66.6311
15.7778 99.0743
15.958 151.596
16.1382 62.1631
16.3185 58.5686
16.4988 55.7956
16.6792 54.8097
16.8596 55.4217
17.04 56.5974
17.2205 67.8918
17.401 71.0443
17.5815 59.6342
17.7622 61.9231
17.9428 75.7327
18.1237 141.486
18.3044 92.0059
18.4852 76.8065
18.666 60.7684
18.8469 58.5506
19.0278 57.0651
19.2088 60.2011
19.3898 76.4472
19.5709 54.4644
19.752 53.7305
19.9332 57.0892
20.1144 70.5757
20.2957 64.15
20.477 53.5315
20.6586 50.192
20.84 49.0756
21.0215 49.1222
21.203 51.0898
21.3846 49.33
21.5662 49.1921
21.7479 53.5231
21.9297 65.1063
22.1115 56.3536
22.2933 50.1558
22.4753 49.0683
22.6572 49.4661
22.8393 52.7552
23.0214 57.6869
23.2037 49.1426
23.3859 50.4043
23.5682 57.3784
23.7505 48.4469
23.9329 45.6736
24.1154 44.4165
24.2979 43.6023
24.4805 43.1357
24.6631 43.0566
24.8458 42.5454
25.0286 43.285
25.2114 44.9257
25.3943 44.8517
25.5773 41.1007
25.7605 40.7673
25.9436 41.2552
26.1268 42.0419
26.31 40.4007
26.4933 41.0458
26.6767 42.4696
26.8601 40.7217
27.0437 39.201
27.2272 38.8675
27.4109 38.6487
27.5946 38.6357
27.7784 38.1531
27.9623 38.7964
28.1462 38.949
28.3304 37.474
28.5145 36.2449
28.6987 35.8763
28.8829 35.5289
29.0673 34.8292
29.2517 34.6542
29.4361 34.3387
29.6207 33.2987
29.8053 33.1571
29.99 32.8963
30.1748 32.7035
30.3597 32.4524
30.5447 32.3964
30.7297 32.4172
30.915 31.7993
31.1002 31.4011
31.2855 31.0313
31.4708 31.0082
31.6563 30.5247
31.8418 30.3737
32.0275 30.1489
32.2132 29.5683
32.399 29.174
32.5848 28.7375
32.7708 28.3315
32.9569 28.1638
33.143 28.0111
33.3293 27.4974
33.5158 27.2469
33.7022 26.7943
33.8887 26.4776
34.0753 26.145
34.262 25.8313
34.4488 25.4185
34.6357 25.2128
34.8227 24.7797
35.0098 24.678
35.1969 24.362
35.3842 24.126
35.5716 23.9456
35.759 23.6723
35.9468 23.3092
36.1345 23.026
36.3222 22.784
36.5101 22.6043
36.6981 22.1948
36.8861 21.9402
37.0743 21.58
37.2626 21.4244
37.451 21.1091
37.6395 20.954
37.8281 20.5918
38.0168 20.2566
38.2056 20.0387
38.3945 19.8335
38.5837 19.5512
38.7728 19.3273
38.9621 19.101
39.1514 18.8366
39.3409 18.6075
39.5304 18.3596
39.7201 18.2199
39.9099 17.891
40.0999 17.7366
40.2899 17.4758
40.48 17.219
40.6703 17.0136
40.8607 16.8512
41.0512 16.629
41.242 16.3492
41.4327 16.2075
41.6236 15.913
41.8146 15.7449
42.0057 15.5145
42.1969 15.3179
42.3882 15.1496
42.5797 14.9215
42.7713 14.7285
42.963 14.5212
43.1549 14.3046
43.3468 14.0721
43.5389 13.9431
43.7312 13.7215
43.9237 13.5079
44.1162 13.3502
44.3088 13.1781
44.5016 12.9611
44.6945 12.8407
44.8875 12.6248
45.0806 12.456
45.2739 12.2774
45.4673 12.1035
45.6609 11.9017
45.8546 11.7697
46.0484 11.5929
46.2424 11.4801
46.4365 11.2955
46.631 11.0881
46.8254 10.908
47.0199 10.7774
47.2146 10.6012
47.4095 10.4537
47.6044 10.3083
47.7996 10.1297
47.9948 10.0019
48.1902 9.85335
48.3858 9.67147
48.5815 9.57233
48.7774 9.45261
48.9734 9.29629
49.1696 9.17394
49.3661 9.00703
49.5626 8.84645
49.7592 8.72237
49.956 8.64897
50.153 8.53248
50.3501 8.33352
50.5474 8.22673
50.7448 8.10701
50.9424 7.94779
51.1402 7.86168
51.3381 7.706
51.5362 7.57431
51.7344 7.49206
51.9328 7.3585
52.1316 7.18327
52.3304 7.11808
52.5293 6.987
52.7284 6.88025
52.9276 6.7704
53.1271 6.67584
53.3267 6.48876
53.5265 6.43341
53.7264 6.31103
53.9266 6.22265
54.1269 6.13388
54.3274 5.95826
54.528 5.82715
54.7289 5.72427
54.9301 5.53194
55.1314 5.41009
55.3328 5.18118
55.5344 5.00976
55.7361 4.87666

File: Ni3Fe_FD0570.xy
TT I
1.27165 7.90059
1.45013 6.03942
1.62863 5.32274
1.80712 4.96792
1.98562 5.61688
2.16411 4.72667
2.34263 5.16144
2.52115 7.04556
2.69965 7.74637
2.87818 9.15248
3.05672 11.4871
3.23527 15.0662
3.4138 19.6883
3.59237 23.5777
3.77094 25.8356
3.9495 30.1478
4.12809 34.5006
4.30669 136.649
4.4853 58.1676
4.6639 55.9148
4.84253 67.9905
5.02118 88.7116
5.19981 453.155
5.37848 197.745
5.55716 103.509
5.73586 93.8169
5.91455 97.1551
6.09328 4485.78
6.27201 82.5341
6.45075 68.1163
6.62952 62.7105
6.8083 59.0676
6.98711 55.8374
7.16591 55.5512
7.34475 75.7713
7.5236 54.5566
7.70247 56.4153
7.88135 57.931
8.06026 62.6433
8.23919 69.9868
8.41812 85.4732
8.59709 1229.62
8.77609 99.5739
8.9551 89.7961
9.13412 82.9435
9.31318 83.6883
9.49226 85.0027
9.67134 96.6546
9.85047 101.126
10.0296 380.989
10.2088 371.185
10.388 106.199
10.5672 523.255
10.7465 86.798
10.9257 78.2059
11.105 72.0867
11.2844 69.4926
11.4637 65.0536
11.6431 64.0803
11.8225 62.7467
12.002 64.7997
12.1814 155.856
12.3609 68.3893
12.5405 64.7759
12.72 68.9742
12.8996 71.4964
13.0792 80.6951
13.2589 250.784
13.4386 121.618
13.6183 256.54
13.7981 96.7002
13.9779 76.3547
14.1577 72.5595
14.3376 71.3306
14.5175 69.566
14.6974 71.2201
14.8774 115.972
15.0574 144.584
15.2374 70.4195
15.4175 66.7643
15.5976 66.4172
15.7778 99.258
15.958 151.535
16.1382 62.3803
16.3185 58.4196
16.4988 55.8578
16.6792 54.9508
16.8596 55.6788
17.04 56.1898
17.2205 67.6816
17.401 70.8771
17.5815 59.5365
17.7622 61.8279
17.9428 75.6859
18.1237 141.825
18.3044 91.8205
18.4852 76.9925
18.666 60.8368
18.8469 58.4842
19.0278 57.2142
19.2088 60.1793
19.3898 76.1777
19.5709 54.71
19.752 53.8928
19.9332 56.9182
20.1144 70.3707
20.2957 64.2655
20.477 53.5341
20.6586 49.7484
20.84 49.2389
21.0215 49.0041
21.203 51.2122
21.3846 49.3058
21.5662 49.3521
21.7479 53.5216
21.9297 65.1716
22.1115 56.2487
22.2933 50.08
22.4753 49.051
22.6572 49.4161
22.8393 52.5569
23.0214 57.333
23.2037 49.1426
23.3859 50.3768
23.5682 57.2488
23.7505 48.4179
23.9329 45.4421
24.1154 44.3981
24.2979 43.6937
24.4805 43.1417
24.6631 43.1735
24.8458 42.5561
25.0286 43.294
25.2114 44.9399
25.3943 44.8071
25.5773 41.1955
25.7605 40.7153
25.9436 41.1254
26.1268 42.029
26.31 40.3263
26.4933 41.0892
26.6767 42.3366
26.8601 40.6643
27.0437 39.1781
27.2272 38.7854
27.4109 38.5859
27.5946 38.5909
27.7784 37.9863
27.9623 38.706
28.1462 39.0441
28.3304 37.3806
28.5145 36.1161
28.6987 35.8983
28.8829 35.689
29.0673 34.8676
29.2517 34.5639
29.4361 34.2896
29.6207 33.3442
29.8053 32.9486
29.99 32.7047
30.1748 32.5729
30.3597 32.5024
30.5447 32.3489
30.7297 32.408
30.915 31.8164
31.1002 31.3055
31.2855 31.1538
31.4708 31.1313
31.6563 30.568
31.8418 30.2682
32.0275 30.1673
32.2132 29.5323
32.399 29.0892
32.5848 28.585
32.7708 28.2971
32.9569 28.1988
33.143 27.9459
33.3293 27.6161
33.5158 27.1717
33.7022 26.8139
33.8887 26.5502
34.0753 26.1049
34.262 25.828
34.4488 25.4703
34.6357 25.1388
34.8227 24.8441
35.0098 24.6248
35.1969 24.3333
35.3842 24.039
35.5716 23.9305
35.759 23.519
35.9468 23.275
36.1345 23.0554
36.3222 22.8393
36.5101 22.6055
36.6981 22.2129
36.8861 21.9774
37.0743 21.6372
37.2626 21.4179
37.451 21.1528
37.6395 20.9627
37.8281 20.554
38.0168 20.3129
38.2056 20.0556
38.3945 19.8149
38.5837 19.5618
38.7728 19.2905
38.9621 19.0538
39.1514 18.798
39.3409 18.5979
39.5304 18.3535
39.7201 18.1737
39.9099 17.9782
40.0999 17.7046
40.2899 17.4989
40.48 17.2132
40.6703 17.0073
40.8607 16.8254
41.0512 16.5796
41.242 16.3493
41.4327 16.185
41.6236 15.9563
41.8146 15.7214
42.0057 15.499
42.1969 15.3208
42.3882 15.1284
42.5797 14.9159
42.7713 14.7641
42.963 14.5087
43.1549 14.3058
43.3468 14.0689
43.5389 13.9112
43.7312 13.7015
43.9237 13.5425
44.1162 13.3289
44.3088 13.1871
44.5016 12.9545
44.6945 12.7414
44.8875 12.6342
45.0806 12.4055
45.2739 12.2466
45.4673 12.1053
45.6609 11.925
45.8546 11.7736
46.0484 11.6287
46.2424 11.417
46.4365 11.293
46.631 11.0786
46.8254 10.9121
47.0199 10.7674
47.2146 10.5666
47.4095 10.453
47.6044 10.2989
47.7996 10.1486
47.9948 9.97483
48.1902 9.84619
48.3858 9.70948
48.5815 9.56712
48.7774 9.41924
48.9734 9.31633
49.1696 9.16634
49.3661 9.00437
49.5626 8.88074
49.7592 8.71244
49.956 8.57992
50.153 8.45862
50.3501 8.31441
50.5474 8.23243
50.7448 8.07346
50.9424 7.99136
51.1402 7.84957
51.3381 7.70116
51.5362 7.61255
51.7344 7.47496
51.9328 7.34134
52.1316 7.21318
52.3304 7.10546
52.5293 6.99861
52.7284 6.84016
52.9276 6.73252
53.1271 6.69198
53.3267 6.50805
53.5265 6.41562
53.7264 6.28824
53.9266 6.19985
54.1269 6.06877
54.3274 5.97386
54.528 5.84186
54.7289 5.70652
54.9301 5.55461
55.1314 5.41195
55.3328 5.21702
55.5344 4.94304
55.7361 4.85382

File: Ni3Fe_FD0571.xy
TT I
1.27165 7.19992
1.45013 6.41044
1.62863 5.66728
1.80712 4.64788
1.98562 4.48153
2.16411 4.34962
2.34263 5.39397
2.52115 6.60378
2.69965 8.22682
2.87818 8.35932
3.05672 11.1176
3.23527 15.019
3.4138 19.1022
3.59237 23.16
3.77094 26.123
3.9495 29.8161
4.12809 34.6619
4.30669 134.805
4.4853 57.5771
4.6639 55.9915
4.84253 68.8542
5.02118 88.7885
5.19981 458.826
5.37848 196.563
5.55716 103.791
5.73586 93.5464
5.91455 97.0227
6.09328 4472.31
6.27201 82.62
6.45075 67.9794
6.62952 63.0042
6.8083 59.1881
6.98711 55.9311
7.16591 55.8778
7.34475 75.0957
7.5236 54.9147
7.70247 56.6593
7.88135 58.0611
8.06026 62.8795
8.23919 70.0521
8.41812 85.7992
8.59709 1235.26
8.77609 100.018
8.9551 90.0848
9.13412 83.0395
9.31318 83.9826
9.49226 85.9358
9.67134 96.8456
9.85047 101.343
10.0296 382.751
10.2088 367.346
10.388 106.409
10.5672 524.287
10.7465 87.1252
10.9257 78.5592
11.105 71.9035
11.2844 69.7937
11.4637 65.1546
11.6431 64.0418
11.8225 62.963
12.002 64.749
12.1814 156.532
12.3609 68.5301
12.5405 65.2925
12.72 68.9955
12.8996 71.9332
13.0792 80.8584
13.2589 252.217
13.4386 121.311
13.6183 258.337
13.7981 96.586
13.9779 76.4124
14.1577 72.8044
14.3376 71.5401
14.5175 69.5765
14.6974 71.2861
14.8774 116.173
15.0574 144.498
15.2374 70.5988
15.4175 67.0304
15.5976 66.8602
15.7778 99.3059
15.958 150.19
16.1382 62.3025
16.3185 58.5271
16.4988 56.0337
16.6792 54.8896
16.8596 55.4782
17.04 56.4605
17.2205 68.4406
17.401 70.8372
17.5815 59.5674
17.7622 61.9011
17.9428 75.6528
18.1237 141.298
18.3044 92.1292
18.4852 76.4041
18.666 60.8549
18.8469 58.5257
19.0278 57.3519
19.2088 60.2336
19.3898 76.1753
19.5709 54.4485
19.752 53.7649
19.9332 57.083
20.1144 70.2155
20.2957 64.2639
20.477 53.4586
20.6586 50.1697
20.84 49.3297
21.0215 48.9838
21.203 51.4091
21.3846 49.2171
21.5662 49.4287
21.7479 53.5728
21.9297 64.877
22.1115 56.2062
22.2933 50.1082
22.4753 49.2608
22.6572 49.3945
22.8393 52.5113
23.0214 57.554
23.2037 49.0264
23.3859 50.2288
23.5682 57.3255
23.7505 48.3789
23.9329 45.595
24.1154 44.3615
24.2979 43.8499
24.4805 43.2777
24.6631 43.0906
24.8458 42.4706
25.0286 43.3154
25.2114 45.0131
25.3943 44.8475
25.5773 41.239
25.7605 40.7472
25.9436 41.2665
26.1268 42.0627
26.31 40.3697
26.4933 40.9829
26.6767 42.3614
26.8601 40.8111
27.0437 39.1485
27.2272 38.8297
27.4109 38.7403
27.5946 38.5702
27.7784 38.1687
27.9623 38.6375
28.1462 39.0234
28.3304 37.399
28.5145 36.136
28.6987 35.8423
28.8829 35.6439
29.0673 34.8127
29.2517 34.5876
29.4361 34.4409
29.6207 33.4146
29.8053 33.0233
29.99 32.8817
30.1748 32.615
30.3597 32.4681
30.5447 32.4696
30.7297 32.4251
30.915 31.8774
31.1002 31.4132
31.2855 31.1094
31.4708 30.9805
31.6563 30.5747
31.8418 30.3251
32.0275 30.1324
32.2132 29.6415
32.399 29.1773
32.5848 28.6607
32.7708 28.2944
32.9569 28.1811
33.143 27.9923
33.3293 27.5502
33.5158 27.2514
33.7022 26.7162
33.8887 26.4627
34.0753 26.1727
34.262 25.8333
34.4488 25.416
34.6357 25.1565
34.8227 24.8547
35.0098 24.6722
35.1969 24.3541
35.3842 24.1126
35.5716 23.9305
35.759 23.508
35.9468 23.243
36.1345 23.1124
36.3222 22.7539
36.5101 22.52
36.6981 22.2435
36.8861 21.9999
37.0743 21.6547
37.2626 21.3794
37.451 21.1303
37.6395 21.0205
37.8281 20.622
38.0168 20.352
38.2056 20.1032
38.3945 19.7
38.5837 19.6079
38.7728 19.3237
38.9621 19.0937
39.1514 18.8005
39.3409 18.552
39.5304 18.333
39.7201 18.2421
39.9099 17.9414
40.0999 17.6761
40.2899 17.5032
40.48 17.2075
40.6703 17.0241
40.8607 16.7966
41.0512 16.6102
41.242 16.3738
41.4327 16.1488
41.6236 15.9194
41.8146 15.7493
42.0057 15.5466
42.1969 15.3397
42.3882 15.1437
42.5797 14.9077
42.7713 14.7438
42.963 14.5191
43.1549 14.3037
43.3468 14.0943
43.5389 13.921
43.7312 13.7472
43.9237 13.5492
44.1162 13.3297
44.3088 13.1279
44.5016 12.948
44.6945 12.8535
44.8875 12.6133
45.0806 12.4655
45.2739 12.2902
45.4673 12.1256
45.6609 11.8986
45.8546 11.7717
46.0484 11.5504
46.2424 11.4463
46.4365 11.3097
46.631 11.1216
46.8254 10.9707
47.0199 10.7972
47.2146 10.6493
47.4095 10.4627
47.6044 10.3397
47.7996 10.1699
47.9948 9.9889
48.1902 9.86179
48.3858 9.71968
48.5815 9.59478
48.7774 9.44957
48.9734 9.30712
49.1696 9.1709
49.3661 9.02377
49.5626 8.85565
49.7592 8.73981
49.956 8.62336
50.153 8.51629
50.3501 8.37178
50.5474 8.20461
50.7448 8.1117
50.9424 7.94686
51.1402 7.83854
51.3381 7.74705
51.5362 7.61132
51.7344 7.4766
51.9328 7.35284
52.1316 7.22994
52.3304 7.09602
52.5293 6.95916
52.7284 6.88695
52.9276 6.73939
53.1271 6.67364
53.3267 6.56014
53.5265 6.39564
53.7264 6.29982
53.9266 6.1948
54.1269 6.08249
54.3274 5.97154
54.528 5.81407
54.7289 5.63797
54.9301 5.5242
55.1314 5.37559
55.3328 5.17714
55.5344 4.99371
55.7361 4.86289

File: Ni3Fe_FD0572.xy
TT I
1.27165 7.54873
1.45013 5.83588
1.62863 5.38128
1.80712 4.54565
1.98562 4.73573
2.16411 4.34602
2.34263 5.40569
2.52115 6.61555
2.69965 7.92455
2.87818 8.41432
3.05672 11.0284
3.23527 15.0628
3.4138 18.5495
3.59237 23.1198
3.77094 26.2415
3.9495 29.5177
4.12809 34.4988
4.30669 133.505
4.4853 57.6432
4.6639 56.3688
4.84253 68.2478
5.02118 88.8487
5.19981 458.407
5.37848 196.625
5.55716 103.652
5.73586 93.2609
5.91455 97.1021
6.09328 4500.2
6.27201 82.339
6.45075 67.8418
6.62952 62.767
6.8083 58.6347
6.98711 55.8769
7.16591 55.4262
7.34475 75.1658
7.5236 54.7493
7.70247 56.5509
7.88135 58.4032
8.06026 62.873
8.23919 70.0393
8.41812 86.1609
8.59709 1234.09
8.77609 100.045
8.9551 89.8318
9.13412 82.9262
9.31318 83.9978
9.49226 85.384
9.67134 96.2216
9.85047 101.586
10.0296 381.737
10.2088 368.876
10.388 106.31
10.5672 523.754
10.7465 87.2268
10.9257 78.4132
11.105 72.1174
11.2844 69.5319
11.4637 65.3528
11.6431 63.9173
11.8225 62.7418
12.002 64.7706
12.1814 156.256
12.3609 68.2965
12.5405 64.8951
12.72 69.0586
12.8996 71.7993
13.0792 80.9447
13.2589 251.295
13.4386 121.78
13.6183 257.233
13.7981 96.5757
13.9779 76.3567
14.1577 72.5954
14.3376 71.3234
14.5175 69.4875
14.6974 70.9815
14.8774 116.182
15.0574 144.076
15.2374 70.5158
15.4175 66.9365
15.5976 66.6787
15.7778 98.9492
15.958 150.778
16.1382 62.4518
16.3185 58.3847
16.4988 55.9883
16.6792 54.8669
16.8596 55.4885
17.04 56.584
17.2205 67.8948
17.401 70.7537
17.5815 59.7983
17.7622 61.9063
17.9428 75.6179
18.1237 141.665
18.3044 92.2471
18.4852 76.6988
18.666 60.814
18.8469 58.4646
19.0278 57.409
19.2088 60.1905
19.3898 76.2103
19.5709 54.6405
19.752 53.7855
19.9332 56.8522
20.1144 70.288
20.2957 64.1655
20.477 53.5861
20.6586 49.9959
20.84 49.113
21.0215 48.971
21.203 51.0879
21.3846 49.3062
21.5662 49.4222
21.7479 53.4003
21.9297 65.221
22.1115 56.221
22.2933 50.1271
22.4753 49.1021
22.6572 49.3966
22.8393 52.7416
23.0214 57.4311
23.2037 49.2196
23.3859 50.2835
23.5682 57.3921
23.7505 48.2883
23.9329 45.4904
24.1154 44.3339
24.2979 43.6557
24.4805 43.1851
24.6631 42.9998
24.8458 42.5477
25.0286 43.2795
25.2114 45.0954
25.3943 44.964
25.5773 41.1239
25.7605 40.8087
25.9436 41.2143
26.1268 41.9507
26.31 40.4011
26.4933 41.0347
26.6767 42.5709
26.8601 40.6608
27.0437 39.1333
27.2272 38.748
27.4109 38.6357
27.5946 38.6716
27.7784 38.1581
27.9623 38.5452
28.1462 39.0613
28.3304 37.3285
28.5145 36.228
28.6987 35.9197
28.8829 35.6096
29.0673 34.9222
29.2517 34.4469
29.4361 34.3069
29.6207 33.31
29.8053 33.1155
29.99 32.7068
30.1748 32.63
30.3597 32.4009
30.5447 32.3588
30.7297 32.4691
30.915 31.807
31.1002 31.3129
31.2855 31.1195
31.4708 30.9647
31.6563 30.5246
31.8418 30.3518
32.0275 30.2648
32.2132 29.6357
32.399 29.0294
32.5848 28.605
32.7708 28.289
32.9569 28.1496
33.143 27.9868
33.3293 27.6061
33.5158 27.2195
33.7022 26.7925
33.8887 26.3706
34.0753 26.1379
34.262 25.7923
34.4488 25.4955
34.6357 25.1581
34.8227 24.8326
35.0098 24.6068
35.1969 24.3289
35.3842 24.0501
35.5716 23.9036
35.759 23.6488
35.9468 23.2324
36.1345 22.9442
36.3222 22.7449
36.5101 22.5627
36.6981 22.2524
36.8861 21.9327
37.0743 21.6119
37.2626 21.3814
37.451 21.0348
37.6395 20.9402
37.8281 20.5929
38.0168 20.3849
38.2056 20.0721
38.3945 19.81
38.5837 19.5692
38.7728 19.3033
38.9621 19.0592
39.1514 18.7472
39.3409 18.5622
39.5304 18.3801
39.7201 18.1381
39.9099 18.0258
40.0999 17.6509
40.2899 17.5156
40.48 17.1987
40.6703 17.0759
40.8607 16.8084
41.0512 16.5982
41.242 16.298
41.4327 16.1591
41.6236 15.918
41.8146 15.7968
42.0057 15.5069
42.1969 15.3129
42.3882 15.151
42.5797 14.9043
42.7713 14.7079
42.963 14.4805
43.1549 14.3068
43.3468 14.0951
43.5389 13.9195
43.7312 13.6834
43.9237 13.5366
44.1162 13.3558
44.3088 13.1405
44.5016 12.9787
44.6945 12.8604
44.8875 12.6404
45.0806 12.4364
45.2739 12.2498
45.4673 12.0983
45.6609 11.9415
45.8546 11.7562
46.0484 11.5889
46.2424 11.4096
46.4365 11.2667
46.631 11.0999
46.8254 10.9353
47.0199 10.7703
47.2146 10.5925
47.4095 10.4307
47.6044 10.2918
47.7996 10.1608
47.9948 10.0085
48.1902 9.84949
48.3858 9.68769
48.5815 9.58174
48.7774 9.44186
48.9734 9.33717
49.1696 9.17615
49.3661 9.04953
49.5626 8.87136
49.7592 8.74116
49.956 8.593
50.153 8.47074
50.3501 8.32605
50.5474 8.2463
50.7448 8.09162
50.9424 7.98088
51.1402 7.85023
51.3381 7.71264
51.5362 7.58349
51.7344 7.46342
51.9328 7.32626
52.1316 7.19526
52.3304 7.09901
52.5293 6.96841
52.7284 6.86293
52.9276 6.72479
53.1271 6.67261
53.3267 6.4771
53.5265 6.40836
53.7264 6.29044
53.9266 6.18082
54.1269 6.07237
54.3274 5.98962
54.528 5.84249
54.7289 5.64765
54.9301 5.52674
55.1314 5.37272
55.3328 5.20677
55.5344 5.04688
55.7361 4.85322

File: Ni3Fe_FD0573.xy
TT I
1.27165 7.43919
1.45013 6.621
1.62863 5.48617
1.80712 5.03446
1.98562 5.15611
2.16411 4.90492
2.34263 4.68219
2.52115 6.94317
2.69965 8.42361
2.87818 8.60381
3.05672 10.9547
3.23527 14.9038
3.4138 18.6
3.59237 23.4588
3.77094 25.9741
3.9495 29.8059
4.12809 34.7673
4.30669 130.347
4.4853 57.4382
4.6639 56.6699
4.84253 68.5903
5.02118 89.1877
5.19981 464.504
5.37848 196.687
5.55716 103.753
5.73586 94.0152
5.91455 97.5269
6.09328 4596.43
6.27201 82.8786
6.45075 68.615
6.62952 62.8918
6.8083 59.1499
6.98711 56.2841
7.16591 55.587
7.34475 74.3433
7.5236 55.2357
7.70247 56.8824
7.88135 58.2603
8.06026 62.8556
8.23919 70.1587
8.41812 86.3414
8.59709 1246.01
8.77609 100.041
8.9551 90.162
9.13412 83.2992
9.31318 84.1312
9.49226 85.5886
9.67134 96.8694
9.85047 101.585
10.0296 383.999
10.2088 366.654
10.388 106.8
10.5672 523.781
10.7465 87.4139
10.9257 78.568
11.105 72.3177
11.2844 69.75
11.4637 65.2051
11.6431 63.989
11.8225 63.0737
12.002 64.838
12.1814 157.508
12.3609 68.2805
12.5405 65.4429
12.72 69.2509
12.8996 71.9466
13.0792 81.0937
13.2589 252.951
13.4386 121.181
13.6183 257.457
13.7981 95.6842
13.9779 76.574
14.1577 72.6781
14.3376 71.3765
14.5175 69.6356
14.6974 71.3124
14.8774 116.734
15.0574 143.01
15.2374 70.6715
15.4175 67.1306
15.5976 66.5308
15.7778 99.2449
15.958 148.727
16.1382 62.4114
16.3185 58.7828
16.4988 56.1279
16.6792 54.9373
16.8596 55.4713
17.04 56.581
17.2205 68.1611
17.401 70.7554
17.5815 59.7054
17.7622 61.9847
17.9428 75.8128
18.1237 141.22
18.3044 92.261
18.4852 76.109
18.666 61.1192
18.8469 58.7263
19.0278 57.268
19.2088 60.3552
19.3898 76.3297
19.5709 54.4416
19.752 53.7301
19.9332 57.0666
20.1144 70.1548
20.2957 64.0957
20.477 53.5779
20.6586 50.0067
20.84 49.0853
21.0215 49.1008
21.203 51.2202
21.3846 49.2316
21.5662 49.4676
21.7479 53.4113
21.9297 64.9904
22.1115 56.3824
22.2933 50.0886
22.4753 49.0809
22.6572 49.3389
22.8393 52.607
23.0214 57.4108
23.2037 49.2019
23.3859 50.221
23.5682 57.2106
23.7505 48.3765
23.9329 45.485
24.1154 44.4516
24.2979 43.7659
24.4805 43.2049
24.6631 43.16
24.8458 42.5126
25.0286 43.3314
25.2114 44.8993
25.3943 44.9003
25.5773 41.1962
25.7605 40.7063
25.9436 41.2087
26.1268 41.9465
26.31 40.516
26.4933 41.2546
26.6767 42.4739
26.8601 40.796
27.0437 39.1714
27.2272 38.8868
27.4109 38.7736
27.5946 38.619
27.7784 38.1202
27.9623 38.6148
28.1462 39.079
28.3304 37.3372
28.5145 36.2989
28.6987 35.8123
28.8829 35.6547
29.0673 34.8542
29.2517 34.6403
29.4361 34.4255
29.6207 33.351
29.8053 33.1678
29.99 32.7706
30.1748 32.7071
30.3597 32.4698
30.5447 32.4516
30.7297 32.42
30.915 31.8195
31.1002 31.4131
31.2855 31.0651
31.4708 31.0739
31.6563 30.5865
31.8418 30.4334
32.0275 30.1319
32.2132 29.6352
32.399 29.1712
32.5848 28.6244
32.7708 28.3553
32.9569 28.0999
33.143 27.9777
33.3293 27.5617
33.5158 27.2228
33.7022 26.7929
33.8887 26.4906
34.0753 26.2096
34.262 25.7754
34.4488 25.4709
34.6357 25.1065
34.8227 24.921
35.0098 24.6429
35.1969 24.3782
35.3842 24.1558
35.5716 23.8998
35.759 23.6671
35.9468 23.2872
36.1345 23.0473
36.3222 22.8309
36.5101 22.5761
36.6981 22.2965
36.8861 21.9682
37.0743 21.7257
37.2626 21.4566
37.451 21.1266
37.6395 21.0146
37.8281 20.617
38.0168 20.3858
38.2056 20.1012
38.3945 19.8617
38.5837 19.5882
38.7728 19.3285
38.9621 19.1078
39.1514 18.8424
39.3409 18.57
39.5304 18.3687
39.7201 18.1324
39.9099 18.007
40.0999 17.7398
40.2899 17.4636
40.48 17.199
40.6703 17.0288
40.8607 16.7834
41.0512 16.6104
41.242 16.3788
41.4327 16.1507
41.6236 15.8753
41.8146 15.7384
42.0057 15.491
42.1969 15.3371
42.3882 15.1459
42.5797 14.9095
42.7713 14.7456
42.963 14.5099
43.1549 14.3413
43.3468 14.1283
43.5389 13.9349
43.7312 13.6986
43.9237 13.5599
44.1162 13.3337
44.3088 13.1503
44.5016 12.9885
44.6945 12.8069
44.8875 12.623
45.0806 12.4588
45.2739 12.2467
45.4673 12.1152
45.6609 11.9238
45.8546 11.786
46.0484 11.5849
46.2424 11.4204
46.4365 11.3127
46.631 11.1234
46.8254 10.9178
47.0199 10.7594
47.2146 10.6251
47.4095 10.4547
47.6044 10.2905
47.7996 10.1317
47.9948 10.0202
48.1902 9.86348
48.3858 9.73091
48.5815 9.61914
48.7774 9.46034
48.9734 9.28315
49.1696 9.16668
49.3661 9.02071
49.5626 8.83717
49.7592 8.72329
49.956 8.63625
50.153 8.45421
50.3501 8.32668
50.5474 8.19597
50.7448 8.10155
50.9424 7.94698
51.1402 7.8547
51.3381 7.73824
51.5362 7.64073
51.7344 7.49226
51.9328 7.33599
52.1316 7.19461
52.3304 7.10633
52.5293 6.97564
52.7284 6.89816
52.9276 6.74251
53.1271 6.65265
53.3267 6.56522
53.5265 6.4134
53.7264 6.35746
53.9266 6.19322
54.1269 6.09728
54.3274 5.99291
54.528 5.88867
54.7289 5.72045
54.9301 5.57023
55.1314 5.38226
55.3328 5.19074
55.5344 5.00557
55.7361 4.85267