Folder: NiFe_MOF_catalyst_paper/XRD (part 120)

File: Ni3Fe_FD0649.xy
TT I
1.27165 7.38139
1.45013 6.62064
1.62863 5.47005
1.80712 4.80432
1.98562 4.98529
2.16411 4.87269
2.34263 5.52092
2.52115 7.6668
2.69965 8.19508
2.87818 8.70529
3.05672 10.9023
3.23527 15.3822
3.4138 19.1781
3.59237 24.6486
3.77094 26.2806
3.9495 29.9224
4.12809 35.236
4.30669 282.208
4.4853 72.395
4.6639 55.5965
4.84253 66.7433
5.02118 85.9147
5.19981 328.031
5.37848 197.61
5.55716 102.137
5.73586 92.0235
5.91455 92.9989
6.09328 4334.81
6.27201 84.5253
6.45075 67.7593
6.62952 63.5836
6.8083 59.3872
6.98711 56.5157
7.16591 56.0006
7.34475 106.453
7.5236 55.3139
7.70247 56.7663
7.88135 58.1804
8.06026 62.2821
8.23919 69.8929
8.41812 85.0998
8.59709 1080.43
8.77609 100.629
8.9551 93.9733
9.13412 81.7556
9.31318 82.2828
9.49226 84.2547
9.67134 101.543
9.85047 99.7284
10.0296 316.668
10.2088 450.934
10.388 105.056
10.5672 495.367
10.7465 87.0661
10.9257 78.697
11.105 72.2319
11.2844 71.7595
11.4637 64.918
11.6431 63.9808
11.8225 62.6956
12.002 63.8048
12.1814 146.257
12.3609 73.3331
12.5405 64.709
12.72 71.4672
12.8996 70.9075
13.0792 78.4557
13.2589 224.138
13.4386 130.062
13.6183 235.051
13.7981 100.778
13.9779 75.8397
14.1577 73.1184
14.3376 72.5414
14.5175 68.9974
14.6974 70.6124
14.8774 106.298
15.0574 155.307
15.2374 72.1891
15.4175 66.5856
15.5976 65.8058
15.7778 92.0624
15.958 163.991
16.1382 63.8606
16.3185 59.1213
16.4988 55.8002
16.6792 54.6824
16.8596 55.5798
17.04 55.8928
17.2205 65.9613
17.401 72.689
17.5815 59.2886
17.7622 61.3642
17.9428 72.6144
18.1237 138.209
18.3044 89.4098
18.4852 80.0704
18.666 60.5176
18.8469 58.2831
19.0278 57.0071
19.2088 59.4357
19.3898 77.2101
19.5709 54.5145
19.752 53.5816
19.9332 56.0998
20.1144 69.8261
20.2957 63.4857
20.477 54.2356
20.6586 49.9136
20.84 48.9706
21.0215 48.5523
21.203 50.7884
21.3846 49.1414
21.5662 48.9019
21.7479 52.2994
21.9297 64.7616
22.1115 56.0915
22.2933 50.1384
22.4753 49.2099
22.6572 48.7986
22.8393 51.772
23.0214 57.9818
23.2037 49.0337
23.3859 49.647
23.5682 56.8691
23.7505 48.825
23.9329 45.4883
24.1154 44.2925
24.2979 43.6963
24.4805 43.0128
24.6631 42.9847
24.8458 42.2988
25.0286 42.9405
25.2114 44.8371
25.3943 44.8766
25.5773 41.1854
25.7605 40.6635
25.9436 40.8578
26.1268 41.8886
26.31 40.2079
26.4933 40.8343
26.6767 42.3238
26.8601 40.6936
27.0437 39.0175
27.2272 38.77
27.4109 38.453
27.5946 38.6376
27.7784 37.9382
27.9623 38.4774
28.1462 39.1321
28.3304 37.3896
28.5145 36.0403
28.6987 35.8728
28.8829 35.4694
29.0673 34.7954
29.2517 34.4928
29.4361 34.2454
29.6207 33.2496
29.8053 33.0341
29.99 32.58
30.1748 32.6223
30.3597 32.3988
30.5447 32.2302
30.7297 32.3925
30.915 31.7075
31.1002 31.2449
31.2855 30.9643
31.4708 30.9662
31.6563 30.4663
31.8418 30.2377
32.0275 29.9409
32.2132 29.5277
32.399 29.0369
32.5848 28.6082
32.7708 28.1764
32.9569 28.1157
33.143 27.9073
33.3293 27.4434
33.5158 27.1083
33.7022 26.7778
33.8887 26.4134
34.0753 26.1244
34.262 25.8218
34.4488 25.4072
34.6357 25.0801
34.8227 24.8031
35.0098 24.564
35.1969 24.3039
35.3842 24.0988
35.5716 23.8985
35.759 23.5326
35.9468 23.1433
36.1345 23.0365
36.3222 22.674
36.5101 22.5406
36.6981 22.1965
36.8861 21.898
37.0743 21.6431
37.2626 21.3471
37.451 21.1006
37.6395 20.9072
37.8281 20.5497
38.0168 20.2126
38.2056 20.0315
38.3945 19.773
38.5837 19.6386
38.7728 19.3231
38.9621 19.047
39.1514 18.8081
39.3409 18.5813
39.5304 18.3522
39.7201 18.0851
39.9099 17.8944
40.0999 17.6522
40.2899 17.482
40.48 17.2198
40.6703 16.9584
40.8607 16.8824
41.0512 16.6602
41.242 16.3525
41.4327 16.142
41.6236 15.8818
41.8146 15.7496
42.0057 15.5164
42.1969 15.3114
42.3882 15.065
42.5797 14.9114
42.7713 14.7178
42.963 14.4559
43.1549 14.3665
43.3468 14.1349
43.5389 13.9162
43.7312 13.7142
43.9237 13.5247
44.1162 13.3506
44.3088 13.128
44.5016 12.9223
44.6945 12.7428
44.8875 12.6406
45.0806 12.4634
45.2739 12.2253
45.4673 12.0703
45.6609 11.9506
45.8546 11.753
46.0484 11.5533
46.2424 11.4479
46.4365 11.2363
46.631 11.1331
46.8254 10.9342
47.0199 10.7418
47.2146 10.6193
47.4095 10.4324
47.6044 10.2883
47.7996 10.1438
47.9948 10.0001
48.1902 9.84382
48.3858 9.70232
48.5815 9.56506
48.7774 9.43549
48.9734 9.28199
49.1696 9.15121
49.3661 9.00289
49.5626 8.88651
49.7592 8.74551
49.956 8.62114
50.153 8.47998
50.3501 8.34167
50.5474 8.24514
50.7448 8.06405
50.9424 7.96288
51.1402 7.84892
51.3381 7.68527
51.5362 7.60745
51.7344 7.45208
51.9328 7.30872
52.1316 7.22538
52.3304 7.11126
52.5293 6.96783
52.7284 6.86492
52.9276 6.76584
53.1271 6.65121
53.3267 6.5581
53.5265 6.40397
53.7264 6.33101
53.9266 6.22747
54.1269 6.11272
54.3274 5.99709
54.528 5.82582
54.7289 5.65033
54.9301 5.48414
55.1314 5.41686
55.3328 5.18866
55.5344 5.00401
55.7361 4.79306

File: Ni3Fe_FD0650.xy
TT I
1.27165 7.39899
1.45013 6.79246
1.62863 5.34333
1.80712 5.12546
1.98562 5.02337
2.16411 4.97808
2.34263 6.19066
2.52115 7.30089
2.69965 8.21063
2.87818 9.06363
3.05672 11.2561
3.23527 15.1215
3.4138 19.1424
3.59237 24.7674
3.77094 26.5059
3.9495 29.8991
4.12809 35.372
4.30669 281.457
4.4853 72.2573
4.6639 55.4797
4.84253 67.1515
5.02118 85.9991
5.19981 329.685
5.37848 197.165
5.55716 102.156
5.73586 91.9026
5.91455 93.2809
6.09328 4331.18
6.27201 84.256
6.45075 67.7702
6.62952 63.6195
6.8083 59.4322
6.98711 56.387
7.16591 56.014
7.34475 106.17
7.5236 55.4255
7.70247 56.972
7.88135 58.3295
8.06026 62.3803
8.23919 69.4441
8.41812 85.4334
8.59709 1084.53
8.77609 99.7441
8.9551 93.9161
9.13412 81.6683
9.31318 82.7996
9.49226 84.2236
9.67134 101.377
9.85047 99.6621
10.0296 317.322
10.2088 447.866
10.388 105.355
10.5672 494.126
10.7465 86.9739
10.9257 79.3946
11.105 72.3633
11.2844 71.8479
11.4637 65.1886
11.6431 64.1145
11.8225 62.5994
12.002 63.7788
12.1814 145.697
12.3609 73.2599
12.5405 64.7539
12.72 71.7766
12.8996 70.9925
13.0792 78.5978
13.2589 224.559
13.4386 129.959
13.6183 235.58
13.7981 100.451
13.9779 76.0443
14.1577 72.9372
14.3376 72.991
14.5175 68.917
14.6974 70.4525
14.8774 106.573
15.0574 154.33
15.2374 72.2329
15.4175 66.4434
15.5976 65.7475
15.7778 92.0521
15.958 163.607
16.1382 63.8077
16.3185 59.3122
16.4988 55.6044
16.6792 54.8189
16.8596 55.6805
17.04 55.8196
17.2205 65.8444
17.401 72.5377
17.5815 59.289
17.7622 61.4123
17.9428 72.6404
18.1237 138.329
18.3044 89.435
18.4852 79.7932
18.666 60.7831
18.8469 58.2889
19.0278 57.0732
19.2088 59.6565
19.3898 77.1608
19.5709 54.4642
19.752 53.2496
19.9332 56.1949
20.1144 69.8664
20.2957 63.3989
20.477 54.2408
20.6586 49.8454
20.84 49.0323
21.0215 48.6942
21.203 50.7737
21.3846 49.1746
21.5662 48.7279
21.7479 52.4336
21.9297 64.729
22.1115 56.4588
22.2933 50.3257
22.4753 49.1514
22.6572 48.9426
22.8393 51.8233
23.0214 57.92
23.2037 48.9962
23.3859 49.6341
23.5682 56.9158
23.7505 48.7502
23.9329 45.4277
24.1154 44.2213
24.2979 43.6905
24.4805 43.0604
24.6631 43.0598
24.8458 42.4226
25.0286 42.8988
25.2114 44.6457
25.3943 45.0073
25.5773 41.2018
25.7605 40.5577
25.9436 40.9506
26.1268 41.91
26.31 40.2045
26.4933 40.8226
26.6767 42.3352
26.8601 40.6671
27.0437 39.0441
27.2272 38.5883
27.4109 38.5199
27.5946 38.6054
27.7784 37.9337
27.9623 38.4783
28.1462 39.0901
28.3304 37.439
28.5145 36.1415
28.6987 35.7624
28.8829 35.4998
29.0673 34.8259
29.2517 34.398
29.4361 34.2202
29.6207 33.2474
29.8053 33.1479
29.99 32.5903
30.1748 32.5345
30.3597 32.3913
30.5447 32.3652
30.7297 32.3415
30.915 31.6334
31.1002 31.3383
31.2855 30.9665
31.4708 30.8961
31.6563 30.4833
31.8418 30.1532
32.0275 30.0873
32.2132 29.5504
32.399 29.0551
32.5848 28.602
32.7708 28.2242
32.9569 28.1796
33.143 27.9306
33.3293 27.5493
33.5158 27.1505
33.7022 26.7712
33.8887 26.4781
34.0753 26.0767
34.262 25.7512
34.4488 25.413
34.6357 25.0692
34.8227 24.7726
35.0098 24.6072
35.1969 24.3476
35.3842 24.1159
35.5716 23.855
35.759 23.5814
35.9468 23.2639
36.1345 23.0139
36.3222 22.7567
36.5101 22.5451
36.6981 22.2292
36.8861 21.8921
37.0743 21.6064
37.2626 21.3167
37.451 21.075
37.6395 20.9099
37.8281 20.5574
38.0168 20.3095
38.2056 20.0899
38.3945 19.6725
38.5837 19.5714
38.7728 19.2787
38.9621 19.1002
39.1514 18.8066
39.3409 18.5331
39.5304 18.34
39.7201 18.2093
39.9099 17.9192
40.0999 17.6799
40.2899 17.4354
40.48 17.2079
40.6703 17.0124
40.8607 16.7415
41.0512 16.591
41.242 16.3073
41.4327 16.1383
41.6236 15.8635
41.8146 15.7627
42.0057 15.5094
42.1969 15.2843
42.3882 15.118
42.5797 14.8658
42.7713 14.743
42.963 14.5211
43.1549 14.3416
43.3468 14.0743
43.5389 13.9249
43.7312 13.6804
43.9237 13.5334
44.1162 13.2898
44.3088 13.1734
44.5016 12.9535
44.6945 12.8083
44.8875 12.6078
45.0806 12.4104
45.2739 12.2527
45.4673 12.0943
45.6609 11.9387
45.8546 11.7454
46.0484 11.6382
46.2424 11.4175
46.4365 11.2726
46.631 11.0979
46.8254 10.9683
47.0199 10.7552
47.2146 10.5808
47.4095 10.4475
47.6044 10.3009
47.7996 10.1344
47.9948 9.98142
48.1902 9.89234
48.3858 9.74105
48.5815 9.55256
48.7774 9.47016
48.9734 9.28774
49.1696 9.15793
49.3661 9.0164
49.5626 8.8678
49.7592 8.71279
49.956 8.63939
50.153 8.50002
50.3501 8.31028
50.5474 8.21202
50.7448 8.10954
50.9424 7.96645
51.1402 7.87427
51.3381 7.71563
51.5362 7.6066
51.7344 7.41576
51.9328 7.31962
52.1316 7.20263
52.3304 7.08961
52.5293 6.99152
52.7284 6.89216
52.9276 6.73134
53.1271 6.65394
53.3267 6.50244
53.5265 6.40418
53.7264 6.28867
53.9266 6.2398
54.1269 6.0906
54.3274 5.98542
54.528 5.85407
54.7289 5.64264
54.9301 5.51387
55.1314 5.36142
55.3328 5.20373
55.5344 4.98837
55.7361 4.83866

File: Ni3Fe_FD0651.xy
TT I
1.27165 7.46654
1.45013 6.31656
1.62863 5.53126
1.80712 4.80505
1.98562 4.59237
2.16411 4.67827
2.34263 5.82382
2.52115 7.14188
2.69965 7.92661
2.87818 8.48545
3.05672 11.3357
3.23527 15.165
3.4138 18.9355
3.59237 24.6333
3.77094 26.8246
3.9495 30.1796
4.12809 35.2338
4.30669 284.548
4.4853 72.4881
4.6639 54.9542
4.84253 66.7124
5.02118 86.8414
5.19981 330.266
5.37848 196.692
5.55716 102.283
5.73586 92.1834
5.91455 93.3028
6.09328 4346.86
6.27201 84.2591
6.45075 67.8085
6.62952 63.523
6.8083 59.3929
6.98711 56.3962
7.16591 56.1105
7.34475 106.551
7.5236 55.6216
7.70247 56.618
7.88135 58.4262
8.06026 62.7074
8.23919 69.8211
8.41812 85.7184
8.59709 1088.64
8.77609 100.033
8.9551 93.8958
9.13412 82.2609
9.31318 82.6922
9.49226 84.7338
9.67134 101.634
9.85047 99.9069
10.0296 317.586
10.2088 445.658
10.388 105.587
10.5672 494.414
10.7465 86.7473
10.9257 79.3394
11.105 72.5732
11.2844 71.895
11.4637 65.3154
11.6431 64.1135
11.8225 62.9405
12.002 63.6763
12.1814 145.891
12.3609 73.1411
12.5405 64.8833
12.72 71.8175
12.8996 71.226
13.0792 78.5951
13.2589 224.397
13.4386 129.63
13.6183 235.647
13.7981 100.299
13.9779 75.6549
14.1577 73.0233
14.3376 72.7075
14.5175 68.9995
14.6974 70.4946
14.8774 106.116
15.0574 154.153
15.2374 72.5007
15.4175 66.6381
15.5976 65.9702
15.7778 92.0108
15.958 163.112
16.1382 63.5759
16.3185 59.2346
16.4988 55.6817
16.6792 54.5975
16.8596 55.5905
17.04 55.9404
17.2205 66.1241
17.401 72.3324
17.5815 59.4208
17.7622 61.5335
17.9428 72.6013
18.1237 138.428
18.3044 89.2215
18.4852 79.9317
18.666 60.8267
18.8469 58.1486
19.0278 57.0803
19.2088 59.4886
19.3898 77.1038
19.5709 54.6932
19.752 53.5203
19.9332 56.0725
20.1144 69.7856
20.2957 63.3803
20.477 54.1624
20.6586 49.9731
20.84 48.9935
21.0215 48.7465
21.203 50.9657
21.3846 49.2501
21.5662 48.8075
21.7479 52.4224
21.9297 64.6117
22.1115 56.222
22.2933 50.1835
22.4753 49.0806
22.6572 48.7844
22.8393 51.7962
23.0214 57.9804
23.2037 49.0416
23.3859 49.6922
23.5682 56.9008
23.7505 48.714
23.9329 45.4457
24.1154 44.3467
24.2979 43.7003
24.4805 43.0219
24.6631 43.0138
24.8458 42.3613
25.0286 42.8989
25.2114 44.8309
25.3943 44.8121
25.5773 41.0011
25.7605 40.6619
25.9436 40.9469
26.1268 41.8128
26.31 40.2422
26.4933 40.8494
26.6767 42.4104
26.8601 40.5929
27.0437 38.9588
27.2272 38.6406
27.4109 38.6056
27.5946 38.5644
27.7784 37.9247
27.9623 38.4731
28.1462 38.8846
28.3304 37.3701
28.5145 36.0867
28.6987 35.7481
28.8829 35.516
29.0673 34.8898
29.2517 34.4196
29.4361 34.3492
29.6207 33.2482
29.8053 33.0991
29.99 32.7418
30.1748 32.6219
30.3597 32.5139
30.5447 32.1826
30.7297 32.3781
30.915 31.8339
31.1002 31.3215
31.2855 31.0113
31.4708 30.9792
31.6563 30.4154
31.8418 30.2595
32.0275 30.0532
32.2132 29.5138
32.399 29.0256
32.5848 28.6411
32.7708 28.2613
32.9569 28.0505
33.143 27.8708
33.3293 27.5154
33.5158 27.138
33.7022 26.7218
33.8887 26.4264
34.0753 26.1975
34.262 25.6858
34.4488 25.4127
34.6357 25.0436
34.8227 24.8492
35.0098 24.6266
35.1969 24.2958
35.3842 24.0423
35.5716 23.8497
35.759 23.5781
35.9468 23.1976
36.1345 23.0604
36.3222 22.8294
36.5101 22.471
36.6981 22.1804
36.8861 21.8765
37.0743 21.5934
37.2626 21.3525
37.451 21.0559
37.6395 20.9806
37.8281 20.5192
38.0168 20.3331
38.2056 20.0468
38.3945 19.732
38.5837 19.5588
38.7728 19.3392
38.9621 19.0613
39.1514 18.7658
39.3409 18.562
39.5304 18.3078
39.7201 18.1604
39.9099 17.853
40.0999 17.6488
40.2899 17.4499
40.48 17.2062
40.6703 16.9434
40.8607 16.7993
41.0512 16.55
41.242 16.3088
41.4327 16.1759
41.6236 15.9306
41.8146 15.7166
42.0057 15.4923
42.1969 15.2832
42.3882 15.1032
42.5797 14.8911
42.7713 14.6473
42.963 14.5234
43.1549 14.2799
43.3468 14.0843
43.5389 13.9054
43.7312 13.6971
43.9237 13.534
44.1162 13.347
44.3088 13.1603
44.5016 12.9321
44.6945 12.8071
44.8875 12.632
45.0806 12.4248
45.2739 12.2514
45.4673 12.0617
45.6609 11.9219
45.8546 11.7847
46.0484 11.6336
46.2424 11.4076
46.4365 11.291
46.631 11.0864
46.8254 10.8603
47.0199 10.7531
47.2146 10.6287
47.4095 10.4227
47.6044 10.284
47.7996 10.1376
47.9948 9.97809
48.1902 9.84759
48.3858 9.69354
48.5815 9.56615
48.7774 9.41184
48.9734 9.32064
49.1696 9.14174
49.3661 9.0117
49.5626 8.85619
49.7592 8.76068
49.956 8.60787
50.153 8.48171
50.3501 8.35335
50.5474 8.20816
50.7448 8.09958
50.9424 7.99449
51.1402 7.85022
51.3381 7.6924
51.5362 7.58006
51.7344 7.43757
51.9328 7.31306
52.1316 7.17547
52.3304 7.14143
52.5293 6.96073
52.7284 6.89816
52.9276 6.76142
53.1271 6.64981
53.3267 6.54138
53.5265 6.40227
53.7264 6.26155
53.9266 6.20024
54.1269 6.09762
54.3274 6.01308
54.528 5.86335
54.7289 5.66148
54.9301 5.52548
55.1314 5.37213
55.3328 5.175
55.5344 4.97074
55.7361 4.86632

File: Ni3Fe_FD0652.xy
TT I
1.27165 7.31116
1.45013 6.0016
1.62863 5.27989
1.80712 5.24486
1.98562 4.66464
2.16411 5.22475
2.34263 5.67904
2.52115 7.17585
2.69965 7.85582
2.87818 8.52381
3.05672 11.3436
3.23527 14.9958
3.4138 19.0033
3.59237 24.8285
3.77094 26.5061
3.9495 30.4556
4.12809 35.1654
4.30669 286.552
4.4853 72.8477
4.6639 55.605
4.84253 67.2403
5.02118 86.3661
5.19981 330.76
5.37848 197.867
5.55716 102.048
5.73586 92.067
5.91455 93.2726
6.09328 4345.77
6.27201 84.7613
6.45075 67.8032
6.62952 63.7236
6.8083 59.6147
6.98711 56.5079
7.16591 56.1155
7.34475 107.352
7.5236 55.2669
7.70247 56.6212
7.88135 58.2674
8.06026 62.8466
8.23919 69.8021
8.41812 85.9626
8.59709 1081.84
8.77609 100.445
8.9551 94.1061
9.13412 82.0782
9.31318 82.8078
9.49226 84.8359
9.67134 102.178
9.85047 99.7085
10.0296 316.467
10.2088 447.361
10.388 105.616
10.5672 491.755
10.7465 86.8896
10.9257 79.3079
11.105 72.2813
11.2844 71.7488
11.4637 65.3732
11.6431 64.0362
11.8225 62.7875
12.002 63.754
12.1814 145.963
12.3609 73.3696
12.5405 64.734
12.72 71.6726
12.8996 70.9938
13.0792 78.5496
13.2589 224.813
13.4386 130.127
13.6183 235.23
13.7981 100.169
13.9779 76.2354
14.1577 73.0564
14.3376 72.963
14.5175 68.932
14.6974 70.886
14.8774 106.504
15.0574 154.871
15.2374 72.403
15.4175 66.6277
15.5976 66.003
15.7778 92.1262
15.958 163.773
16.1382 63.8313
16.3185 59.3561
16.4988 55.8743
16.6792 54.7632
16.8596 55.7365
17.04 55.8075
17.2205 65.9811
17.401 72.3238
17.5815 59.3843
17.7622 61.4481
17.9428 72.6121
18.1237 138.539
18.3044 89.1697
18.4852 79.9642
18.666 60.4903
18.8469 58.2771
19.0278 56.9869
19.2088 59.4709
19.3898 77.1106
19.5709 54.5262
19.752 53.4405
19.9332 56.0764
20.1144 69.7478
20.2957 63.3126
20.477 54.2079
20.6586 49.8818
20.84 49.0337
21.0215 48.583
21.203 50.949
21.3846 49.2237
21.5662 48.7894
21.7479 52.4734
21.9297 64.6894
22.1115 56.1012
22.2933 50.2964
22.4753 49.1911
22.6572 48.8423
22.8393 51.6668
23.0214 58.0832
23.2037 48.9926
23.3859 49.7007
23.5682 56.756
23.7505 48.7734
23.9329 45.4814
24.1154 44.3131
24.2979 43.5269
24.4805 43.12
24.6631 42.8909
24.8458 42.3855
25.0286 42.9957
25.2114 44.7287
25.3943 44.9672
25.5773 41.136
25.7605 40.6056
25.9436 41.0232
26.1268 41.9198
26.31 40.2183
26.4933 40.8411
26.6767 42.3808
26.8601 40.619
27.0437 38.9534
27.2272 38.6465
27.4109 38.4299
27.5946 38.5603
27.7784 38.0308
27.9623 38.4591
28.1462 38.9185
28.3304 37.5125
28.5145 36.1982
28.6987 35.7403
28.8829 35.533
29.0673 34.8925
29.2517 34.5542
29.4361 34.2822
29.6207 33.2684
29.8053 32.9971
29.99 32.7798
30.1748 32.5804
30.3597 32.344
30.5447 32.4156
30.7297 32.3026
30.915 31.6806
31.1002 31.2974
31.2855 31.0084
31.4708 30.9459
31.6563 30.4418
31.8418 30.2351
32.0275 30.0929
32.2132 29.5454
32.399 28.9632
32.5848 28.6366
32.7708 28.2849
32.9569 28.132
33.143 27.8808
33.3293 27.5454
33.5158 27.1366
33.7022 26.8174
33.8887 26.4503
34.0753 26.0719
34.262 25.7756
34.4488 25.5
34.6357 25.0732
34.8227 24.7921
35.0098 24.5542
35.1969 24.3336
35.3842 24.0633
35.5716 23.9096
35.759 23.5756
35.9468 23.1889
36.1345 22.9817
36.3222 22.8265
36.5101 22.5137
36.6981 22.263
36.8861 21.9252
37.0743 21.5828
37.2626 21.3894
37.451 21.0897
37.6395 20.8944
37.8281 20.5844
38.0168 20.3288
38.2056 20.0545
38.3945 19.7956
38.5837 19.5357
38.7728 19.2898
38.9621 19.0763
39.1514 18.7935
39.3409 18.5594
39.5304 18.3036
39.7201 18.0963
39.9099 17.8795
40.0999 17.6854
40.2899 17.452
40.48 17.1946
40.6703 17.0391
40.8607 16.8313
41.0512 16.5763
41.242 16.359
41.4327 16.2146
41.6236 15.9583
41.8146 15.7076
42.0057 15.5018
42.1969 15.2568
42.3882 15.0979
42.5797 14.8692
42.7713 14.7348
42.963 14.4379
43.1549 14.2945
43.3468 14.0787
43.5389 13.9154
43.7312 13.6978
43.9237 13.5175
44.1162 13.3061
44.3088 13.1487
44.5016 12.9488
44.6945 12.7689
44.8875 12.6509
45.0806 12.4645
45.2739 12.2758
45.4673 12.1197
45.6609 11.9377
45.8546 11.7513
46.0484 11.597
46.2424 11.4638
46.4365 11.2716
46.631 11.0963
46.8254 10.9472
47.0199 10.8038
47.2146 10.6479
47.4095 10.4453
47.6044 10.2827
47.7996 10.1358
47.9948 9.97815
48.1902 9.88707
48.3858 9.70623
48.5815 9.58636
48.7774 9.44152
48.9734 9.2996
49.1696 9.13491
49.3661 8.97179
49.5626 8.86812
49.7592 8.73764
49.956 8.58741
50.153 8.47911
50.3501 8.32754
50.5474 8.20159
50.7448 8.09539
50.9424 8.0255
51.1402 7.88608
51.3381 7.75064
51.5362 7.58186
51.7344 7.47626
51.9328 7.32522
52.1316 7.20644
52.3304 7.12211
52.5293 7.00171
52.7284 6.89478
52.9276 6.74214
53.1271 6.67386
53.3267 6.55449
53.5265 6.40901
53.7264 6.33083
53.9266 6.2018
54.1269 6.05822
54.3274 5.97152
54.528 5.84686
54.7289 5.63431
54.9301 5.51755
55.1314 5.4063
55.3328 5.18898
55.5344 4.98525
55.7361 4.85368

File: Ni3Fe_FD0653.xy
TT I
1.27165 7.08606
1.45013 6.81064
1.62863 4.80089
1.80712 5.12974
1.98562 5.16917
2.16411 5.02056
2.34263 5.4012
2.52115 7.40933
2.69965 8.27197
2.87818 8.34145
3.05672 11.0745
3.23527 14.9678
3.4138 19.1162
3.59237 24.6068
3.77094 26.6074
3.9495 30.0747
4.12809 35.5879
4.30669 289.357
4.4853 72.862
4.6639 55.4126
4.84253 66.9653
5.02118 86.2066
5.19981 328.999
5.37848 196.789
5.55716 102.472
5.73586 92.0126
5.91455 93.31
6.09328 4268.05
6.27201 84.622
6.45075 67.7212
6.62952 63.778
6.8083 59.3857
6.98711 56.4917
7.16591 56.1601
7.34475 107.4
7.5236 55.5771
7.70247 56.5738
7.88135 58.1903
8.06026 62.3835
8.23919 69.54
8.41812 85.8552
8.59709 1075.53
8.77609 100.404
8.9551 94.1157
9.13412 81.7032
9.31318 82.4927
9.49226 84.3078
9.67134 101.791
9.85047 100.067
10.0296 315.974
10.2088 452.425
10.388 105.316
10.5672 485.251
10.7465 87.1563
10.9257 78.9454
11.105 72.1067
11.2844 71.9066
11.4637 65.4146
11.6431 64.2046
11.8225 62.6251
12.002 63.7483
12.1814 146.076
12.3609 73.3066
12.5405 64.634
12.72 71.6208
12.8996 70.9056
13.0792 78.7103
13.2589 223.722
13.4386 130.955
13.6183 232.713
13.7981 100.358
13.9779 76.1522
14.1577 73.161
14.3376 72.73
14.5175 68.9307
14.6974 70.76
14.8774 105.914
15.0574 155.927
15.2374 72.2175
15.4175 66.6088
15.5976 65.626
15.7778 91.9191
15.958 164.685
16.1382 63.6816
16.3185 59.27
16.4988 55.8369
16.6792 54.5411
16.8596 55.6229
17.04 55.8271
17.2205 65.8714
17.401 72.7216
17.5815 59.3898
17.7622 61.1352
17.9428 72.6419
18.1237 138.66
18.3044 88.9895
18.4852 79.8423
18.666 60.6017
18.8469 58.279
19.0278 57.2564
19.2088 59.6155
19.3898 77.3251
19.5709 54.5142
19.752 53.4455
19.9332 56.176
20.1144 69.785
20.2957 63.5056
20.477 54.2914
20.6586 49.8599
20.84 48.9696
21.0215 48.5754
21.203 50.6836
21.3846 49.1384
21.5662 48.8176
21.7479 52.3702
21.9297 64.6366
22.1115 56.3
22.2933 50.3551
22.4753 49.1827
22.6572 48.9129
22.8393 51.7326
23.0214 58.0481
23.2037 48.949
23.3859 49.4708
23.5682 56.6419
23.7505 48.852
23.9329 45.498
24.1154 44.2952
24.2979 43.5523
24.4805 43.1099
24.6631 43.0842
24.8458 42.3994
25.0286 42.7936
25.2114 44.7448
25.3943 44.8363
25.5773 41.0827
25.7605 40.5909
25.9436 40.8883
26.1268 41.7797
26.31 40.2672
26.4933 40.7799
26.6767 42.3658
26.8601 40.6073
27.0437 39.1796
27.2272 38.6824
27.4109 38.3853
27.5946 38.5847
27.7784 37.9452
27.9623 38.5368
28.1462 39.004
28.3304 37.4716
28.5145 36.1305
28.6987 35.6853
28.8829 35.5959
29.0673 34.8954
29.2517 34.6267
29.4361 34.2609
29.6207 33.287
29.8053 33.1017
29.99 32.8093
30.1748 32.6301
30.3597 32.4131
30.5447 32.288
30.7297 32.4248
30.915 31.7601
31.1002 31.3261
31.2855 30.9513
31.4708 30.9678
31.6563 30.4923
31.8418 30.2872
32.0275 30.0376
32.2132 29.5425
32.399 29.037
32.5848 28.5872
32.7708 28.2096
32.9569 28.1974
33.143 27.9049
33.3293 27.5776
33.5158 27.1929
33.7022 26.7882
33.8887 26.4614
34.0753 26.143
34.262 25.7302
34.4488 25.3665
34.6357 25.0598
34.8227 24.8276
35.0098 24.5597
35.1969 24.2818
35.3842 24.0607
35.5716 23.9575
35.759 23.6274
35.9468 23.2046
36.1345 23.0211
36.3222 22.7588
36.5101 22.4489
36.6981 22.2141
36.8861 21.8807
37.0743 21.5823
37.2626 21.3562
37.451 21.0972
37.6395 20.9442
37.8281 20.6096
38.0168 20.3929
38.2056 20.0795
38.3945 19.6922
38.5837 19.5855
38.7728 19.2812
38.9621 19.0495
39.1514 18.8261
39.3409 18.5478
39.5304 18.2985
39.7201 18.1253
39.9099 17.8807
40.0999 17.6321
40.2899 17.474
40.48 17.2132
40.6703 16.9942
40.8607 16.8246
41.0512 16.5972
41.242 16.3674
41.4327 16.1407
41.6236 15.9438
41.8146 15.7283
42.0057 15.5148
42.1969 15.2667
42.3882 15.1078
42.5797 14.8936
42.7713 14.6805
42.963 14.4849
43.1549 14.2867
43.3468 14.072
43.5389 13.9209
43.7312 13.675
43.9237 13.5073
44.1162 13.3609
44.3088 13.1459
44.5016 12.9749
44.6945 12.8453
44.8875 12.5576
45.0806 12.373
45.2739 12.2851
45.4673 12.091
45.6609 11.8824
45.8546 11.7347
46.0484 11.5475
46.2424 11.4141
46.4365 11.3213
46.631 11.1203
46.8254 10.9186
47.0199 10.7648
47.2146 10.6132
47.4095 10.4354
47.6044 10.3197
47.7996 10.1306
47.9948 9.992
48.1902 9.85601
48.3858 9.72407
48.5815 9.59499
48.7774 9.4446
48.9734 9.32038
49.1696 9.16343
49.3661 8.99805
49.5626 8.87632
49.7592 8.74785
49.956 8.59114
50.153 8.48392
50.3501 8.30636
50.5474 8.19755
50.7448 8.1222
50.9424 7.93606
51.1402 7.82973
51.3381 7.72686
51.5362 7.60589
51.7344 7.46415
51.9328 7.34241
52.1316 7.18681
52.3304 7.12527
52.5293 6.95618
52.7284 6.87033
52.9276 6.77596
53.1271 6.67964
53.3267 6.56278
53.5265 6.38779
53.7264 6.30709
53.9266 6.18981
54.1269 6.06525
54.3274 5.96559
54.528 5.82092
54.7289 5.67251
54.9301 5.56038
55.1314 5.39828
55.3328 5.1021
55.5344 5.00069
55.7361 4.86558