Folder: NiFe_MOF_catalyst_paper/XRD (part 191)

File: Ni3Fe_FD1031.xy
TT I
1.27165 6.56923
1.45013 5.82275
1.62863 4.89609
1.80712 4.51455
1.98562 3.97107
2.16411 4.46341
2.34263 4.9364
2.52115 7.79435
2.69965 8.3428
2.87818 9.20688
3.05672 11.4461
3.23527 14.6709
3.4138 18.4713
3.59237 21.3588
3.77094 24.5786
3.9495 28.3215
4.12809 32.602
4.30669 57.6053
4.4853 46.1592
4.6639 52.6604
4.84253 64.0067
5.02118 82.8197
5.19981 227.683
5.37848 222.526
5.55716 97.0076
5.73586 86.9678
5.91455 88.1052
6.09328 4502.29
6.27201 75.4026
6.45075 63.0227
6.62952 57.5873
6.8083 54.124
6.98711 52.3328
7.16591 51.5079
7.34475 56.0767
7.5236 60.3773
7.70247 52.7828
7.88135 54.1948
8.06026 58.2113
8.23919 65.5029
8.41812 77.3303
8.59709 1060.13
8.77609 94.8526
8.9551 81.8239
9.13412 78.9003
9.31318 91.0956
9.49226 80.8168
9.67134 85.855
9.85047 93.3396
10.0296 336.771
10.2088 449.718
10.388 97.2982
10.5672 501.951
10.7465 86.8434
10.9257 73.0784
11.105 67.8472
11.2844 64.387
11.4637 61.4391
11.6431 60.2563
11.8225 59.5702
12.002 67.5713
12.1814 145.69
12.3609 64.0599
12.5405 61.1892
12.72 63.4629
12.8996 67.4335
13.0792 76.4657
13.2589 223.188
13.4386 127.762
13.6183 232.884
13.7981 100.859
13.9779 73.1385
14.1577 76.0689
14.3376 66.8542
14.5175 65.9701
14.6974 66.9659
14.8774 107.343
15.0574 161.35
15.2374 66.1207
15.4175 63.673
15.5976 62.8083
15.7778 92.2458
15.958 167.777
16.1382 59.7207
16.3185 55.2127
16.4988 53.0985
16.6792 52.2886
16.8596 52.5196
17.04 53.4713
17.2205 64.1627
17.401 71.7399
17.5815 56.917
17.7622 59.6157
17.9428 72.3475
18.1237 141.474
18.3044 88.0167
18.4852 79.3033
18.666 58.5117
18.8469 56.0571
19.0278 54.6848
19.2088 57.5709
19.3898 75.9493
19.5709 52.6555
19.752 51.5408
19.9332 54.58
20.1144 70.229
20.2957 63.0204
20.477 52.6906
20.6586 48.0733
20.84 47.644
21.0215 47.0545
21.203 49.1395
21.3846 47.474
21.5662 47.4813
21.7479 51.3173
21.9297 65.137
22.1115 55.8506
22.2933 48.802
22.4753 47.3109
22.6572 47.4642
22.8393 50.9312
23.0214 57.4553
23.2037 47.6335
23.3859 48.9363
23.5682 57.0352
23.7505 47.9115
23.9329 44.1237
24.1154 42.8181
24.2979 42.2613
24.4805 41.7324
24.6631 41.7252
24.8458 40.9485
25.0286 41.6772
25.2114 44.0196
25.3943 44.149
25.5773 40.1023
25.7605 39.3421
25.9436 39.7787
26.1268 41.0533
26.31 39.2865
26.4933 39.8735
26.6767 41.6609
26.8601 39.9166
27.0437 38.0591
27.2272 37.7629
27.4109 37.5593
27.5946 37.6679
27.7784 37.0868
27.9623 37.6983
28.1462 38.4682
28.3304 36.7297
28.5145 35.2577
28.6987 34.776
28.8829 34.7342
29.0673 33.9068
29.2517 33.4833
29.4361 33.5407
29.6207 32.4683
29.8053 32.0681
29.99 31.7504
30.1748 31.6826
30.3597 31.541
30.5447 31.4726
30.7297 31.7001
30.915 31.0556
31.1002 30.5269
31.2855 30.2272
31.4708 30.3409
31.6563 29.7745
31.8418 29.5848
32.0275 29.4263
32.2132 28.7975
32.399 28.3089
32.5848 27.9223
32.7708 27.5178
32.9569 27.5458
33.143 27.2816
33.3293 26.9093
33.5158 26.5121
33.7022 26.0432
33.8887 25.8316
34.0753 25.464
34.262 25.104
34.4488 24.7972
34.6357 24.3832
34.8227 24.1919
35.0098 24.0262
35.1969 23.7236
35.3842 23.5735
35.5716 23.3095
35.759 23.0179
35.9468 22.6763
36.1345 22.426
36.3222 22.2378
36.5101 22.0484
36.6981 21.6941
36.8861 21.3981
37.0743 21.0653
37.2626 20.8652
37.451 20.6168
37.6395 20.3386
37.8281 20.1066
38.0168 19.8095
38.2056 19.5721
38.3945 19.2864
38.5837 19.0571
38.7728 18.8023
38.9621 18.5498
39.1514 18.3045
39.3409 18.0942
39.5304 17.9293
39.7201 17.689
39.9099 17.4564
40.0999 17.232
40.2899 17.04
40.48 16.7885
40.6703 16.6069
40.8607 16.384
41.0512 16.1811
41.242 15.9419
41.4327 15.7499
41.6236 15.5479
41.8146 15.3163
42.0057 15.0726
42.1969 14.901
42.3882 14.7424
42.5797 14.5439
42.7713 14.3094
42.963 14.1398
43.1549 13.9297
43.3468 13.7361
43.5389 13.5678
43.7312 13.3847
43.9237 13.1739
44.1162 13.0293
44.3088 12.8259
44.5016 12.6143
44.6945 12.4636
44.8875 12.2732
45.0806 12.0978
45.2739 11.9564
45.4673 11.8004
45.6609 11.5821
45.8546 11.4386
46.0484 11.2451
46.2424 11.1225
46.4365 11.0002
46.631 10.7883
46.8254 10.6294
47.0199 10.4955
47.2146 10.3496
47.4095 10.2001
47.6044 10.0213
47.7996 9.88744
47.9948 9.7566
48.1902 9.62062
48.3858 9.50612
48.5815 9.33536
48.7774 9.21215
48.9734 9.0729
49.1696 8.91874
49.3661 8.76618
49.5626 8.64872
49.7592 8.52628
49.956 8.41246
50.153 8.28868
50.3501 8.21873
50.5474 8.00517
50.7448 7.87794
50.9424 7.74819
51.1402 7.66958
51.3381 7.5089
51.5362 7.416
51.7344 7.28239
51.9328 7.13103
52.1316 7.00496
52.3304 6.9419
52.5293 6.79327
52.7284 6.73048
52.9276 6.61682
53.1271 6.48442
53.3267 6.38247
53.5265 6.24242
53.7264 6.16652
53.9266 6.03665
54.1269 5.91385
54.3274 5.84567
54.528 5.68375
54.7289 5.53261
54.9301 5.34513
55.1314 5.2285
55.3328 5.02226
55.5344 4.88666
55.7361 4.71365

File: Ni3Fe_FD1032.xy
TT I
1.27165 6.70137
1.45013 6.29461
1.62863 4.95869
1.80712 4.54196
1.98562 4.31871
2.16411 4.35912
2.34263 4.97614
2.52115 7.24125
2.69965 8.14285
2.87818 8.82646
3.05672 10.8211
3.23527 14.6638
3.4138 18.1743
3.59237 21.0598
3.77094 24.7784
3.9495 28.3172
4.12809 32.1886
4.30669 57.2087
4.4853 45.7655
4.6639 52.9952
4.84253 64.0681
5.02118 82.4177
5.19981 228.312
5.37848 221.943
5.55716 96.6955
5.73586 88.1126
5.91455 88.6479
6.09328 4533.72
6.27201 75.9458
6.45075 63.0617
6.62952 57.5253
6.8083 54.1844
6.98711 52.1993
7.16591 51.1545
7.34475 55.8884
7.5236 60.3482
7.70247 53.0652
7.88135 54.6399
8.06026 58.7311
8.23919 64.9909
8.41812 77.3108
8.59709 1062.91
8.77609 94.7881
8.9551 82.332
9.13412 78.5489
9.31318 91.6651
9.49226 80.5955
9.67134 85.7444
9.85047 93.5422
10.0296 336.554
10.2088 449.804
10.388 97.1311
10.5672 502.369
10.7465 86.5771
10.9257 73.1902
11.105 67.7421
11.2844 64.3474
11.4637 61.7287
11.6431 60.2527
11.8225 59.5649
12.002 67.5834
12.1814 145.878
12.3609 64.1986
12.5405 61.085
12.72 63.8283
12.8996 67.5747
13.0792 76.3886
13.2589 223.044
13.4386 127.535
13.6183 233.428
13.7981 101.327
13.9779 73.2315
14.1577 76.4275
14.3376 67.1199
14.5175 66.1081
14.6974 67.0355
14.8774 107.523
15.0574 161.355
15.2374 66.4355
15.4175 63.7545
15.5976 62.9985
15.7778 93.0493
15.958 167.924
16.1382 59.6424
16.3185 55.3886
16.4988 53.151
16.6792 52.4579
16.8596 52.5583
17.04 53.3383
17.2205 64.284
17.401 71.7163
17.5815 56.8631
17.7622 59.878
17.9428 72.2697
18.1237 141.745
18.3044 88.3775
18.4852 79.2204
18.666 58.6256
18.8469 56.2842
19.0278 54.7801
19.2088 57.5893
19.3898 75.8943
19.5709 52.8405
19.752 51.4252
19.9332 54.5458
20.1144 70.1135
20.2957 63.1866
20.477 52.6094
20.6586 48.2459
20.84 47.8599
21.0215 47.1624
21.203 49.3276
21.3846 47.5834
21.5662 47.5338
21.7479 51.4516
21.9297 65.1079
22.1115 55.7535
22.2933 49.0718
22.4753 47.2564
22.6572 47.4043
22.8393 50.8659
23.0214 57.263
23.2037 47.6237
23.3859 49.045
23.5682 57.0502
23.7505 48.0685
23.9329 44.2015
24.1154 42.8992
24.2979 42.2642
24.4805 41.7361
24.6631 41.887
24.8458 41.0036
25.0286 41.8084
25.2114 43.9745
25.3943 44.1389
25.5773 39.9802
25.7605 39.4529
25.9436 39.9215
26.1268 41.2049
26.31 39.2265
26.4933 39.8486
26.6767 41.8841
26.8601 39.8606
27.0437 38.1347
27.2272 37.7066
27.4109 37.659
27.5946 37.8014
27.7784 37.0622
27.9623 37.9268
28.1462 38.52
28.3304 36.6781
28.5145 35.2579
28.6987 34.7869
28.8829 34.742
29.0673 34.0465
29.2517 33.546
29.4361 33.6245
29.6207 32.386
29.8053 32.0908
29.99 31.8481
30.1748 31.7916
30.3597 31.6226
30.5447 31.5389
30.7297 31.7274
30.915 31.0833
31.1002 30.5236
31.2855 30.2456
31.4708 30.2959
31.6563 29.7643
31.8418 29.5659
32.0275 29.3943
32.2132 28.7745
32.399 28.407
32.5848 27.9478
32.7708 27.5677
32.9569 27.4846
33.143 27.3052
33.3293 26.9038
33.5158 26.4995
33.7022 26.013
33.8887 25.802
34.0753 25.4482
34.262 25.2038
34.4488 24.7557
34.6357 24.4495
34.8227 24.238
35.0098 23.9727
35.1969 23.7663
35.3842 23.6043
35.5716 23.3861
35.759 22.9648
35.9468 22.6794
36.1345 22.5062
36.3222 22.2261
36.5101 21.9685
36.6981 21.7076
36.8861 21.3748
37.0743 21.1203
37.2626 20.9017
37.451 20.6699
37.6395 20.3699
37.8281 20.088
38.0168 19.7957
38.2056 19.5392
38.3945 19.2597
38.5837 19.1019
38.7728 18.8834
38.9621 18.5732
39.1514 18.313
39.3409 18.1306
39.5304 17.8673
39.7201 17.705
39.9099 17.4908
40.0999 17.3088
40.2899 17.0864
40.48 16.7717
40.6703 16.5566
40.8607 16.3985
41.0512 16.2121
41.242 15.9422
41.4327 15.7749
41.6236 15.5187
41.8146 15.3536
42.0057 15.1126
42.1969 14.8759
42.3882 14.7636
42.5797 14.5166
42.7713 14.3646
42.963 14.1411
43.1549 13.9566
43.3468 13.7258
43.5389 13.5621
43.7312 13.3991
43.9237 13.1915
44.1162 12.9914
44.3088 12.8634
44.5016 12.6496
44.6945 12.4553
44.8875 12.3264
45.0806 12.1144
45.2739 11.9544
45.4673 11.8227
45.6609 11.5841
45.8546 11.4418
46.0484 11.2889
46.2424 11.1506
46.4365 10.9838
46.631 10.8074
46.8254 10.6582
47.0199 10.4941
47.2146 10.36
47.4095 10.1973
47.6044 10.0538
47.7996 9.8784
47.9948 9.73494
48.1902 9.62801
48.3858 9.49525
48.5815 9.35612
48.7774 9.21869
48.9734 9.06793
49.1696 8.93992
49.3661 8.7906
49.5626 8.64609
49.7592 8.50188
49.956 8.40046
50.153 8.29136
50.3501 8.13394
50.5474 8.02252
50.7448 7.91867
50.9424 7.76506
51.1402 7.63803
51.3381 7.48088
51.5362 7.44068
51.7344 7.29009
51.9328 7.15131
52.1316 7.03503
52.3304 6.95133
52.5293 6.83917
52.7284 6.70878
52.9276 6.59576
53.1271 6.46484
53.3267 6.39528
53.5265 6.22579
53.7264 6.16212
53.9266 6.04238
54.1269 5.92273
54.3274 5.84144
54.528 5.6841
54.7289 5.52764
54.9301 5.38717
55.1314 5.26807
55.3328 5.03734
55.5344 4.93523
55.7361 4.72177

File: Ni3Fe_FD1033.xy
TT I
1.27165 7.08874
1.45013 5.79503
1.62863 4.86909
1.80712 4.77786
1.98562 4.63562
2.16411 4.46866
2.34263 5.85395
2.52115 7.29876
2.69965 8.55119
2.87818 9.17802
3.05672 11.0833
3.23527 15.1504
3.4138 18.4049
3.59237 21.4158
3.77094 24.8307
3.9495 28.2934
4.12809 32.425
4.30669 57.3898
4.4853 46.1796
4.6639 52.7451
4.84253 64.4453
5.02118 82.8293
5.19981 230.029
5.37848 220.155
5.55716 97.0256
5.73586 87.6982
5.91455 88.464
6.09328 4552.08
6.27201 75.5849
6.45075 63.6491
6.62952 57.712
6.8083 54.4135
6.98711 52.3418
7.16591 52.0031
7.34475 55.9833
7.5236 60.4038
7.70247 53.1933
7.88135 54.8349
8.06026 58.8101
8.23919 65.376
8.41812 77.2984
8.59709 1069.06
8.77609 95.0292
8.9551 82.2744
9.13412 79.0094
9.31318 91.3614
9.49226 80.6111
9.67134 86.3267
9.85047 93.5145
10.0296 339.047
10.2088 444.745
10.388 97.6905
10.5672 504.824
10.7465 86.6143
10.9257 73.5224
11.105 67.7725
11.2844 64.6189
11.4637 61.7435
11.6431 60.3416
11.8225 59.6382
12.002 67.273
12.1814 146.728
12.3609 64.2827
12.5405 61.16
12.72 63.6836
12.8996 67.4809
13.0792 76.322
13.2589 224.85
13.4386 127.054
13.6183 234.165
13.7981 100.728
13.9779 72.9606
14.1577 76.3826
14.3376 67.1722
14.5175 66.2186
14.6974 67.1703
14.8774 108.02
15.0574 160.352
15.2374 66.546
15.4175 63.9661
15.5976 63.1498
15.7778 93.2688
15.958 167.018
16.1382 59.9677
16.3185 55.4125
16.4988 53.3022
16.6792 52.5312
16.8596 52.6696
17.04 53.7421
17.2205 64.316
17.401 71.6177
17.5815 57.1151
17.7622 59.6916
17.9428 72.4668
18.1237 141.611
18.3044 88.2526
18.4852 79.0219
18.666 58.5022
18.8469 56.2391
19.0278 54.7766
19.2088 57.566
19.3898 75.9624
19.5709 52.7211
19.752 51.7571
19.9332 54.8818
20.1144 70.1491
20.2957 63.1187
20.477 52.6881
20.6586 48.32
20.84 47.8468
21.0215 47.1361
21.203 49.328
21.3846 47.9012
21.5662 47.4209
21.7479 51.4225
21.9297 65.0676
22.1115 55.7554
22.2933 48.9415
22.4753 47.2858
22.6572 47.4927
22.8393 51.0054
23.0214 57.3336
23.2037 47.5808
23.3859 49.1046
23.5682 56.9016
23.7505 48.0191
23.9329 44.1031
24.1154 43.079
24.2979 42.3235
24.4805 41.7763
24.6631 41.812
24.8458 41.1649
25.0286 41.948
25.2114 43.8612
25.3943 44.1982
25.5773 40.1858
25.7605 39.4946
25.9436 39.829
26.1268 41.198
26.31 39.3984
26.4933 39.8904
26.6767 41.7629
26.8601 39.8842
27.0437 38.1572
27.2272 37.7792
27.4109 37.5878
27.5946 37.7335
27.7784 37.2156
27.9623 37.8687
28.1462 38.4631
28.3304 36.6038
28.5145 35.2974
28.6987 34.8246
28.8829 34.7428
29.0673 34.0982
29.2517 33.6003
29.4361 33.5732
29.6207 32.4492
29.8053 32.1739
29.99 31.8439
30.1748 31.7687
30.3597 31.6109
30.5447 31.4812
30.7297 31.7616
30.915 30.9778
31.1002 30.5756
31.2855 30.2854
31.4708 30.3517
31.6563 29.8107
31.8418 29.6868
32.0275 29.4858
32.2132 28.8243
32.399 28.2881
32.5848 27.9434
32.7708 27.6288
32.9569 27.4585
33.143 27.29
33.3293 26.8464
33.5158 26.4661
33.7022 26.1671
33.8887 25.8301
34.0753 25.4683
34.262 25.1409
34.4488 24.814
34.6357 24.4057
34.8227 24.2445
35.0098 24.1009
35.1969 23.77
35.3842 23.5464
35.5716 23.3387
35.759 23.0443
35.9468 22.7575
36.1345 22.4124
36.3222 22.267
36.5101 21.9957
36.6981 21.7174
36.8861 21.4704
37.0743 21.1405
37.2626 20.8855
37.451 20.607
37.6395 20.4389
37.8281 20.0953
38.0168 19.8064
38.2056 19.5684
38.3945 19.3256
38.5837 19.0543
38.7728 18.8428
38.9621 18.5589
39.1514 18.3305
39.3409 18.1223
39.5304 17.925
39.7201 17.7333
39.9099 17.521
40.0999 17.2533
40.2899 17.0107
40.48 16.7458
40.6703 16.593
40.8607 16.4023
41.0512 16.1895
41.242 15.9618
41.4327 15.7432
41.6236 15.5749
41.8146 15.3568
42.0057 15.1097
42.1969 14.9884
42.3882 14.7434
42.5797 14.5499
42.7713 14.3649
42.963 14.129
43.1549 13.9676
43.3468 13.7388
43.5389 13.5464
43.7312 13.3241
43.9237 13.1815
44.1162 12.996
44.3088 12.796
44.5016 12.665
44.6945 12.4599
44.8875 12.3404
45.0806 12.1434
45.2739 12.0186
45.4673 11.8373
45.6609 11.6351
45.8546 11.4355
46.0484 11.3398
46.2424 11.1452
46.4365 11.0101
46.631 10.8366
46.8254 10.6422
47.0199 10.5121
47.2146 10.3399
47.4095 10.202
47.6044 10.0426
47.7996 9.89052
47.9948 9.75564
48.1902 9.64491
48.3858 9.48648
48.5815 9.3495
48.7774 9.25926
48.9734 9.05244
49.1696 8.92582
49.3661 8.80641
49.5626 8.65369
49.7592 8.55269
49.956 8.37603
50.153 8.28295
50.3501 8.17817
50.5474 8.00512
50.7448 7.90169
50.9424 7.77339
51.1402 7.69558
51.3381 7.52636
51.5362 7.41518
51.7344 7.3244
51.9328 7.1498
52.1316 7.03019
52.3304 6.93279
52.5293 6.81108
52.7284 6.71496
52.9276 6.57066
53.1271 6.50026
53.3267 6.36627
53.5265 6.2742
53.7264 6.16151
53.9266 6.08821
54.1269 5.94753
54.3274 5.81952
54.528 5.67786
54.7289 5.50044
54.9301 5.41145
55.1314 5.27911
55.3328 5.02892
55.5344 4.85183
55.7361 4.80504

File: Ni3Fe_FD1034.xy
TT I
1.27165 6.74399
1.45013 5.85485
1.62863 4.58898
1.80712 5.32149
1.98562 4.35608
2.16411 4.4108
2.34263 5.68132
2.52115 7.39614
2.69965 8.63095
2.87818 8.77803
3.05672 10.9003
3.23527 14.7847
3.4138 18.1763
3.59237 20.8934
3.77094 24.6067
3.9495 28.3279
4.12809 31.8669
4.30669 57.1359
4.4853 46.2522
4.6639 52.4176
4.84253 64.1923
5.02118 83.015
5.19981 228.279
5.37848 220.975
5.55716 97.1353
5.73586 87.5188
5.91455 88.1278
6.09328 4534.77
6.27201 75.5318
6.45075 63.1457
6.62952 57.608
6.8083 54.0472
6.98711 52.5952
7.16591 51.3999
7.34475 56.1079
7.5236 60.0637
7.70247 52.6953
7.88135 54.5906
8.06026 58.575
8.23919 65.6045
8.41812 77.8066
8.59709 1066.84
8.77609 94.8782
8.9551 82.0202
9.13412 78.7412
9.31318 90.8903
9.49226 81.0805
9.67134 86.1031
9.85047 93.011
10.0296 338.228
10.2088 446.013
10.388 97.0798
10.5672 504.519
10.7465 86.9004
10.9257 73.2166
11.105 68.0536
11.2844 64.5824
11.4637 61.5826
11.6431 60.5271
11.8225 59.6476
12.002 67.341
12.1814 145.774
12.3609 64.2101
12.5405 61.0735
12.72 63.7002
12.8996 67.4548
13.0792 76.3785
13.2589 223.785
13.4386 127.934
13.6183 234.203
13.7981 100.936
13.9779 73.388
14.1577 76.4644
14.3376 66.9368
14.5175 66.1005
14.6974 67.1721
14.8774 108.123
15.0574 161.369
15.2374 66.2381
15.4175 63.9617
15.5976 63.149
15.7778 92.8648
15.958 168.056
16.1382 60.0116
16.3185 55.4442
16.4988 53.2276
16.6792 52.4031
16.8596 52.7392
17.04 53.6068
17.2205 64.3715
17.401 71.6763
17.5815 57.0731
17.7622 59.9062
17.9428 72.5223
18.1237 142.11
18.3044 88.3455
18.4852 79.3515
18.666 58.7014
18.8469 56.07
19.0278 54.7667
19.2088 57.5382
19.3898 76.1854
19.5709 52.7267
19.752 51.6343
19.9332 54.5819
20.1144 70.1011
20.2957 63.0703
20.477 52.7723
20.6586 48.1186
20.84 47.7063
21.0215 46.9769
21.203 49.368
21.3846 47.7379
21.5662 47.3851
21.7479 51.594
21.9297 65.2606
22.1115 55.8055
22.2933 48.9619
22.4753 47.2303
22.6572 47.4278
22.8393 50.9311
23.0214 57.3042
23.2037 47.7011
23.3859 49.1237
23.5682 57.0289
23.7505 47.9205
23.9329 44.106
24.1154 42.926
24.2979 42.1054
24.4805 41.7042
24.6631 41.9258
24.8458 41.1691
25.0286 41.8183
25.2114 44.1491
25.3943 44.2803
25.5773 40.0623
25.7605 39.3433
25.9436 39.8912
26.1268 41.1548
26.31 39.313
26.4933 39.8667
26.6767 41.8724
26.8601 39.9549
27.0437 38.0875
27.2272 37.8191
27.4109 37.6242
27.5946 37.6882
27.7784 37.2157
27.9623 37.8213
28.1462 38.5687
28.3304 36.6743
28.5145 35.2157
28.6987 34.9186
28.8829 34.6329
29.0673 33.9192
29.2517 33.6008
29.4361 33.5169
29.6207 32.4554
29.8053 32.1172
29.99 31.8097
30.1748 31.7948
30.3597 31.7254
30.5447 31.4854
30.7297 31.7474
30.915 31.0242
31.1002 30.5472
31.2855 30.3163
31.4708 30.29
31.6563 29.918
31.8418 29.6408
32.0275 29.4173
32.2132 28.9262
32.399 28.3165
32.5848 27.8965
32.7708 27.5797
32.9569 27.4366
33.143 27.3123
33.3293 26.9814
33.5158 26.6169
33.7022 26.0879
33.8887 25.8788
34.0753 25.5519
34.262 25.1027
34.4488 24.7969
34.6357 24.5268
34.8227 24.2655
35.0098 24.052
35.1969 23.7715
35.3842 23.6239
35.5716 23.3564
35.759 23.0657
35.9468 22.7085
36.1345 22.5039
36.3222 22.2646
36.5101 22.0294
36.6981 21.7281
36.8861 21.4324
37.0743 21.1505
37.2626 20.8602
37.451 20.5064
37.6395 20.3858
37.8281 20.0637
38.0168 19.8717
38.2056 19.6102
38.3945 19.339
38.5837 19.0785
38.7728 18.8013
38.9621 18.5866
39.1514 18.3349
39.3409 18.0518
39.5304 17.8926
39.7201 17.7374
39.9099 17.5122
40.0999 17.2739
40.2899 17.0465
40.48 16.8425
40.6703 16.5758
40.8607 16.4232
41.0512 16.1907
41.242 15.9167
41.4327 15.7354
41.6236 15.4844
41.8146 15.3693
42.0057 15.1848
42.1969 14.9174
42.3882 14.7814
42.5797 14.5236
42.7713 14.3621
42.963 14.1708
43.1549 13.9516
43.3468 13.7732
43.5389 13.5831
43.7312 13.3761
43.9237 13.2152
44.1162 13.0556
44.3088 12.8716
44.5016 12.6666
44.6945 12.4773
44.8875 12.3549
45.0806 12.1592
45.2739 11.9602
45.4673 11.8099
45.6609 11.6173
45.8546 11.4915
46.0484 11.2952
46.2424 11.1598
46.4365 10.9396
46.631 10.8528
46.8254 10.6299
47.0199 10.5143
47.2146 10.3862
47.4095 10.1956
47.6044 10.0853
47.7996 9.90778
47.9948 9.74324
48.1902 9.62458
48.3858 9.46774
48.5815 9.35214
48.7774 9.20031
48.9734 9.0432
49.1696 8.91496
49.3661 8.78408
49.5626 8.67526
49.7592 8.52512
49.956 8.41891
50.153 8.28871
50.3501 8.09822
50.5474 8.0308
50.7448 7.92381
50.9424 7.76391
51.1402 7.64972
51.3381 7.51894
51.5362 7.39723
51.7344 7.27722
51.9328 7.16823
52.1316 7.02713
52.3304 6.96862
52.5293 6.79665
52.7284 6.69872
52.9276 6.56205
53.1271 6.51866
53.3267 6.39413
53.5265 6.26289
53.7264 6.16164
53.9266 6.0722
54.1269 5.96256
54.3274 5.81804
54.528 5.70738
54.7289 5.56685
54.9301 5.38892
55.1314 5.25078
55.3328 5.06419
55.5344 4.89742
55.7361 4.806

File: Ni3Fe_FD1035.xy
TT I
1.27165 6.96217
1.45013 5.78779
1.62863 4.99329
1.80712 4.36157
1.98562 4.45922
2.16411 4.26929
2.34263 5.23409
2.52115 7.25254
2.69965 8.76664
2.87818 9.33599
3.05672 10.6928
3.23527 14.5096
3.4138 17.8863
3.59237 21.0999
3.77094 24.5937
3.9495 28.0905
4.12809 32.346
4.30669 57.0786
4.4853 46.1896
4.6639 52.771
4.84253 64.0822
5.02118 83.2578
5.19981 231.183
5.37848 218.079
5.55716 97.367
5.73586 87.4015
5.91455 88.7725
6.09328 4602.68
6.27201 75.7704
6.45075 63.1486
6.62952 58.2718
6.8083 54.5674
6.98711 52.6639
7.16591 51.6674
7.34475 56.1885
7.5236 60.1833
7.70247 52.9412
7.88135 54.8613
8.06026 59.2087
8.23919 65.4062
8.41812 77.3903
8.59709 1073.77
8.77609 95.0538
8.9551 82.2886
9.13412 79.2174
9.31318 90.9567
9.49226 81.344
9.67134 86.6625
9.85047 93.7035
10.0296 340.792
10.2088 440.148
10.388 97.5884
10.5672 507.033
10.7465 86.6446
10.9257 73.3676
11.105 68.0696
11.2844 64.9163
11.4637 61.8354
11.6431 60.5446
11.8225 59.3592
12.002 67.4947
12.1814 147.372
12.3609 64.3098
12.5405 61.208
12.72 63.7854
12.8996 67.67
13.0792 76.4383
13.2589 225.695
13.4386 126.863
13.6183 235.203
13.7981 100.253
13.9779 73.4722
14.1577 76.2052
14.3376 67.19
14.5175 66.113
14.6974 67.3001
14.8774 108.776
15.0574 160.507
15.2374 66.2983
15.4175 63.9568
15.5976 63.3024
15.7778 93.2449
15.958 166.616
16.1382 59.984
16.3185 55.4662
16.4988 53.2176
16.6792 52.2385
16.8596 52.7858
17.04 53.7073
17.2205 64.4787
17.401 71.3389
17.5815 57.2184
17.7622 59.6864
17.9428 72.6254
18.1237 141.501
18.3044 88.3144
18.4852 78.8353
18.666 58.7026
18.8469 56.1455
19.0278 54.9997
19.2088 57.739
19.3898 76.2456
19.5709 52.8494
19.752 51.6763
19.9332 54.8833
20.1144 70.0971
20.2957 63.5349
20.477 52.7395
20.6586 48.4278
20.84 47.7351
21.0215 47.2118
21.203 49.4374
21.3846 47.5428
21.5662 47.5534
21.7479 51.6124
21.9297 65.2036
22.1115 55.5728
22.2933 48.7672
22.4753 47.4596
22.6572 47.3555
22.8393 51.0354
23.0214 57.4507
23.2037 47.6733
23.3859 49.1613
23.5682 57.0556
23.7505 48.1131
23.9329 44.1394
24.1154 42.9882
24.2979 42.3078
24.4805 41.8301
24.6631 41.9246
24.8458 41.0965
25.0286 41.8021
25.2114 44.0746
25.3943 44.3329
25.5773 39.9202
25.7605 39.5393
25.9436 39.9183
26.1268 41.1419
26.31 39.3305
26.4933 39.8022
26.6767 41.7505
26.8601 40.0603
27.0437 38.1828
27.2272 37.7194
27.4109 37.6305
27.5946 37.7645
27.7784 37.2453
27.9623 37.8551
28.1462 38.5394
28.3304 36.6939
28.5145 35.2473
28.6987 34.9379
28.8829 34.7426
29.0673 34.048
29.2517 33.5552
29.4361 33.6014
29.6207 32.5173
29.8053 32.1043
29.99 31.8931
30.1748 31.8494
30.3597 31.5534
30.5447 31.6098
30.7297 31.7333
30.915 31.1088
31.1002 30.652
31.2855 30.3379
31.4708 30.3728
31.6563 29.906
31.8418 29.71
32.0275 29.4557
32.2132 28.8507
32.399 28.386
32.5848 27.9735
32.7708 27.6448
32.9569 27.5813
33.143 27.3209
33.3293 27.0162
33.5158 26.5423
33.7022 26.1719
33.8887 25.8502
34.0753 25.5462
34.262 25.2133
34.4488 24.8574
34.6357 24.5032
34.8227 24.1351
35.0098 24.0847
35.1969 23.6807
35.3842 23.5494
35.5716 23.3085
35.759 23.0293
35.9468 22.668
36.1345 22.4023
36.3222 22.2097
36.5101 22.0003
36.6981 21.6807
36.8861 21.4452
37.0743 21.0934
37.2626 20.8752
37.451 20.596
37.6395 20.4409
37.8281 20.1102
38.0168 19.8795
38.2056 19.5954
38.3945 19.323
38.5837 19.0484
38.7728 18.8387
38.9621 18.577
39.1514 18.3481
39.3409 18.1011
39.5304 17.9055
39.7201 17.7352
39.9099 17.4542
40.0999 17.2618
40.2899 17.0248
40.48 16.8111
40.6703 16.6361
40.8607 16.4907
41.0512 16.2201
41.242 15.9399
41.4327 15.7737
41.6236 15.5667
41.8146 15.3637
42.0057 15.1649
42.1969 14.903
42.3882 14.7839
42.5797 14.5661
42.7713 14.3128
42.963 14.1452
43.1549 13.954
43.3468 13.7853
43.5389 13.5966
43.7312 13.4235
43.9237 13.2278
44.1162 12.9925
44.3088 12.8438
44.5016 12.6706
44.6945 12.5068
44.8875 12.3056
45.0806 12.1207
45.2739 11.9541
45.4673 11.8149
45.6609 11.6307
45.8546 11.506
46.0484 11.275
46.2424 11.1981
46.4365 10.9911
46.631 10.7975
46.8254 10.6449
47.0199 10.4834
47.2146 10.3751
47.4095 10.1947
47.6044 10.0062
47.7996 9.92462
47.9948 9.76013
48.1902 9.57982
48.3858 9.47807
48.5815 9.33012
48.7774 9.2238
48.9734 9.08368
49.1696 8.97114
49.3661 8.79652
49.5626 8.66899
49.7592 8.52266
49.956 8.41091
50.153 8.26446
50.3501 8.12941
50.5474 8.03552
50.7448 7.90522
50.9424 7.80088
51.1402 7.66126
51.3381 7.53031
51.5362 7.40148
51.7344 7.31354
51.9328 7.16304
52.1316 7.06659
52.3304 6.95496
52.5293 6.81152
52.7284 6.73078
52.9276 6.59917
53.1271 6.51031
53.3267 6.38511
53.5265 6.29212
53.7264 6.1544
53.9266 6.06046
54.1269 5.90865
54.3274 5.84565
54.528 5.70728
54.7289 5.56197
54.9301 5.35899
55.1314 5.28057
55.3328 5.02383
55.5344 4.86304
55.7361 4.73652