Folder: NiFe_MOF_catalyst_paper/XRD (part 52)

File: Ni3Fe_FD0268.xy
TT I
1.27165 7.36244
1.45013 6.24434
1.62863 5.27405
1.80712 4.84709
1.98562 4.81657
2.16411 4.71563
2.34263 5.10136
2.52115 5.3043
2.69965 6.69955
2.87818 8.03381
3.05672 10.8711
3.23527 15.0855
3.4138 19.4691
3.59237 24.4753
3.77094 26.9052
3.9495 30.4678
4.12809 35.6636
4.30669 182.533
4.4853 63.168
4.6639 57.7977
4.84253 70.3818
5.02118 93.2352
5.19981 542.514
5.37848 267.432
5.55716 109.851
5.73586 98.2918
5.91455 103.521
6.09328 3695.43
6.27201 89.8361
6.45075 70.8521
6.62952 65.6506
6.8083 61.0666
6.98711 58.1244
7.16591 57.6574
7.34475 87.2412
7.5236 56.4598
7.70247 58.2587
7.88135 60.3976
8.06026 65.1611
8.23919 72.5457
8.41812 89.9178
8.59709 1086.82
8.77609 109.32
8.9551 94.9796
9.13412 85.9247
9.31318 86.7877
9.49226 88.0225
9.67134 101.382
9.85047 105.418
10.0296 436.257
10.2088 594.34
10.388 110.862
10.5672 458.391
10.7465 91.5794
10.9257 82.1427
11.105 75.0501
11.2844 72.8375
11.4637 67.6033
11.6431 66.3146
11.8225 65.0803
12.002 66.6754
12.1814 143.909
12.3609 75.0857
12.5405 67.3022
12.72 72.2484
12.8996 74.2621
13.0792 82.9984
13.2589 227.927
13.4386 154.247
13.6183 228.691
13.7981 113.236
13.9779 79.0423
14.1577 75.5221
14.3376 74.2081
14.5175 71.8574
14.6974 73.4818
14.8774 116.074
15.0574 177.074
15.2374 74.0385
15.4175 69.4183
15.5976 68.9724
15.7778 100.777
15.958 176.311
16.1382 65.1364
16.3185 60.9311
16.4988 57.8705
16.6792 56.8686
16.8596 57.5792
17.04 58.3076
17.2205 68.4635
17.401 77.5546
17.5815 62.0237
17.7622 64.0183
17.9428 79.9611
18.1237 136.208
18.3044 91.0248
18.4852 86.1437
18.666 63.1552
18.8469 60.6854
19.0278 59.4087
19.2088 62.6958
19.3898 77.0851
19.5709 57.1638
19.752 55.7455
19.9332 59.0888
20.1144 71.7094
20.2957 65.095
20.477 57.1211
20.6586 52.0969
20.84 51.0802
21.0215 50.8679
21.203 52.4182
21.3846 51.5188
21.5662 50.9555
21.7479 54.9751
21.9297 66.3047
22.1115 57.7853
22.2933 52.5851
22.4753 51.2281
22.6572 51.0681
22.8393 53.9566
23.0214 59.919
23.2037 51.0258
23.3859 52.4084
23.5682 57.6325
23.7505 51.5125
23.9329 47.2434
24.1154 46.1284
24.2979 45.4003
24.4805 44.745
24.6631 44.7365
24.8458 44.0283
25.0286 44.6118
25.2114 46.3625
25.3943 46.3649
25.5773 42.9132
25.7605 42.2492
25.9436 42.472
26.1268 43.44
26.31 41.9573
26.4933 42.351
26.6767 43.7161
26.8601 42.2487
27.0437 40.6203
27.2272 40.1708
27.4109 39.9989
27.5946 40.0343
27.7784 39.5756
27.9623 39.9003
28.1462 40.556
28.3304 38.8862
28.5145 37.4571
28.6987 37.0774
28.8829 36.8866
29.0673 36.1367
29.2517 35.7267
29.4361 35.4181
29.6207 34.646
29.8053 34.1811
29.99 33.9188
30.1748 33.8561
30.3597 33.7922
30.5447 33.5266
30.7297 33.5463
30.915 32.9709
31.1002 32.4192
31.2855 32.3136
31.4708 32.1683
31.6563 31.7222
31.8418 31.3879
32.0275 31.1824
32.2132 30.6208
32.399 30.1983
32.5848 29.801
32.7708 29.3432
32.9569 29.2333
33.143 28.8743
33.3293 28.5657
33.5158 28.2578
33.7022 27.7254
33.8887 27.4118
34.0753 27.1216
34.262 26.6757
34.4488 26.3602
34.6357 26.0332
34.8227 25.8142
35.0098 25.5716
35.1969 25.2443
35.3842 25.0046
35.5716 24.7294
35.759 24.4551
35.9468 24.1686
36.1345 23.8137
36.3222 23.6786
36.5101 23.3696
36.6981 23.0916
36.8861 22.7587
37.0743 22.4028
37.2626 22.2176
37.451 21.8457
37.6395 21.7328
37.8281 21.385
38.0168 21.0506
38.2056 20.7864
38.3945 20.5298
38.5837 20.2729
38.7728 20.0417
38.9621 19.7741
39.1514 19.5378
39.3409 19.2448
39.5304 19.0662
39.7201 18.8717
39.9099 18.6196
40.0999 18.4139
40.2899 18.0855
40.48 17.837
40.6703 17.6168
40.8607 17.4328
41.0512 17.2067
41.242 16.936
41.4327 16.8017
41.6236 16.5096
41.8146 16.3251
42.0057 16.0284
42.1969 15.8495
42.3882 15.639
42.5797 15.4509
42.7713 15.2949
42.963 15.0736
43.1549 14.8171
43.3468 14.5732
43.5389 14.4253
43.7312 14.1931
43.9237 14.0461
44.1162 13.8617
44.3088 13.6667
44.5016 13.4506
44.6945 13.2952
44.8875 13.0901
45.0806 12.882
45.2739 12.6911
45.4673 12.5245
45.6609 12.3624
45.8546 12.2157
46.0484 12.0043
46.2424 11.8367
46.4365 11.6475
46.631 11.4618
46.8254 11.3062
47.0199 11.1424
47.2146 11.0035
47.4095 10.8303
47.6044 10.6938
47.7996 10.4793
47.9948 10.3439
48.1902 10.2044
48.3858 10.0859
48.5815 9.9264
48.7774 9.80636
48.9734 9.66521
49.1696 9.49749
49.3661 9.35431
49.5626 9.20032
49.7592 9.05564
49.956 8.93229
50.153 8.78538
50.3501 8.63479
50.5474 8.53404
50.7448 8.36513
50.9424 8.22234
51.1402 8.15176
51.3381 8.00323
51.5362 7.83781
51.7344 7.73073
51.9328 7.58337
52.1316 7.46093
52.3304 7.37095
52.5293 7.24842
52.7284 7.11168
52.9276 7.00759
53.1271 6.90054
53.3267 6.79749
53.5265 6.63141
53.7264 6.52638
53.9266 6.44434
54.1269 6.29752
54.3274 6.17503
54.528 6.02858
54.7289 5.84746
54.9301 5.66348
55.1314 5.56174
55.3328 5.28795
55.5344 5.15136
55.7361 4.99598

File: Ni3Fe_FD0269.xy
TT I
1.27165 7.31851
1.45013 6.12451
1.62863 5.6858
1.80712 4.61624
1.98562 4.81425
2.16411 4.68503
2.34263 4.94578
2.52115 5.51702
2.69965 6.5072
2.87818 8.07568
3.05672 11.366
3.23527 15.2379
3.4138 19.4086
3.59237 23.8948
3.77094 26.8546
3.9495 30.2132
4.12809 36.3059
4.30669 185.556
4.4853 63.9042
4.6639 57.8242
4.84253 70.6253
5.02118 93.3285
5.19981 543.476
5.37848 265.232
5.55716 109.395
5.73586 98.5612
5.91455 103.447
6.09328 3687.95
6.27201 89.7965
6.45075 70.9897
6.62952 65.5356
6.8083 61.0207
6.98711 58.0256
7.16591 57.5887
7.34475 87.5211
7.5236 56.6071
7.70247 58.7375
7.88135 60.1763
8.06026 65.1164
8.23919 72.7717
8.41812 89.6362
8.59709 1083.81
8.77609 109.922
8.9551 95.0683
9.13412 85.6593
9.31318 86.9926
9.49226 88.2909
9.67134 101.964
9.85047 105.185
10.0296 434.604
10.2088 588.581
10.388 110.806
10.5672 458.784
10.7465 91.8589
10.9257 81.6023
11.105 74.9816
11.2844 73.033
11.4637 67.5753
11.6431 66.5076
11.8225 65.0916
12.002 66.7067
12.1814 143.398
12.3609 74.7441
12.5405 67.4515
12.72 72.5575
12.8996 74.1571
13.0792 83.0112
13.2589 227.402
13.4386 153.176
13.6183 229.088
13.7981 112.773
13.9779 79.2508
14.1577 75.4917
14.3376 74.1068
14.5175 71.7993
14.6974 73.7655
14.8774 115.6
15.0574 175.557
15.2374 74.0972
15.4175 69.5293
15.5976 68.8695
15.7778 100.672
15.958 175.52
16.1382 65.2864
16.3185 61.04
16.4988 57.7306
16.6792 56.8594
16.8596 57.4846
17.04 58.2342
17.2205 68.5393
17.401 77.2386
17.5815 61.9618
17.7622 63.9934
17.9428 79.765
18.1237 136.204
18.3044 91.0338
18.4852 85.6293
18.666 63.4462
18.8469 60.6262
19.0278 59.4412
19.2088 62.7131
19.3898 77.3646
19.5709 57.0654
19.752 55.6769
19.9332 59.0868
20.1144 71.8677
20.2957 64.6504
20.477 57.3445
20.6586 51.7443
20.84 50.9904
21.0215 50.8776
21.203 52.6049
21.3846 51.3932
21.5662 51.0618
21.7479 55.0082
21.9297 66.3299
22.1115 57.8295
22.2933 52.6891
22.4753 50.9205
22.6572 51.0517
22.8393 53.7284
23.0214 59.878
23.2037 51.0473
23.3859 52.2206
23.5682 57.5705
23.7505 51.4757
23.9329 47.3185
24.1154 46.1035
24.2979 45.223
24.4805 44.8285
24.6631 44.7937
24.8458 44.084
25.0286 44.5624
25.2114 46.257
25.3943 46.4483
25.5773 42.8368
25.7605 42.2303
25.9436 42.629
26.1268 43.3535
26.31 41.9708
26.4933 42.394
26.6767 43.8029
26.8601 42.2476
27.0437 40.7098
27.2272 40.1635
27.4109 40.0522
27.5946 40.0843
27.7784 39.5375
27.9623 39.7339
28.1462 40.4573
28.3304 38.845
28.5145 37.5708
28.6987 37.1937
28.8829 36.8036
29.0673 36.208
29.2517 35.7229
29.4361 35.609
29.6207 34.6544
29.8053 34.2976
29.99 33.9366
30.1748 33.7075
30.3597 33.6536
30.5447 33.5326
30.7297 33.4997
30.915 32.998
31.1002 32.381
31.2855 32.1757
31.4708 32.1217
31.6563 31.7811
31.8418 31.2896
32.0275 31.1864
32.2132 30.6975
32.399 30.1168
32.5848 29.6857
32.7708 29.3499
32.9569 29.2383
33.143 28.907
33.3293 28.6195
33.5158 28.2382
33.7022 27.7387
33.8887 27.4025
34.0753 27.0976
34.262 26.73
34.4488 26.4209
34.6357 26.0757
34.8227 25.8051
35.0098 25.6235
35.1969 25.2764
35.3842 24.9482
35.5716 24.7711
35.759 24.4485
35.9468 24.0901
36.1345 23.8683
36.3222 23.6556
36.5101 23.3693
36.6981 23.0823
36.8861 22.6799
37.0743 22.3983
37.2626 22.1936
37.451 21.8877
37.6395 21.7125
37.8281 21.3873
38.0168 21.0952
38.2056 20.8458
38.3945 20.5686
38.5837 20.2932
38.7728 20.0309
38.9621 19.7785
39.1514 19.4807
39.3409 19.2501
39.5304 18.9999
39.7201 18.82
39.9099 18.6035
40.0999 18.3088
40.2899 18.0953
40.48 17.9068
40.6703 17.5983
40.8607 17.4473
41.0512 17.2323
41.242 17.0397
41.4327 16.774
41.6236 16.4957
41.8146 16.308
42.0057 16.1078
42.1969 15.8717
42.3882 15.6966
42.5797 15.4473
42.7713 15.2463
42.963 15.064
43.1549 14.8263
43.3468 14.6242
43.5389 14.4506
43.7312 14.1854
43.9237 14.0542
44.1162 13.8504
44.3088 13.6313
44.5016 13.482
44.6945 13.2755
44.8875 13.0776
45.0806 12.9035
45.2739 12.7384
45.4673 12.5605
45.6609 12.3284
45.8546 12.2191
46.0484 11.9988
46.2424 11.8426
46.4365 11.6525
46.631 11.4914
46.8254 11.3097
47.0199 11.1517
47.2146 11.0002
47.4095 10.8262
47.6044 10.6572
47.7996 10.4892
47.9948 10.357
48.1902 10.2042
48.3858 10.0427
48.5815 9.88843
48.7774 9.79943
48.9734 9.64261
49.1696 9.4836
49.3661 9.30334
49.5626 9.20831
49.7592 9.01658
49.956 8.91285
50.153 8.80693
50.3501 8.6588
50.5474 8.51123
50.7448 8.3919
50.9424 8.25028
51.1402 8.11032
51.3381 7.98142
51.5362 7.87838
51.7344 7.70477
51.9328 7.57398
52.1316 7.42941
52.3304 7.35274
52.5293 7.22976
52.7284 7.10679
52.9276 7.01536
53.1271 6.91006
53.3267 6.78185
53.5265 6.63691
53.7264 6.54776
53.9266 6.4044
54.1269 6.31524
54.3274 6.2249
54.528 6.00241
54.7289 5.85497
54.9301 5.69852
55.1314 5.55957
55.3328 5.34794
55.5344 5.13061
55.7361 4.95339

File: Ni3Fe_FD0270.xy
TT I
1.27165 8.13433
1.45013 6.61948
1.62863 5.53347
1.80712 5.01503
1.98562 5.16716
2.16411 4.92831
2.34263 4.64053
2.52115 5.32572
2.69965 6.61617
2.87818 8.6992
3.05672 11.3388
3.23527 14.783
3.4138 19.3114
3.59237 24.0897
3.77094 26.8677
3.9495 30.4138
4.12809 35.5473
4.30669 192.688
4.4853 64.8052
4.6639 57.5164
4.84253 70.6036
5.02118 92.8055
5.19981 535.693
5.37848 266.164
5.55716 109.112
5.73586 97.8359
5.91455 102.997
6.09328 3678.81
6.27201 89.8944
6.45075 71.1559
6.62952 65.5111
6.8083 60.9096
6.98711 57.7957
7.16591 57.8959
7.34475 89.0849
7.5236 56.6071
7.70247 58.5888
7.88135 60.0234
8.06026 64.8457
8.23919 72.6373
8.41812 89.3061
8.59709 1075.76
8.77609 109.76
8.9551 95.1402
9.13412 85.5314
9.31318 86.5462
9.49226 88.1294
9.67134 101.715
9.85047 104.731
10.0296 429.725
10.2088 607.787
10.388 110.674
10.5672 457.003
10.7465 91.4848
10.9257 82.2167
11.105 75.1187
11.2844 72.8625
11.4637 67.61
11.6431 66.3722
11.8225 64.9208
12.002 66.5942
12.1814 142.829
12.3609 74.8039
12.5405 67.2962
12.72 72.4348
12.8996 74.1935
13.0792 83.1338
13.2589 225.951
13.4386 153.962
13.6183 227.801
13.7981 114.155
13.9779 79.2707
14.1577 75.6149
14.3376 74.0282
14.5175 71.8841
14.6974 73.5418
14.8774 115.286
15.0574 175.348
15.2374 74.0551
15.4175 69.2232
15.5976 68.7597
15.7778 100.245
15.958 177.191
16.1382 65.4414
16.3185 60.8522
16.4988 57.9047
16.6792 56.8654
16.8596 57.6079
17.04 58.4674
17.2205 68.1883
17.401 77.4604
17.5815 61.7813
17.7622 63.9567
17.9428 79.3618
18.1237 136.227
18.3044 90.8875
18.4852 85.5294
18.666 62.9219
18.8469 60.5157
19.0278 59.2185
19.2088 62.6441
19.3898 77.5747
19.5709 56.922
19.752 55.6377
19.9332 58.832
20.1144 71.5346
20.2957 64.7461
20.477 57.3839
20.6586 51.9288
20.84 50.8843
21.0215 50.8315
21.203 52.4292
21.3846 51.3798
21.5662 50.9375
21.7479 54.7114
21.9297 66.0938
22.1115 57.7447
22.2933 52.4438
22.4753 50.9893
22.6572 51.1209
22.8393 53.7725
23.0214 59.9954
23.2037 51.2486
23.3859 51.9579
23.5682 57.8452
23.7505 51.3644
23.9329 47.1418
24.1154 46.0458
24.2979 45.4333
24.4805 44.7839
24.6631 44.6778
24.8458 44.0736
25.0286 44.573
25.2114 46.3785
25.3943 46.3959
25.5773 42.6838
25.7605 42.1426
25.9436 42.4468
26.1268 43.3526
26.31 41.8324
26.4933 42.2797
26.6767 43.6955
26.8601 42.2446
27.0437 40.6901
27.2272 40.1495
27.4109 39.9387
27.5946 40.0019
27.7784 39.5399
27.9623 39.8468
28.1462 40.4434
28.3304 38.8645
28.5145 37.4544
28.6987 37.0471
28.8829 36.8976
29.0673 36.1518
29.2517 35.7242
29.4361 35.6692
29.6207 34.6516
29.8053 34.331
29.99 33.9156
30.1748 33.7343
30.3597 33.6367
30.5447 33.4821
30.7297 33.4523
30.915 33.0112
31.1002 32.3408
31.2855 32.1223
31.4708 31.9805
31.6563 31.6256
31.8418 31.3452
32.0275 31.1706
32.2132 30.6626
32.399 30.1946
32.5848 29.6902
32.7708 29.3667
32.9569 29.2122
33.143 28.9111
33.3293 28.5404
33.5158 28.1606
33.7022 27.718
33.8887 27.4915
34.0753 27.0372
34.262 26.7193
34.4488 26.4263
34.6357 26.0038
34.8227 25.756
35.0098 25.4795
35.1969 25.1521
35.3842 25.0143
35.5716 24.6761
35.759 24.3857
35.9468 24.0736
36.1345 23.8873
36.3222 23.5849
36.5101 23.3467
36.6981 23.0067
36.8861 22.6956
37.0743 22.3578
37.2626 22.1481
37.451 21.9191
37.6395 21.7112
37.8281 21.3538
38.0168 21.0674
38.2056 20.7231
38.3945 20.5796
38.5837 20.2719
38.7728 20.0317
38.9621 19.7394
39.1514 19.539
39.3409 19.2041
39.5304 18.9935
39.7201 18.8509
39.9099 18.5793
40.0999 18.3058
40.2899 18.0275
40.48 17.8477
40.6703 17.6713
40.8607 17.4597
41.0512 17.1899
41.242 16.9145
41.4327 16.7702
41.6236 16.5108
41.8146 16.2882
42.0057 16.0631
42.1969 15.8555
42.3882 15.639
42.5797 15.426
42.7713 15.2342
42.963 14.992
43.1549 14.8071
43.3468 14.6079
43.5389 14.4158
43.7312 14.1952
43.9237 14.0545
44.1162 13.8281
44.3088 13.6332
44.5016 13.3947
44.6945 13.2495
44.8875 13.0799
45.0806 12.8791
45.2739 12.6804
45.4673 12.5342
45.6609 12.354
45.8546 12.1597
46.0484 12.0027
46.2424 11.8296
46.4365 11.6712
46.631 11.4247
46.8254 11.3347
47.0199 11.1242
47.2146 11.0068
47.4095 10.8301
47.6044 10.6429
47.7996 10.5335
47.9948 10.3524
48.1902 10.1869
48.3858 10.0588
48.5815 9.89622
48.7774 9.80139
48.9734 9.63296
49.1696 9.50661
49.3661 9.33219
49.5626 9.14347
49.7592 9.05181
49.956 8.88737
50.153 8.75822
50.3501 8.64977
50.5474 8.51079
50.7448 8.38229
50.9424 8.23355
51.1402 8.10225
51.3381 7.96158
51.5362 7.87486
51.7344 7.72102
51.9328 7.58886
52.1316 7.47149
52.3304 7.40185
52.5293 7.24182
52.7284 7.14592
52.9276 6.98099
53.1271 6.84926
53.3267 6.79138
53.5265 6.63703
53.7264 6.52828
53.9266 6.42542
54.1269 6.30671
54.3274 6.1841
54.528 6.0549
54.7289 5.84909
54.9301 5.68424
55.1314 5.54467
55.3328 5.35827
55.5344 5.12314
55.7361 4.9777

File: Ni3Fe_FD0271.xy
TT I
1.27165 7.68424
1.45013 6.22831
1.62863 5.97272
1.80712 5.07661
1.98562 4.55684
2.16411 4.76969
2.34263 4.41956
2.52115 5.33037
2.69965 7.01709
2.87818 8.44709
3.05672 11.2918
3.23527 15.2691
3.4138 19.1196
3.59237 24.3776
3.77094 26.8013
3.9495 30.1821
4.12809 35.974
4.30669 198.693
4.4853 64.587
4.6639 57.1163
4.84253 69.9698
5.02118 92.6208
5.19981 530.874
5.37848 266.119
5.55716 109.243
5.73586 97.4887
5.91455 103.181
6.09328 3702.04
6.27201 89.5478
6.45075 70.7038
6.62952 65.3527
6.8083 60.9546
6.98711 57.7726
7.16591 57.3034
7.34475 90.313
7.5236 56.6624
7.70247 58.2321
7.88135 60.4777
8.06026 65.2725
8.23919 72.4128
8.41812 89.45
8.59709 1073.0
8.77609 109.445
8.9551 95.1986
9.13412 85.2591
9.31318 86.5669
9.49226 88.1556
9.67134 101.699
9.85047 104.431
10.0296 426.684
10.2088 596.952
10.388 110.659
10.5672 455.739
10.7465 91.8554
10.9257 81.7987
11.105 74.7512
11.2844 73.0086
11.4637 67.4658
11.6431 66.1447
11.8225 64.9324
12.002 66.6106
12.1814 141.891
12.3609 74.9808
12.5405 67.3132
12.72 72.6628
12.8996 73.7024
13.0792 82.4105
13.2589 224.368
13.4386 153.729
13.6183 227.632
13.7981 114.66
13.9779 79.3563
14.1577 75.5707
14.3376 74.2045
14.5175 71.8014
14.6974 73.5327
14.8774 114.606
15.0574 175.206
15.2374 73.8991
15.4175 69.303
15.5976 68.86
15.7778 99.8574
15.958 176.631
16.1382 65.4889
16.3185 61.0637
16.4988 57.773
16.6792 56.8881
16.8596 57.266
17.04 58.2439
17.2205 68.2934
17.401 77.8223
17.5815 61.7526
17.7622 63.863
17.9428 79.4953
18.1237 136.416
18.3044 90.8994
18.4852 85.9211
18.666 63.0493
18.8469 60.4877
19.0278 59.3814
19.2088 62.4877
19.3898 77.3796
19.5709 57.1311
19.752 55.6854
19.9332 59.0947
20.1144 71.742
20.2957 64.9603
20.477 57.2804
20.6586 51.8716
20.84 50.9014
21.0215 50.8176
21.203 52.538
21.3846 51.3499
21.5662 50.7169
21.7479 54.813
21.9297 66.3575
22.1115 57.8455
22.2933 52.5087
22.4753 50.9434
22.6572 51.1045
22.8393 53.7645
23.0214 59.9321
23.2037 51.1379
23.3859 52.1534
23.5682 57.7674
23.7505 51.616
23.9329 47.1723
24.1154 45.9832
24.2979 45.1998
24.4805 44.5829
24.6631 44.5615
24.8458 44.0707
25.0286 44.5815
25.2114 46.3687
25.3943 46.4542
25.5773 42.6444
25.7605 42.1944
25.9436 42.4497
26.1268 43.324
26.31 41.9108
26.4933 42.3065
26.6767 43.7261
26.8601 42.29
27.0437 40.6376
27.2272 40.218
27.4109 39.9469
27.5946 40.0025
27.7784 39.4034
27.9623 39.7706
28.1462 40.5899
28.3304 38.8253
28.5145 37.5051
28.6987 37.0489
28.8829 36.8566
29.0673 36.2277
29.2517 35.719
29.4361 35.5712
29.6207 34.6351
29.8053 34.3632
29.99 33.9359
30.1748 33.8523
30.3597 33.7192
30.5447 33.4395
30.7297 33.4196
30.915 32.9961
31.1002 32.3759
31.2855 32.1377
31.4708 32.1189
31.6563 31.7323
31.8418 31.433
32.0275 31.145
32.2132 30.7014
32.399 30.1781
32.5848 29.7384
32.7708 29.2446
32.9569 29.2518
33.143 29.0213
33.3293 28.5601
33.5158 28.2392
33.7022 27.7419
33.8887 27.4131
34.0753 27.097
34.262 26.7365
34.4488 26.3769
34.6357 26.0526
34.8227 25.7365
35.0098 25.5753
35.1969 25.2562
35.3842 24.9622
35.5716 24.8554
35.759 24.4902
35.9468 24.128
36.1345 23.8158
36.3222 23.6401
36.5101 23.3898
36.6981 23.0774
36.8861 22.671
37.0743 22.4054
37.2626 22.1874
37.451 21.9443
37.6395 21.6707
37.8281 21.3567
38.0168 21.0751
38.2056 20.8143
38.3945 20.5271
38.5837 20.2273
38.7728 20.0343
38.9621 19.8029
39.1514 19.5104
39.3409 19.286
39.5304 18.9855
39.7201 18.7818
39.9099 18.5986
40.0999 18.3435
40.2899 18.1437
40.48 17.8276
40.6703 17.6889
40.8607 17.4124
41.0512 17.2583
41.242 16.8936
41.4327 16.7473
41.6236 16.5197
41.8146 16.3539
42.0057 16.0499
42.1969 15.8747
42.3882 15.6916
42.5797 15.4209
42.7713 15.2618
42.963 15.016
43.1549 14.8537
43.3468 14.624
43.5389 14.4189
43.7312 14.1886
43.9237 14.0197
44.1162 13.7918
44.3088 13.6528
44.5016 13.4493
44.6945 13.2745
44.8875 13.1208
45.0806 12.8486
45.2739 12.6177
45.4673 12.5418
45.6609 12.3448
45.8546 12.192
46.0484 12.0523
46.2424 11.8123
46.4365 11.6735
46.631 11.4705
46.8254 11.3233
47.0199 11.1367
47.2146 10.9836
47.4095 10.8497
47.6044 10.6576
47.7996 10.4954
47.9948 10.3531
48.1902 10.2078
48.3858 10.072
48.5815 9.91303
48.7774 9.75382
48.9734 9.6391
49.1696 9.50522
49.3661 9.32701
49.5626 9.16101
49.7592 9.07993
49.956 8.95858
50.153 8.79598
50.3501 8.63274
50.5474 8.50163
50.7448 8.35382
50.9424 8.2646
51.1402 8.13407
51.3381 7.99071
51.5362 7.84486
51.7344 7.70228
51.9328 7.62521
52.1316 7.44356
52.3304 7.37242
52.5293 7.18926
52.7284 7.14036
52.9276 7.00131
53.1271 6.89652
53.3267 6.76278
53.5265 6.63043
53.7264 6.52149
53.9266 6.46846
54.1269 6.32974
54.3274 6.17721
54.528 6.04405
54.7289 5.88307
54.9301 5.73953
55.1314 5.52591
55.3328 5.33225
55.5344 5.11781
55.7361 4.98922

File: Ni3Fe_FD0272.xy
TT I
1.27165 7.71762
1.45013 6.13876
1.62863 6.06698
1.80712 4.69845
1.98562 4.40619
2.16411 4.75304
2.34263 4.64826
2.52115 5.54655
2.69965 6.48971
2.87818 8.37319
3.05672 11.032
3.23527 14.9176
3.4138 19.2552
3.59237 24.028
3.77094 26.6482
3.9495 30.4537
4.12809 35.6452
4.30669 201.297
4.4853 65.1961
4.6639 57.7923
4.84253 69.839
5.02118 92.8915
5.19981 529.962
5.37848 266.606
5.55716 109.629
5.73586 97.5114
5.91455 103.27
6.09328 3709.23
6.27201 89.9095
6.45075 70.6784
6.62952 65.3442
6.8083 60.9159
6.98711 58.0214
7.16591 57.7092
7.34475 90.9159
7.5236 56.4929
7.70247 58.1413
7.88135 60.008
8.06026 64.911
8.23919 72.4869
8.41812 89.8224
8.59709 1070.13
8.77609 109.98
8.9551 95.0813
9.13412 86.2188
9.31318 86.8842
9.49226 88.3604
9.67134 101.972
9.85047 105.454
10.0296 426.132
10.2088 595.848
10.388 110.837
10.5672 456.251
10.7465 91.3595
10.9257 81.6618
11.105 74.9643
11.2844 72.9263
11.4637 67.4833
11.6431 66.0
11.8225 65.4289
12.002 66.4955
12.1814 141.718
12.3609 74.8597
12.5405 67.0505
12.72 72.6752
12.8996 73.9509
13.0792 82.4405
13.2589 224.329
13.4386 152.949
13.6183 226.832
13.7981 114.233
13.9779 79.1531
14.1577 75.3842
14.3376 74.2955
14.5175 71.703
14.6974 73.4941
14.8774 114.568
15.0574 174.05
15.2374 74.1506
15.4175 69.2312
15.5976 68.7834
15.7778 99.7809
15.958 175.087
16.1382 65.3405
16.3185 60.9766
16.4988 57.8021
16.6792 56.8176
16.8596 57.6499
17.04 58.1439
17.2205 68.2272
17.401 77.8009
17.5815 61.6455
17.7622 63.881
17.9428 79.2885
18.1237 136.578
18.3044 90.9283
18.4852 85.6599
18.666 63.0563
18.8469 60.5362
19.0278 59.52
19.2088 62.6358
19.3898 77.312
19.5709 56.9458
19.752 55.6776
19.9332 58.9121
20.1144 71.9001
20.2957 64.6634
20.477 57.2028
20.6586 51.7956
20.84 51.0868
21.0215 50.8486
21.203 52.4119
21.3846 51.4292
21.5662 50.9396
21.7479 54.8246
21.9297 66.2029
22.1115 57.9847
22.2933 52.5185
22.4753 51.0399
22.6572 50.9137
22.8393 53.6933
23.0214 59.925
23.2037 51.0812
23.3859 52.192
23.5682 57.5391
23.7505 51.4697
23.9329 47.261
24.1154 46.1327
24.2979 45.4285
24.4805 44.6836
24.6631 44.6267
24.8458 44.0108
25.0286 44.5902
25.2114 46.3188
25.3943 46.3964
25.5773 42.7171
25.7605 42.188
25.9436 42.3718
26.1268 43.3494
26.31 41.9162
26.4933 42.3688
26.6767 43.8163
26.8601 42.2211
27.0437 40.5902
27.2272 40.2533
27.4109 40.052
27.5946 40.0391
27.7784 39.4799
27.9623 39.8308
28.1462 40.4449
28.3304 38.9058
28.5145 37.5422
28.6987 37.0535
28.8829 36.9246
29.0673 36.113
29.2517 35.725
29.4361 35.5338
29.6207 34.5885
29.8053 34.2703
29.99 33.9272
30.1748 33.7463
30.3597 33.6562
30.5447 33.5731
30.7297 33.4748
30.915 32.9684
31.1002 32.4267
31.2855 32.1352
31.4708 32.067
31.6563 31.6626
31.8418 31.3478
32.0275 31.1805
32.2132 30.5935
32.399 30.1536
32.5848 29.6871
32.7708 29.3384
32.9569 29.1772
33.143 28.9344
33.3293 28.5229
33.5158 28.2026
33.7022 27.7746
33.8887 27.45
34.0753 27.0466
34.262 26.7976
34.4488 26.3697
34.6357 26.0335
34.8227 25.6504
35.0098 25.4455
35.1969 25.2469
35.3842 25.0033
35.5716 24.7936
35.759 24.5023
35.9468 24.0251
36.1345 23.7892
36.3222 23.5943
36.5101 23.3831
36.6981 23.0578
36.8861 22.7061
37.0743 22.4362
37.2626 22.1846
37.451 21.8233
37.6395 21.6788
37.8281 21.3863
38.0168 21.054
38.2056 20.8691
38.3945 20.4759
38.5837 20.2758
38.7728 19.9595
38.9621 19.7918
39.1514 19.464
39.3409 19.1626
39.5304 18.9895
39.7201 18.8437
39.9099 18.6097
40.0999 18.3246
40.2899 18.1085
40.48 17.7369
40.6703 17.6541
40.8607 17.4023
41.0512 17.1521
41.242 16.9563
41.4327 16.7477
41.6236 16.4719
41.8146 16.2847
42.0057 16.056
42.1969 15.8319
42.3882 15.67
42.5797 15.4418
42.7713 15.22
42.963 15.005
43.1549 14.896
43.3468 14.6007
43.5389 14.4047
43.7312 14.1961
43.9237 14.0077
44.1162 13.8023
44.3088 13.6021
44.5016 13.4137
44.6945 13.2249
44.8875 13.0558
45.0806 12.8913
45.2739 12.6551
45.4673 12.5588
45.6609 12.3324
45.8546 12.1964
46.0484 11.982
46.2424 11.8237
46.4365 11.648
46.631 11.4654
46.8254 11.2625
47.0199 11.1794
47.2146 10.9812
47.4095 10.8078
47.6044 10.6534
47.7996 10.4966
47.9948 10.3327
48.1902 10.1963
48.3858 10.0577
48.5815 9.8995
48.7774 9.77697
48.9734 9.6237
49.1696 9.4892
49.3661 9.3399
49.5626 9.18726
49.7592 9.04168
49.956 8.90995
50.153 8.7757
50.3501 8.64678
50.5474 8.50911
50.7448 8.36662
50.9424 8.2405
51.1402 8.12599
51.3381 7.96696
51.5362 7.84877
51.7344 7.73387
51.9328 7.6135
52.1316 7.46101
52.3304 7.36891
52.5293 7.18987
52.7284 7.11411
52.9276 6.97589
53.1271 6.87394
53.3267 6.74331
53.5265 6.6336
53.7264 6.53464
53.9266 6.43511
54.1269 6.29579
54.3274 6.17666
54.528 5.97952
54.7289 5.83595
54.9301 5.67192
55.1314 5.56843
55.3328 5.31015
55.5344 5.15853
55.7361 5.01797