Folder: NiFe_MOF_catalyst_paper/XRD (part 83)

File: Ni3Fe_FD0444.xy
TT I
1.27165 7.46657
1.45013 6.30349
1.62863 5.46087
1.80712 5.28084
1.98562 5.2019
2.16411 4.48056
2.34263 4.59515
2.52115 7.09475
2.69965 7.1296
2.87818 9.02682
3.05672 10.8541
3.23527 15.0075
3.4138 19.0251
3.59237 23.6831
3.77094 26.0857
3.9495 30.068
4.12809 34.8033
4.30669 162.243
4.4853 60.8237
4.6639 56.5222
4.84253 68.581
5.02118 89.5875
5.19981 484.041
5.37848 204.181
5.55716 104.905
5.73586 94.3431
5.91455 98.202
6.09328 4346.15
6.27201 84.3727
6.45075 68.1638
6.62952 63.0366
6.8083 58.9092
6.98711 56.5177
7.16591 55.8009
7.34475 81.7994
7.5236 55.4462
7.70247 56.7473
7.88135 58.467
8.06026 63.7168
8.23919 70.6492
8.41812 86.94
8.59709 1235.08
8.77609 101.913
8.9551 90.9989
9.13412 83.0807
9.31318 84.2436
9.49226 86.1771
9.67134 98.12
9.85047 101.793
10.0296 399.481
10.2088 423.827
10.388 107.07
10.5672 502.542
10.7465 88.1699
10.9257 79.2913
11.105 72.6558
11.2844 70.6601
11.4637 66.0977
11.6431 64.5077
11.8225 63.4057
12.002 65.1806
12.1814 154.137
12.3609 70.3047
12.5405 65.3945
12.72 70.1489
12.8996 72.278
13.0792 81.1251
13.2589 247.415
13.4386 126.369
13.6183 250.241
13.7981 98.7224
13.9779 76.8956
14.1577 73.5347
14.3376 72.4164
14.5175 70.1749
14.6974 71.788
14.8774 117.081
15.0574 151.671
15.2374 71.61
15.4175 67.645
15.5976 67.299
15.7778 100.098
15.958 157.309
16.1382 63.3348
16.3185 59.3785
16.4988 56.3368
16.6792 55.4554
16.8596 56.1116
17.04 56.9633
17.2205 68.4162
17.401 72.3632
17.5815 60.2825
17.7622 62.5298
17.9428 77.1244
18.1237 138.763
18.3044 91.7873
18.4852 78.5298
18.666 61.2629
18.8469 58.9554
19.0278 58.0097
19.2088 61.0886
19.3898 77.1533
19.5709 55.1307
19.752 54.1788
19.9332 57.5422
20.1144 70.9234
20.2957 64.4901
20.477 54.3408
20.6586 50.4701
20.84 49.7157
21.0215 49.4883
21.203 51.6203
21.3846 49.7523
21.5662 49.8231
21.7479 53.9399
21.9297 65.4004
22.1115 56.6668
22.2933 50.7646
22.4753 49.5852
22.6572 49.8381
22.8393 53.1504
23.0214 58.0288
23.2037 49.5926
23.3859 50.8507
23.5682 57.3527
23.7505 49.1818
23.9329 45.9386
24.1154 45.0138
24.2979 44.0799
24.4805 43.5748
24.6631 43.4819
24.8458 42.9302
25.0286 43.6676
25.2114 45.4727
25.3943 45.3389
25.5773 41.5297
25.7605 41.0821
25.9436 41.5931
26.1268 42.5088
26.31 40.7459
26.4933 41.5018
26.6767 42.9698
26.8601 41.1344
27.0437 39.5215
27.2272 39.2136
27.4109 39.0195
27.5946 39.0924
27.7784 38.5009
27.9623 39.0846
28.1462 39.4746
28.3304 37.8824
28.5145 36.5573
28.6987 36.2566
28.8829 35.9009
29.0673 35.3963
29.2517 34.8737
29.4361 34.589
29.6207 33.6325
29.8053 33.4463
29.99 33.1441
30.1748 32.9623
30.3597 32.8374
30.5447 32.6668
30.7297 32.6696
30.915 32.1353
31.1002 31.6856
31.2855 31.4356
31.4708 31.25
31.6563 30.8732
31.8418 30.6503
32.0275 30.4507
32.2132 29.9012
32.399 29.4111
32.5848 28.9502
32.7708 28.6239
32.9569 28.5086
33.143 28.2318
33.3293 27.7853
33.5158 27.4837
33.7022 27.0164
33.8887 26.7113
34.0753 26.4283
34.262 26.0773
34.4488 25.7735
34.6357 25.3727
34.8227 25.0702
35.0098 25.0019
35.1969 24.5992
35.3842 24.3664
35.5716 24.2039
35.759 23.8561
35.9468 23.4776
36.1345 23.3004
36.3222 23.0735
36.5101 22.8109
36.6981 22.4926
36.8861 22.1777
37.0743 21.7962
37.2626 21.6049
37.451 21.3518
37.6395 21.1824
37.8281 20.8389
38.0168 20.5511
38.2056 20.2992
38.3945 20.0159
38.5837 19.7691
38.7728 19.495
38.9621 19.2695
39.1514 18.9448
39.3409 18.77
39.5304 18.5748
39.7201 18.3385
39.9099 18.071
40.0999 17.896
40.2899 17.6419
40.48 17.4542
40.6703 17.2082
40.8607 17.0394
41.0512 16.7538
41.242 16.5123
41.4327 16.2974
41.6236 16.0812
41.8146 15.933
42.0057 15.7001
42.1969 15.4698
42.3882 15.3313
42.5797 15.054
42.7713 14.9107
42.963 14.6316
43.1549 14.3936
43.3468 14.2685
43.5389 14.0283
43.7312 13.8343
43.9237 13.6737
44.1162 13.4769
44.3088 13.2904
44.5016 13.1033
44.6945 12.9345
44.8875 12.7597
45.0806 12.5704
45.2739 12.4024
45.4673 12.221
45.6609 12.0885
45.8546 11.8437
46.0484 11.7218
46.2424 11.553
46.4365 11.3722
46.631 11.1979
46.8254 11.0097
47.0199 10.8511
47.2146 10.74
47.4095 10.5428
47.6044 10.3731
47.7996 10.2517
47.9948 10.1061
48.1902 9.96244
48.3858 9.8346
48.5815 9.70901
48.7774 9.54678
48.9734 9.41619
49.1696 9.25213
49.3661 9.10224
49.5626 8.95942
49.7592 8.83729
49.956 8.74031
50.153 8.56464
50.3501 8.41873
50.5474 8.32573
50.7448 8.22724
50.9424 8.06021
51.1402 7.9412
51.3381 7.821
51.5362 7.68693
51.7344 7.56687
51.9328 7.42387
52.1316 7.30368
52.3304 7.20091
52.5293 7.03811
52.7284 6.95488
52.9276 6.85141
53.1271 6.69056
53.3267 6.5673
53.5265 6.50975
53.7264 6.38384
53.9266 6.25521
54.1269 6.15192
54.3274 6.0524
54.528 5.89534
54.7289 5.72765
54.9301 5.56629
55.1314 5.41896
55.3328 5.20844
55.5344 5.05784
55.7361 4.83852

File: Ni3Fe_FD0446.xy
TT I
1.27165 7.53413
1.45013 5.6793
1.62863 4.8708
1.80712 5.10225
1.98562 4.71223
2.16411 4.91407
2.34263 5.24567
2.52115 6.39767
2.69965 7.51662
2.87818 8.552
3.05672 10.6886
3.23527 15.0277
3.4138 19.3004
3.59237 23.7836
3.77094 26.1462
3.9495 29.8588
4.12809 34.8748
4.30669 157.935
4.4853 60.0667
4.6639 56.1894
4.84253 68.5854
5.02118 89.8128
5.19981 490.237
5.37848 203.069
5.55716 104.426
5.73586 94.8329
5.91455 98.7509
6.09328 4327.19
6.27201 84.2739
6.45075 68.5822
6.62952 63.1893
6.8083 59.0615
6.98711 56.6054
7.16591 55.961
7.34475 80.2651
7.5236 55.1005
7.70247 56.8928
7.88135 58.7894
8.06026 63.6794
8.23919 70.7094
8.41812 86.8904
8.59709 1233.71
8.77609 102.002
8.9551 91.3449
9.13412 83.499
9.31318 84.1393
9.49226 85.9626
9.67134 97.6355
9.85047 101.809
10.0296 402.595
10.2088 425.32
10.388 107.527
10.5672 500.524
10.7465 88.0803
10.9257 79.4086
11.105 72.57
11.2844 70.5569
11.4637 65.7152
11.6431 64.8038
11.8225 63.5381
12.002 65.2524
12.1814 154.219
12.3609 69.9049
12.5405 65.4372
12.72 70.4653
12.8996 72.3716
13.0792 81.2757
13.2589 246.906
13.4386 126.544
13.6183 250.107
13.7981 98.7404
13.9779 77.1727
14.1577 73.4487
14.3376 72.1513
14.5175 70.0433
14.6974 71.6495
14.8774 117.297
15.0574 150.534
15.2374 72.0635
15.4175 67.4542
15.5976 67.1232
15.7778 100.625
15.958 156.869
16.1382 63.1869
16.3185 59.2152
16.4988 56.302
16.6792 55.3789
16.8596 55.8755
17.04 57.1685
17.2205 68.2631
17.401 71.9914
17.5815 60.236
17.7622 62.5687
17.9428 76.8938
18.1237 139.289
18.3044 92.0912
18.4852 78.1955
18.666 61.2939
18.8469 58.9534
19.0278 57.875
19.2088 60.8564
19.3898 77.2112
19.5709 55.2548
19.752 54.2748
19.9332 57.7992
20.1144 70.756
20.2957 64.5291
20.477 54.5468
20.6586 50.5689
20.84 49.6067
21.0215 49.5636
21.203 51.5807
21.3846 49.9064
21.5662 49.8505
21.7479 53.8807
21.9297 65.5358
22.1115 56.7827
22.2933 50.7829
22.4753 49.5167
22.6572 50.0786
22.8393 53.1082
23.0214 58.1998
23.2037 49.6785
23.3859 50.6979
23.5682 57.2885
23.7505 49.0743
23.9329 45.9064
24.1154 44.8695
24.2979 44.1655
24.4805 43.5954
24.6631 43.6019
24.8458 43.0399
25.0286 43.5846
25.2114 45.4377
25.3943 45.3494
25.5773 41.7285
25.7605 41.253
25.9436 41.5855
26.1268 42.3052
26.31 40.8388
26.4933 41.5053
26.6767 42.9133
26.8601 41.0726
27.0437 39.6365
27.2272 39.266
27.4109 39.0855
27.5946 39.0466
27.7784 38.6735
27.9623 39.1725
28.1462 39.4474
28.3304 37.7281
28.5145 36.5817
28.6987 36.2323
28.8829 35.8717
29.0673 35.1889
29.2517 34.9348
29.4361 34.7103
29.6207 33.6772
29.8053 33.5168
29.99 33.143
30.1748 32.9181
30.3597 32.8406
30.5447 32.6602
30.7297 32.7359
30.915 32.122
31.1002 31.6159
31.2855 31.5068
31.4708 31.3042
31.6563 30.8892
31.8418 30.6005
32.0275 30.4554
32.2132 29.8581
32.399 29.3735
32.5848 28.9808
32.7708 28.6948
32.9569 28.4782
33.143 28.2344
33.3293 27.8345
33.5158 27.5528
33.7022 27.0175
33.8887 26.7582
34.0753 26.4001
34.262 26.109
34.4488 25.6985
34.6357 25.456
34.8227 25.162
35.0098 24.8093
35.1969 24.5113
35.3842 24.5044
35.5716 24.1766
35.759 23.8117
35.9468 23.5297
36.1345 23.2468
36.3222 22.9966
36.5101 22.7521
36.6981 22.5022
36.8861 22.1361
37.0743 21.8789
37.2626 21.6365
37.451 21.2406
37.6395 21.1378
37.8281 20.802
38.0168 20.5204
38.2056 20.3139
38.3945 20.0018
38.5837 19.7797
38.7728 19.5038
38.9621 19.3056
39.1514 19.0027
39.3409 18.7911
39.5304 18.515
39.7201 18.3497
39.9099 18.2106
40.0999 17.8932
40.2899 17.6108
40.48 17.4095
40.6703 17.2645
40.8607 17.0651
41.0512 16.7543
41.242 16.5155
41.4327 16.3407
41.6236 16.1455
41.8146 15.9205
42.0057 15.6322
42.1969 15.4699
42.3882 15.2999
42.5797 15.0354
42.7713 14.8408
42.963 14.6437
43.1549 14.4278
43.3468 14.2296
43.5389 14.0775
43.7312 13.7856
43.9237 13.6889
44.1162 13.463
44.3088 13.3228
44.5016 13.1019
44.6945 12.8993
44.8875 12.7323
45.0806 12.5738
45.2739 12.3818
45.4673 12.2289
45.6609 12.001
45.8546 11.8502
46.0484 11.7155
46.2424 11.5287
46.4365 11.3682
46.631 11.1828
46.8254 11.0196
47.0199 10.8897
47.2146 10.7338
47.4095 10.5808
47.6044 10.3845
47.7996 10.2781
47.9948 10.0753
48.1902 9.9569
48.3858 9.79329
48.5815 9.67647
48.7774 9.51603
48.9734 9.41401
49.1696 9.24699
49.3661 9.08453
49.5626 8.97827
49.7592 8.84061
49.956 8.73401
50.153 8.55659
50.3501 8.44303
50.5474 8.31956
50.7448 8.19514
50.9424 8.04841
51.1402 7.91515
51.3381 7.77522
51.5362 7.68806
51.7344 7.59466
51.9328 7.41409
52.1316 7.26495
52.3304 7.1992
52.5293 7.07502
52.7284 6.91976
52.9276 6.81616
53.1271 6.71069
53.3267 6.65215
53.5265 6.46718
53.7264 6.35471
53.9266 6.24109
54.1269 6.13046
54.3274 6.02523
54.528 5.85783
54.7289 5.70505
54.9301 5.57853
55.1314 5.42524
55.3328 5.18189
55.5344 5.05613
55.7361 4.88266

File: Ni3Fe_FD0448.xy
TT I
1.27165 7.46509
1.45013 6.12523
1.62863 5.57801
1.80712 5.00478
1.98562 4.4916
2.16411 5.12113
2.34263 4.82939
2.52115 5.4222
2.69965 6.65937
2.87818 8.46081
3.05672 11.2881
3.23527 14.7788
3.4138 18.9358
3.59237 23.6137
3.77094 25.8942
3.9495 30.0004
4.12809 34.8161
4.30669 152.52
4.4853 59.4446
4.6639 56.5694
4.84253 68.7376
5.02118 89.7471
5.19981 496.416
5.37848 202.364
5.55716 104.715
5.73586 94.3014
5.91455 98.6236
6.09328 4314.68
6.27201 84.418
6.45075 68.4607
6.62952 63.29
6.8083 58.868
6.98711 56.591
7.16591 55.8609
7.34475 79.0689
7.5236 55.1046
7.70247 56.9918
7.88135 58.6662
8.06026 63.2574
8.23919 70.5398
8.41812 87.3586
8.59709 1238.53
8.77609 102.043
8.9551 90.938
9.13412 83.5295
9.31318 84.361
9.49226 86.1287
9.67134 97.5074
9.85047 102.353
10.0296 403.662
10.2088 417.758
10.388 107.389
10.5672 502.703
10.7465 88.1207
10.9257 79.3106
11.105 72.8686
11.2844 70.5385
11.4637 65.8665
11.6431 64.7515
11.8225 63.3713
12.002 65.2083
12.1814 155.285
12.3609 70.0229
12.5405 65.4979
12.72 70.1057
12.8996 72.309
13.0792 81.2469
13.2589 248.077
13.4386 125.819
13.6183 251.077
13.7981 98.1872
13.9779 77.1175
14.1577 73.4951
14.3376 72.1517
14.5175 70.1652
14.6974 71.7368
14.8774 117.362
15.0574 149.896
15.2374 71.4802
15.4175 67.3374
15.5976 67.1982
15.7778 100.765
15.958 156.582
16.1382 63.1138
16.3185 59.3075
16.4988 56.4259
16.6792 55.4746
16.8596 55.913
17.04 56.9814
17.2205 68.5366
17.401 71.9014
17.5815 60.2411
17.7622 62.3681
17.9428 76.9993
18.1237 138.835
18.3044 91.9272
18.4852 78.031
18.666 61.5147
18.8469 59.1197
19.0278 57.965
19.2088 61.0952
19.3898 77.1036
19.5709 54.9858
19.752 54.338
19.9332 57.6314
20.1144 70.8531
20.2957 64.531
20.477 54.2963
20.6586 50.4859
20.84 49.6095
21.0215 49.4486
21.203 51.632
21.3846 49.8684
21.5662 49.861
21.7479 54.0231
21.9297 65.2313
22.1115 56.5726
22.2933 50.7273
22.4753 49.5504
22.6572 49.8313
22.8393 53.1185
23.0214 58.0768
23.2037 49.7981
23.3859 50.6927
23.5682 57.4409
23.7505 49.1043
23.9329 46.0284
24.1154 44.9613
24.2979 44.2121
24.4805 43.5993
24.6631 43.5367
24.8458 43.1559
25.0286 43.5856
25.2114 45.513
25.3943 45.2569
25.5773 41.5997
25.7605 41.1636
25.9436 41.4977
26.1268 42.4065
26.31 40.8775
26.4933 41.5109
26.6767 42.8168
26.8601 41.0705
27.0437 39.4492
27.2272 39.2101
27.4109 39.0723
27.5946 38.921
27.7784 38.5451
27.9623 39.0781
28.1462 39.4781
28.3304 37.7353
28.5145 36.541
28.6987 36.2473
28.8829 35.9882
29.0673 35.2958
29.2517 34.9439
29.4361 34.6489
29.6207 33.6729
29.8053 33.5067
29.99 33.3511
30.1748 33.0038
30.3597 32.8121
30.5447 32.6344
30.7297 32.7097
30.915 32.2109
31.1002 31.6141
31.2855 31.5283
31.4708 31.3275
31.6563 30.8451
31.8418 30.617
32.0275 30.4289
32.2132 29.9246
32.399 29.4407
32.5848 28.9166
32.7708 28.5926
32.9569 28.4272
33.143 28.2692
33.3293 27.8959
33.5158 27.5322
33.7022 27.0803
33.8887 26.6832
34.0753 26.4918
34.262 26.0791
34.4488 25.631
34.6357 25.3468
34.8227 25.168
35.0098 24.8958
35.1969 24.5777
35.3842 24.3347
35.5716 24.149
35.759 23.8732
35.9468 23.5506
36.1345 23.2727
36.3222 23.0001
36.5101 22.7874
36.6981 22.516
36.8861 22.1321
37.0743 21.8358
37.2626 21.633
37.451 21.3713
37.6395 21.1769
37.8281 20.7865
38.0168 20.4962
38.2056 20.2755
38.3945 19.9959
38.5837 19.7429
38.7728 19.5278
38.9621 19.2458
39.1514 19.0327
39.3409 18.7473
39.5304 18.499
39.7201 18.3553
39.9099 18.1016
40.0999 17.8644
40.2899 17.681
40.48 17.4334
40.6703 17.2118
40.8607 17.0088
41.0512 16.7834
41.242 16.5111
41.4327 16.3583
41.6236 16.0881
41.8146 15.8857
42.0057 15.6485
42.1969 15.463
42.3882 15.3188
42.5797 15.1413
42.7713 14.8284
42.963 14.6309
43.1549 14.4412
43.3468 14.2445
43.5389 14.0686
43.7312 13.8366
43.9237 13.6824
44.1162 13.51
44.3088 13.306
44.5016 13.089
44.6945 12.912
44.8875 12.7106
45.0806 12.538
45.2739 12.4476
45.4673 12.2231
45.6609 12.0366
45.8546 11.8711
46.0484 11.7141
46.2424 11.5331
46.4365 11.3441
46.631 11.1883
46.8254 10.9921
47.0199 10.8603
47.2146 10.6998
47.4095 10.5403
47.6044 10.3874
47.7996 10.2301
47.9948 10.0834
48.1902 9.90435
48.3858 9.8044
48.5815 9.6927
48.7774 9.53203
48.9734 9.40838
49.1696 9.27573
49.3661 9.06822
49.5626 8.9543
49.7592 8.82755
49.956 8.66251
50.153 8.55211
50.3501 8.45396
50.5474 8.31856
50.7448 8.19738
50.9424 8.08563
51.1402 7.95655
51.3381 7.80251
51.5362 7.67192
51.7344 7.56477
51.9328 7.42563
52.1316 7.2848
52.3304 7.18717
52.5293 7.03757
52.7284 6.9282
52.9276 6.82238
53.1271 6.76044
53.3267 6.59231
53.5265 6.51781
53.7264 6.31208
53.9266 6.27477
54.1269 6.12942
54.3274 6.02032
54.528 5.92357
54.7289 5.765
54.9301 5.56167
55.1314 5.44616
55.3328 5.23674
55.5344 5.06985
55.7361 4.90303

File: Ni3Fe_FD0449.xy
TT I
1.27165 7.37017
1.45013 6.59882
1.62863 5.39817
1.80712 4.79208
1.98562 4.37208
2.16411 5.23585
2.34263 4.7994
2.52115 6.86735
2.69965 7.3553
2.87818 8.51254
3.05672 11.4928
3.23527 15.0968
3.4138 19.4301
3.59237 23.3293
3.77094 26.4072
3.9495 29.9999
4.12809 34.8751
4.30669 149.66
4.4853 59.7761
4.6639 56.324
4.84253 68.9222
5.02118 89.9142
5.19981 500.577
5.37848 201.944
5.55716 104.908
5.73586 95.0062
5.91455 98.526
6.09328 4333.38
6.27201 84.2302
6.45075 68.8831
6.62952 63.3603
6.8083 59.3668
6.98711 56.4944
7.16591 55.9206
7.34475 78.4291
7.5236 55.3982
7.70247 57.0026
7.88135 58.5437
8.06026 63.4392
8.23919 70.9
8.41812 87.4061
8.59709 1240.21
8.77609 102.223
8.9551 90.9704
9.13412 83.8924
9.31318 84.5889
9.49226 86.3968
9.67134 97.7022
9.85047 102.225
10.0296 404.927
10.2088 413.982
10.388 107.608
10.5672 504.016
10.7465 88.3507
10.9257 78.9626
11.105 73.1503
11.2844 70.9757
11.4637 65.7769
11.6431 64.5767
11.8225 63.549
12.002 65.5165
12.1814 156.52
12.3609 69.702
12.5405 65.5766
12.72 70.0711
12.8996 72.4922
13.0792 81.8338
13.2589 249.496
13.4386 125.33
13.6183 252.179
13.7981 98.0175
13.9779 77.2985
14.1577 73.4555
14.3376 72.3406
14.5175 70.3837
14.6974 71.9421
14.8774 117.623
15.0574 149.589
15.2374 71.5962
15.4175 67.7668
15.5976 67.2645
15.7778 100.967
15.958 155.843
16.1382 63.1392
16.3185 59.4566
16.4988 56.1595
16.6792 55.4698
16.8596 56.2702
17.04 57.1176
17.2205 68.4358
17.401 71.7516
17.5815 60.3835
17.7622 62.5705
17.9428 77.006
18.1237 138.687
18.3044 91.7259
18.4852 77.867
18.666 61.4453
18.8469 59.0317
19.0278 57.8517
19.2088 61.055
19.3898 76.8343
19.5709 55.1273
19.752 54.2322
19.9332 57.6739
20.1144 70.5972
20.2957 64.3824
20.477 54.2599
20.6586 50.5647
20.84 49.8325
21.0215 49.6553
21.203 51.5341
21.3846 49.8519
21.5662 49.9426
21.7479 53.9782
21.9297 65.338
22.1115 56.6364
22.2933 50.668
22.4753 49.7483
22.6572 49.8739
22.8393 53.1194
23.0214 58.0543
23.2037 49.632
23.3859 50.7435
23.5682 57.4486
23.7505 48.9626
23.9329 45.9816
24.1154 44.8999
24.2979 44.2372
24.4805 43.7424
24.6631 43.6076
24.8458 43.0342
25.0286 43.7079
25.2114 45.4694
25.3943 45.2069
25.5773 41.5577
25.7605 41.1824
25.9436 41.6251
26.1268 42.424
26.31 40.7565
26.4933 41.419
26.6767 42.8193
26.8601 41.0258
27.0437 39.5583
27.2272 39.2597
27.4109 39.0514
27.5946 39.0016
27.7784 38.4478
27.9623 39.0718
28.1462 39.3299
28.3304 37.7919
28.5145 36.6252
28.6987 36.1648
28.8829 36.0053
29.0673 35.2639
29.2517 34.9497
29.4361 34.7024
29.6207 33.7317
29.8053 33.4443
29.99 33.1716
30.1748 33.0427
30.3597 32.6978
30.5447 32.7461
30.7297 32.7168
30.915 32.1141
31.1002 31.6605
31.2855 31.4443
31.4708 31.2986
31.6563 30.8282
31.8418 30.7318
32.0275 30.4373
32.2132 29.8869
32.399 29.3582
32.5848 28.8536
32.7708 28.654
32.9569 28.4403
33.143 28.329
33.3293 27.8453
33.5158 27.5105
33.7022 27.053
33.8887 26.7738
34.0753 26.4312
34.262 26.067
34.4488 25.7669
34.6357 25.3725
34.8227 25.0912
35.0098 24.9205
35.1969 24.5827
35.3842 24.3765
35.5716 24.0983
35.759 23.826
35.9468 23.4658
36.1345 23.2356
36.3222 23.0364
36.5101 22.8751
36.6981 22.4675
36.8861 22.1157
37.0743 21.846
37.2626 21.6336
37.451 21.3467
37.6395 21.2248
37.8281 20.8431
38.0168 20.4862
38.2056 20.2671
38.3945 20.0121
38.5837 19.7297
38.7728 19.5602
38.9621 19.2311
39.1514 19.0359
39.3409 18.7477
39.5304 18.5776
39.7201 18.3388
39.9099 18.1129
40.0999 17.8838
40.2899 17.6065
40.48 17.3746
40.6703 17.1545
40.8607 17.0343
41.0512 16.7916
41.242 16.5945
41.4327 16.3278
41.6236 16.0925
41.8146 15.9469
42.0057 15.6871
42.1969 15.431
42.3882 15.2853
42.5797 15.0394
42.7713 14.9388
42.963 14.6058
43.1549 14.4777
43.3468 14.205
43.5389 14.0432
43.7312 13.8118
43.9237 13.5972
44.1162 13.464
44.3088 13.2843
44.5016 13.0768
44.6945 12.9316
44.8875 12.7372
45.0806 12.5449
45.2739 12.4079
45.4673 12.2448
45.6609 12.0747
45.8546 11.8872
46.0484 11.6916
46.2424 11.5483
46.4365 11.4394
46.631 11.2102
46.8254 11.0217
47.0199 10.8926
47.2146 10.6853
47.4095 10.5294
47.6044 10.3894
47.7996 10.2611
47.9948 10.0791
48.1902 9.98016
48.3858 9.81087
48.5815 9.6793
48.7774 9.56457
48.9734 9.39127
49.1696 9.25281
49.3661 9.12107
49.5626 8.94922
49.7592 8.84124
49.956 8.70971
50.153 8.59527
50.3501 8.4186
50.5474 8.2956
50.7448 8.18414
50.9424 8.04206
51.1402 7.89294
51.3381 7.79056
51.5362 7.68764
51.7344 7.49392
51.9328 7.4065
52.1316 7.30999
52.3304 7.19785
52.5293 7.03177
52.7284 6.97502
52.9276 6.81223
53.1271 6.73771
53.3267 6.62049
53.5265 6.50272
53.7264 6.34994
53.9266 6.26247
54.1269 6.15108
54.3274 6.06464
54.528 5.89325
54.7289 5.72477
54.9301 5.53153
55.1314 5.46342
55.3328 5.24068
55.5344 5.05175
55.7361 4.86705

File: Ni3Fe_FD0450.xy
TT I
1.27165 7.53096
1.45013 6.58843
1.62863 4.78558
1.80712 5.08271
1.98562 4.66447
2.16411 4.8583
2.34263 5.44211
2.52115 6.49077
2.69965 8.3279
2.87818 8.10381
3.05672 11.5744
3.23527 14.9934
3.4138 19.042
3.59237 23.7391
3.77094 26.3868
3.9495 30.1892
4.12809 35.0579
4.30669 147.313
4.4853 59.0462
4.6639 56.6581
4.84253 68.9339
5.02118 90.4148
5.19981 502.629
5.37848 203.636
5.55716 104.732
5.73586 94.776
5.91455 99.0885
6.09328 4307.39
6.27201 84.5972
6.45075 68.7709
6.62952 63.5001
6.8083 59.1887
6.98711 56.6858
7.16591 56.0
7.34475 78.0387
7.5236 55.5296
7.70247 57.2438
7.88135 58.6053
8.06026 63.6959
8.23919 70.8784
8.41812 87.1238
8.59709 1241.98
8.77609 101.95
8.9551 90.9151
9.13412 83.7431
9.31318 84.6397
9.49226 86.492
9.67134 97.7448
9.85047 102.25
10.0296 406.054
10.2088 413.863
10.388 107.869
10.5672 504.929
10.7465 88.601
10.9257 79.2133
11.105 72.9233
11.2844 70.5481
11.4637 66.0549
11.6431 64.7585
11.8225 63.5993
12.002 65.172
12.1814 156.036
12.3609 69.8062
12.5405 65.49
12.72 69.8255
12.8996 72.1553
13.0792 81.6564
13.2589 249.749
13.4386 125.251
13.6183 251.678
13.7981 98.3551
13.9779 77.3318
14.1577 73.5055
14.3376 72.354
14.5175 70.377
14.6974 72.0834
14.8774 117.638
15.0574 149.321
15.2374 71.6368
15.4175 67.713
15.5976 67.5181
15.7778 100.993
15.958 155.768
16.1382 63.1679
16.3185 59.1673
16.4988 56.4575
16.6792 55.4321
16.8596 56.0531
17.04 57.1525
17.2205 68.6313
17.401 71.7263
17.5815 60.2537
17.7622 62.4709
17.9428 77.0136
18.1237 138.412
18.3044 91.9818
18.4852 77.791
18.666 61.4306
18.8469 58.9603
19.0278 57.8225
19.2088 60.9542
19.3898 77.0388
19.5709 55.1071
19.752 54.4162
19.9332 57.7451
20.1144 70.7723
20.2957 64.318
20.477 54.3491
20.6586 50.4427
20.84 49.6146
21.0215 49.5994
21.203 51.43
21.3846 49.8732
21.5662 49.8305
21.7479 53.8989
21.9297 65.4068
22.1115 56.6461
22.2933 50.6097
22.4753 49.684
22.6572 49.9528
22.8393 53.181
23.0214 58.1628
23.2037 49.7035
23.3859 50.9778
23.5682 57.3478
23.7505 48.9139
23.9329 46.0848
24.1154 44.9046
24.2979 44.2533
24.4805 43.6731
24.6631 43.6127
24.8458 42.9989
25.0286 43.8468
25.2114 45.483
25.3943 45.2978
25.5773 41.614
25.7605 41.1629
25.9436 41.5369
26.1268 42.42
26.31 40.7499
26.4933 41.4658
26.6767 42.794
26.8601 41.0367
27.0437 39.508
27.2272 39.2395
27.4109 39.0547
27.5946 39.104
27.7784 38.6393
27.9623 38.9735
28.1462 39.4285
28.3304 37.7926
28.5145 36.6099
28.6987 36.1368
28.8829 35.9479
29.0673 35.2906
29.2517 34.9138
29.4361 34.7556
29.6207 33.4803
29.8053 33.446
29.99 33.1354
30.1748 33.1072
30.3597 32.8681
30.5447 32.6776
30.7297 32.6472
30.915 32.1558
31.1002 31.5907
31.2855 31.3678
31.4708 31.4112
31.6563 30.8459
31.8418 30.6208
32.0275 30.3821
32.2132 29.8812
32.399 29.4029
32.5848 28.8939
32.7708 28.6653
32.9569 28.4734
33.143 28.248
33.3293 27.8648
33.5158 27.6132
33.7022 27.0062
33.8887 26.7537
34.0753 26.4884
34.262 26.105
34.4488 25.6128
34.6357 25.3045
34.8227 25.1067
35.0098 24.831
35.1969 24.6217
35.3842 24.3568
35.5716 24.1832
35.759 23.87
35.9468 23.5187
36.1345 23.2274
36.3222 22.9187
36.5101 22.7981
36.6981 22.5061
36.8861 22.1149
37.0743 21.8684
37.2626 21.5977
37.451 21.3569
37.6395 21.1151
37.8281 20.8389
38.0168 20.5714
38.2056 20.2628
38.3945 20.0853
38.5837 19.7759
38.7728 19.515
38.9621 19.2284
39.1514 18.9981
39.3409 18.7585
39.5304 18.5702
39.7201 18.3422
39.9099 18.0925
40.0999 17.8811
40.2899 17.7078
40.48 17.3851
40.6703 17.1282
40.8607 17.0076
41.0512 16.7954
41.242 16.5503
41.4327 16.3257
41.6236 16.034
41.8146 15.8866
42.0057 15.6795
42.1969 15.4913
42.3882 15.2646
42.5797 15.0702
42.7713 14.876
42.963 14.5918
43.1549 14.4384
43.3468 14.2283
43.5389 14.0558
43.7312 13.8878
43.9237 13.649
44.1162 13.4163
44.3088 13.2863
44.5016 13.1255
44.6945 12.9041
44.8875 12.711
45.0806 12.5097
45.2739 12.373
45.4673 12.1982
45.6609 12.0041
45.8546 11.8632
46.0484 11.6994
46.2424 11.5247
46.4365 11.4102
46.631 11.1859
46.8254 11.0216
47.0199 10.8437
47.2146 10.724
47.4095 10.5663
47.6044 10.381
47.7996 10.2069
47.9948 10.0771
48.1902 9.96953
48.3858 9.79156
48.5815 9.65476
48.7774 9.53464
48.9734 9.41187
49.1696 9.26618
49.3661 9.10138
49.5626 8.9119
49.7592 8.86114
49.956 8.71159
50.153 8.57103
50.3501 8.41749
50.5474 8.29928
50.7448 8.18338
50.9424 8.06556
51.1402 7.90728
51.3381 7.81076
51.5362 7.70445
51.7344 7.57887
51.9328 7.43357
52.1316 7.28254
52.3304 7.19698
52.5293 7.06164
52.7284 6.9726
52.9276 6.85258
53.1271 6.68778
53.3267 6.56928
53.5265 6.48735
53.7264 6.36509
53.9266 6.28668
54.1269 6.10732
54.3274 6.01968
54.528 5.87413
54.7289 5.71576
54.9301 5.57806
55.1314 5.45466
55.3328 5.23843
55.5344 5.08034
55.7361 4.90674