Folder: NiFe_MOF_catalyst_paper/XRD (part 198)

File: Ni3Fe_FD1069.xy
TT I
1.27165 7.11312
1.45013 5.99492
1.62863 4.87913
1.80712 3.87509
1.98562 4.24953
2.16411 3.6914
2.34263 5.01647
2.52115 7.77094
2.69965 8.27204
2.87818 9.25452
3.05672 11.0023
3.23527 14.9081
3.4138 18.0955
3.59237 21.0389
3.77094 24.374
3.9495 28.3058
4.12809 32.2244
4.30669 56.6831
4.4853 46.2896
4.6639 52.976
4.84253 64.4854
5.02118 83.2902
5.19981 230.241
5.37848 207.675
5.55716 97.6791
5.73586 88.2508
5.91455 89.0657
6.09328 4542.01
6.27201 75.6527
6.45075 63.5427
6.62952 58.089
6.8083 54.4792
6.98711 52.4297
7.16591 51.7521
7.34475 56.0432
7.5236 58.3396
7.70247 53.2217
7.88135 54.9975
8.06026 58.7484
8.23919 65.6945
8.41812 78.0277
8.59709 1107.94
8.77609 94.9887
8.9551 82.2801
9.13412 78.9507
9.31318 88.4786
9.49226 80.8667
9.67134 86.4915
9.85047 94.5673
10.0296 349.268
10.2088 449.041
10.388 97.8308
10.5672 512.808
10.7465 86.0628
10.9257 73.7658
11.105 68.4126
11.2844 64.9938
11.4637 61.9245
11.6431 60.6372
11.8225 59.8695
12.002 66.0955
12.1814 147.234
12.3609 64.8263
12.5405 61.6457
12.72 64.0452
12.8996 68.0844
13.0792 76.8062
13.2589 230.664
13.4386 126.553
13.6183 237.052
13.7981 100.238
13.9779 73.4511
14.1577 74.7542
14.3376 67.3691
14.5175 66.5512
14.6974 67.8376
14.8774 110.271
15.0574 159.551
15.2374 66.8819
15.4175 64.1353
15.5976 63.3988
15.7778 95.0555
15.958 169.842
16.1382 59.9597
16.3185 55.9583
16.4988 53.6622
16.6792 52.6394
16.8596 52.9683
17.04 53.9267
17.2205 65.1052
17.401 72.4271
17.5815 57.2487
17.7622 59.948
17.9428 73.6808
18.1237 142.706
18.3044 89.4731
18.4852 78.7912
18.666 58.961
18.8469 56.622
19.0278 55.2492
19.2088 58.298
19.3898 76.2763
19.5709 53.1586
19.752 51.7883
19.9332 55.2345
20.1144 70.567
20.2957 63.6958
20.477 53.016
20.6586 48.4814
20.84 48.0791
21.0215 47.3066
21.203 49.7125
21.3846 48.0686
21.5662 47.7293
21.7479 51.858
21.9297 65.4073
22.1115 55.86
22.2933 49.0336
22.4753 47.5105
22.6572 47.7073
22.8393 51.3818
23.0214 57.4648
23.2037 47.8621
23.3859 49.4423
23.5682 57.3031
23.7505 48.3243
23.9329 44.2963
24.1154 43.266
24.2979 42.492
24.4805 42.1479
24.6631 42.0084
24.8458 41.4088
25.0286 42.0552
25.2114 44.2564
25.3943 44.583
25.5773 40.2418
25.7605 39.7064
25.9436 40.0219
26.1268 41.4639
26.31 39.4744
26.4933 40.1894
26.6767 42.0623
26.8601 40.2151
27.0437 38.4203
27.2272 37.9699
27.4109 37.8917
27.5946 37.9488
27.7784 37.3162
27.9623 38.084
28.1462 38.793
28.3304 36.824
28.5145 35.463
28.6987 35.1696
28.8829 34.9385
29.0673 34.2092
29.2517 33.7477
29.4361 33.8204
29.6207 32.6339
29.8053 32.2769
29.99 32.0578
30.1748 32.0059
30.3597 31.7894
30.5447 31.7368
30.7297 31.8841
30.915 31.3246
31.1002 30.7756
31.2855 30.5163
31.4708 30.3831
31.6563 29.9876
31.8418 29.7514
32.0275 29.5668
32.2132 29.0528
32.399 28.4951
32.5848 28.1165
32.7708 27.7436
32.9569 27.6242
33.143 27.4859
33.3293 27.1279
33.5158 26.7033
33.7022 26.2799
33.8887 25.9807
34.0753 25.6581
34.262 25.2788
34.4488 24.9829
34.6357 24.6175
34.8227 24.3526
35.0098 24.1393
35.1969 23.9307
35.3842 23.7268
35.5716 23.4941
35.759 23.2198
35.9468 22.7937
36.1345 22.6399
36.3222 22.4528
36.5101 22.1909
36.6981 21.982
36.8861 21.5826
37.0743 21.1759
37.2626 21.0204
37.451 20.6592
37.6395 20.5917
37.8281 20.2099
38.0168 19.9618
38.2056 19.7007
38.3945 19.451
38.5837 19.2059
38.7728 18.9254
38.9621 18.6793
39.1514 18.4712
39.3409 18.248
39.5304 18.0378
39.7201 17.8535
39.9099 17.6698
40.0999 17.3642
40.2899 17.1598
40.48 16.8981
40.6703 16.6669
40.8607 16.5467
41.0512 16.317
41.242 16.0477
41.4327 15.9067
41.6236 15.5748
41.8146 15.5263
42.0057 15.2265
42.1969 15.0147
42.3882 14.8203
42.5797 14.6464
42.7713 14.456
42.963 14.2098
43.1549 14.0274
43.3468 13.8041
43.5389 13.6687
43.7312 13.4392
43.9237 13.2604
44.1162 13.1068
44.3088 12.9399
44.5016 12.7162
44.6945 12.5896
44.8875 12.4387
45.0806 12.187
45.2739 12.0314
45.4673 11.9088
45.6609 11.6896
45.8546 11.5629
46.0484 11.344
46.2424 11.1823
46.4365 11.0442
46.631 10.9146
46.8254 10.6927
47.0199 10.5193
47.2146 10.3896
47.4095 10.2425
47.6044 10.1045
47.7996 9.97842
47.9948 9.80754
48.1902 9.64092
48.3858 9.52086
48.5815 9.4063
48.7774 9.24615
48.9734 9.1191
49.1696 8.96517
49.3661 8.83615
49.5626 8.65661
49.7592 8.57351
49.956 8.47168
50.153 8.32664
50.3501 8.20215
50.5474 8.08767
50.7448 7.99797
50.9424 7.8294
51.1402 7.70346
51.3381 7.54073
51.5362 7.4479
51.7344 7.31323
51.9328 7.24286
52.1316 7.08538
52.3304 6.99051
52.5293 6.85344
52.7284 6.73082
52.9276 6.61003
53.1271 6.5393
53.3267 6.43956
53.5265 6.309
53.7264 6.18534
53.9266 6.09401
54.1269 5.97172
54.3274 5.86812
54.528 5.78389
54.7289 5.55508
54.9301 5.38078
55.1314 5.3318
55.3328 5.09497
55.5344 4.91791
55.7361 4.76635

File: Ni3Fe_FD1070.xy
TT I
1.27165 7.0837
1.45013 5.45225
1.62863 4.80891
1.80712 4.37842
1.98562 4.61584
2.16411 4.19133
2.34263 4.53317
2.52115 7.32952
2.69965 8.22893
2.87818 8.73134
3.05672 10.9606
3.23527 14.5179
3.4138 18.2598
3.59237 21.3347
3.77094 24.606
3.9495 28.4027
4.12809 32.3404
4.30669 56.398
4.4853 46.0568
4.6639 52.8229
4.84253 64.7757
5.02118 83.2555
5.19981 230.383
5.37848 207.176
5.55716 97.7641
5.73586 87.844
5.91455 88.9861
6.09328 4514.52
6.27201 76.055
6.45075 63.5155
6.62952 57.8939
6.8083 54.6078
6.98711 52.398
7.16591 51.8736
7.34475 55.8395
7.5236 58.2668
7.70247 53.342
7.88135 54.6515
8.06026 59.0481
8.23919 65.9557
8.41812 77.5743
8.59709 1108.26
8.77609 94.5675
8.9551 82.7674
9.13412 78.9328
9.31318 88.5199
9.49226 81.2407
9.67134 86.4876
9.85047 94.1122
10.0296 349.694
10.2088 447.747
10.388 98.1473
10.5672 512.935
10.7465 86.0452
10.9257 73.6337
11.105 68.2701
11.2844 64.7803
11.4637 62.1851
11.6431 60.493
11.8225 59.825
12.002 66.0365
12.1814 147.501
12.3609 64.8303
12.5405 61.6841
12.72 64.3454
12.8996 67.9274
13.0792 76.8702
13.2589 230.241
13.4386 126.673
13.6183 237.265
13.7981 100.432
13.9779 73.3783
14.1577 74.8326
14.3376 67.4319
14.5175 66.521
14.6974 67.7284
14.8774 110.564
15.0574 159.234
15.2374 66.7604
15.4175 64.2147
15.5976 63.5956
15.7778 95.412
15.958 169.649
16.1382 59.9423
16.3185 55.765
16.4988 53.6094
16.6792 52.5709
16.8596 52.8852
17.04 53.9396
17.2205 65.0872
17.401 72.419
17.5815 57.431
17.7622 59.9135
17.9428 73.672
18.1237 142.654
18.3044 89.1578
18.4852 79.0877
18.666 59.082
18.8469 56.5608
19.0278 55.1817
19.2088 58.2342
19.3898 76.3894
19.5709 53.1412
19.752 51.9548
19.9332 55.1217
20.1144 70.3815
20.2957 63.6886
20.477 53.0338
20.6586 48.5743
20.84 48.0541
21.0215 47.5595
21.203 49.692
21.3846 48.2073
21.5662 47.7227
21.7479 52.0481
21.9297 65.5233
22.1115 56.0151
22.2933 49.2531
22.4753 47.6737
22.6572 47.6461
22.8393 51.2917
23.0214 57.6243
23.2037 48.0805
23.3859 49.529
23.5682 57.2448
23.7505 48.4231
23.9329 44.434
24.1154 43.3231
24.2979 42.5737
24.4805 42.0576
24.6631 42.1001
24.8458 41.2999
25.0286 42.1287
25.2114 44.2247
25.3943 44.4824
25.5773 40.4132
25.7605 39.7466
25.9436 40.0931
26.1268 41.403
26.31 39.5532
26.4933 40.1677
26.6767 42.1022
26.8601 40.2712
27.0437 38.3509
27.2272 38.0098
27.4109 37.8853
27.5946 37.9908
27.7784 37.3681
27.9623 38.1023
28.1462 38.8214
28.3304 36.8232
28.5145 35.3955
28.6987 35.0648
28.8829 34.9314
29.0673 34.244
29.2517 33.7863
29.4361 33.7763
29.6207 32.7114
29.8053 32.3693
29.99 32.1193
30.1748 31.9824
30.3597 31.8323
30.5447 31.7524
30.7297 31.902
30.915 31.2711
31.1002 30.8323
31.2855 30.5193
31.4708 30.5396
31.6563 30.0572
31.8418 29.7717
32.0275 29.6723
32.2132 29.078
32.399 28.6101
32.5848 28.1203
32.7708 27.7565
32.9569 27.6885
33.143 27.3895
33.3293 27.1061
33.5158 26.7483
33.7022 26.2765
33.8887 25.9964
34.0753 25.6222
34.262 25.3336
34.4488 24.9575
34.6357 24.6651
34.8227 24.313
35.0098 24.1972
35.1969 23.8961
35.3842 23.7428
35.5716 23.5532
35.759 23.232
35.9468 22.7959
36.1345 22.7066
36.3222 22.3984
36.5101 22.1967
36.6981 21.8334
36.8861 21.5113
37.0743 21.2076
37.2626 21.0394
37.451 20.7417
37.6395 20.5837
37.8281 20.2437
38.0168 19.9681
38.2056 19.7554
38.3945 19.4543
38.5837 19.1989
38.7728 18.9938
38.9621 18.6677
39.1514 18.472
39.3409 18.2445
39.5304 18.0243
39.7201 17.8834
39.9099 17.7237
40.0999 17.3577
40.2899 17.1571
40.48 16.9555
40.6703 16.7316
40.8607 16.5439
41.0512 16.2802
41.242 16.0891
41.4327 15.9199
41.6236 15.6334
41.8146 15.4292
42.0057 15.1883
42.1969 15.0084
42.3882 14.8179
42.5797 14.6042
42.7713 14.4848
42.963 14.2294
43.1549 14.0152
43.3468 13.8551
43.5389 13.6803
43.7312 13.484
43.9237 13.2729
44.1162 13.0502
44.3088 12.9386
44.5016 12.7685
44.6945 12.5624
44.8875 12.4388
45.0806 12.2231
45.2739 12.0551
45.4673 11.9015
45.6609 11.6849
45.8546 11.555
46.0484 11.4152
46.2424 11.2424
46.4365 11.0454
46.631 10.8872
46.8254 10.7372
47.0199 10.5879
47.2146 10.4569
47.4095 10.2837
47.6044 10.0873
47.7996 9.96943
47.9948 9.82868
48.1902 9.66066
48.3858 9.53094
48.5815 9.43835
48.7774 9.26662
48.9734 9.11587
49.1696 8.9856
49.3661 8.86117
49.5626 8.7225
49.7592 8.58968
49.956 8.47579
50.153 8.34004
50.3501 8.2195
50.5474 8.0625
50.7448 7.97315
50.9424 7.83618
51.1402 7.73001
51.3381 7.53879
51.5362 7.45177
51.7344 7.32026
51.9328 7.19371
52.1316 7.10342
52.3304 6.97754
52.5293 6.85121
52.7284 6.76109
52.9276 6.6532
53.1271 6.51547
53.3267 6.38744
53.5265 6.29939
53.7264 6.20096
53.9266 6.09402
54.1269 5.97873
54.3274 5.87073
54.528 5.7702
54.7289 5.55164
54.9301 5.45374
55.1314 5.30904
55.3328 5.08673
55.5344 4.92168
55.7361 4.79069

File: Ni3Fe_FD1071.xy
TT I
1.27165 6.76953
1.45013 5.73468
1.62863 5.22895
1.80712 4.39979
1.98562 4.77927
2.16411 4.27784
2.34263 5.56919
2.52115 7.15665
2.69965 8.40909
2.87818 8.61928
3.05672 10.6013
3.23527 14.9456
3.4138 18.4233
3.59237 21.3048
3.77094 24.5821
3.9495 28.244
4.12809 32.1237
4.30669 56.2482
4.4853 46.4237
4.6639 52.7027
4.84253 64.0844
5.02118 82.8859
5.19981 231.417
5.37848 206.169
5.55716 97.2724
5.73586 87.9618
5.91455 88.824
6.09328 4484.47
6.27201 76.004
6.45075 63.6447
6.62952 58.245
6.8083 54.4635
6.98711 52.5322
7.16591 51.7204
7.34475 56.0443
7.5236 58.2192
7.70247 52.979
7.88135 54.7824
8.06026 59.2211
8.23919 65.8452
8.41812 77.8956
8.59709 1110.9
8.77609 95.1039
8.9551 82.3732
9.13412 79.1969
9.31318 88.6837
9.49226 81.1324
9.67134 86.7355
9.85047 94.1537
10.0296 350.612
10.2088 444.398
10.388 98.3381
10.5672 512.498
10.7465 85.8299
10.9257 73.6244
11.105 68.4162
11.2844 65.0792
11.4637 62.3525
11.6431 60.5445
11.8225 59.7505
12.002 66.0499
12.1814 147.106
12.3609 64.9028
12.5405 61.3479
12.72 63.8605
12.8996 67.9402
13.0792 76.5353
13.2589 230.467
13.4386 126.24
13.6183 237.348
13.7981 99.7888
13.9779 73.5193
14.1577 74.9015
14.3376 67.59
14.5175 66.4544
14.6974 67.6418
14.8774 110.476
15.0574 158.949
15.2374 66.4372
15.4175 64.3934
15.5976 63.4978
15.7778 95.2814
15.958 169.311
16.1382 60.089
16.3185 55.6819
16.4988 53.6644
16.6792 52.809
16.8596 52.9187
17.04 54.059
17.2205 64.9906
17.401 72.3303
17.5815 57.4121
17.7622 60.0212
17.9428 73.629
18.1237 142.401
18.3044 88.8983
18.4852 78.9264
18.666 59.0901
18.8469 56.4672
19.0278 55.2932
19.2088 58.0274
19.3898 76.239
19.5709 53.0428
19.752 51.965
19.9332 55.2807
20.1144 70.4464
20.2957 63.684
20.477 53.0589
20.6586 48.4892
20.84 47.9845
21.0215 47.5037
21.203 49.7185
21.3846 47.973
21.5662 47.6702
21.7479 51.7839
21.9297 65.2645
22.1115 55.8838
22.2933 49.0772
22.4753 47.6357
22.6572 47.8076
22.8393 51.3909
23.0214 57.3223
23.2037 47.9381
23.3859 49.4359
23.5682 57.4047
23.7505 48.2864
23.9329 44.3156
24.1154 43.3057
24.2979 42.495
24.4805 42.1125
24.6631 42.0706
24.8458 41.3595
25.0286 42.0459
25.2114 44.3391
25.3943 44.3417
25.5773 40.2158
25.7605 39.5694
25.9436 40.1558
26.1268 41.3688
26.31 39.4593
26.4933 40.0656
26.6767 42.0753
26.8601 40.1265
27.0437 38.3367
27.2272 37.9163
27.4109 37.9727
27.5946 37.9108
27.7784 37.4411
27.9623 38.0837
28.1462 38.6956
28.3304 36.8682
28.5145 35.4031
28.6987 34.9194
28.8829 34.9374
29.0673 34.25
29.2517 33.8445
29.4361 33.7016
29.6207 32.6045
29.8053 32.3584
29.99 32.013
30.1748 31.973
30.3597 31.865
30.5447 31.6952
30.7297 31.9194
30.915 31.243
31.1002 30.6895
31.2855 30.5467
31.4708 30.5307
31.6563 30.1045
31.8418 29.8773
32.0275 29.5084
32.2132 28.9876
32.399 28.5378
32.5848 28.0883
32.7708 27.7565
32.9569 27.6497
33.143 27.5522
33.3293 27.0687
33.5158 26.6333
33.7022 26.2844
33.8887 25.937
34.0753 25.6315
34.262 25.3747
34.4488 24.9783
34.6357 24.6039
34.8227 24.3144
35.0098 24.1638
35.1969 23.8776
35.3842 23.6637
35.5716 23.548
35.759 23.1668
35.9468 22.8541
36.1345 22.5759
36.3222 22.3289
36.5101 22.1045
36.6981 21.8938
36.8861 21.5249
37.0743 21.2568
37.2626 20.981
37.451 20.7699
37.6395 20.4731
37.8281 20.2586
38.0168 19.9348
38.2056 19.6767
38.3945 19.395
38.5837 19.1768
38.7728 18.966
38.9621 18.6737
39.1514 18.4556
39.3409 18.2161
39.5304 17.9812
39.7201 17.8337
39.9099 17.5775
40.0999 17.3592
40.2899 17.1441
40.48 16.8945
40.6703 16.6897
40.8607 16.4668
41.0512 16.2588
41.242 16.0546
41.4327 15.8845
41.6236 15.6286
41.8146 15.4541
42.0057 15.1585
42.1969 15.0428
42.3882 14.8256
42.5797 14.6507
42.7713 14.4505
42.963 14.2255
43.1549 14.0352
43.3468 13.8449
43.5389 13.6415
43.7312 13.4604
43.9237 13.316
44.1162 13.0592
44.3088 12.884
44.5016 12.7247
44.6945 12.5708
44.8875 12.3832
45.0806 12.1908
45.2739 12.0325
45.4673 11.853
45.6609 11.7147
45.8546 11.5586
46.0484 11.3847
46.2424 11.1854
46.4365 11.0173
46.631 10.8797
46.8254 10.6956
47.0199 10.58
47.2146 10.4169
47.4095 10.2255
47.6044 10.1141
47.7996 9.94774
47.9948 9.81277
48.1902 9.64501
48.3858 9.52305
48.5815 9.37471
48.7774 9.30042
48.9734 9.14645
49.1696 8.97422
49.3661 8.83756
49.5626 8.6595
49.7592 8.61589
49.956 8.44898
50.153 8.32206
50.3501 8.17592
50.5474 8.05941
50.7448 7.94501
50.9424 7.8415
51.1402 7.70842
51.3381 7.55708
51.5362 7.46529
51.7344 7.33542
51.9328 7.19899
52.1316 7.05435
52.3304 6.97143
52.5293 6.8243
52.7284 6.76371
52.9276 6.63222
53.1271 6.52439
53.3267 6.42139
53.5265 6.2793
53.7264 6.18409
53.9266 6.0827
54.1269 5.97996
54.3274 5.86377
54.528 5.71907
54.7289 5.56997
54.9301 5.40184
55.1314 5.28525
55.3328 5.11027
55.5344 4.93501
55.7361 4.70797

File: Ni3Fe_FD1072.xy
TT I
1.27165 6.81884
1.45013 5.88278
1.62863 4.4295
1.80712 4.1028
1.98562 4.04452
2.16411 4.36862
2.34263 5.60769
2.52115 7.40271
2.69965 8.5133
2.87818 9.28752
3.05672 11.4955
3.23527 14.8418
3.4138 17.9416
3.59237 21.1731
3.77094 24.6693
3.9495 28.5055
4.12809 32.6683
4.30669 56.4289
4.4853 46.8296
4.6639 52.918
4.84253 64.4119
5.02118 83.179
5.19981 233.039
5.37848 205.565
5.55716 97.6332
5.73586 87.9763
5.91455 89.5568
6.09328 4509.32
6.27201 75.8778
6.45075 63.5554
6.62952 58.3111
6.8083 54.811
6.98711 52.4938
7.16591 51.555
7.34475 55.9555
7.5236 58.2358
7.70247 53.1786
7.88135 54.7707
8.06026 59.0739
8.23919 66.0642
8.41812 78.1171
8.59709 1115.34
8.77609 94.7927
8.9551 82.3514
9.13412 79.2878
9.31318 88.5224
9.49226 81.3109
9.67134 86.6397
9.85047 94.49
10.0296 351.339
10.2088 441.885
10.388 97.9238
10.5672 513.247
10.7465 86.3451
10.9257 73.984
11.105 68.3982
11.2844 65.1117
11.4637 61.9962
11.6431 60.7625
11.8225 59.8474
12.002 66.158
12.1814 147.703
12.3609 64.7835
12.5405 61.406
12.72 64.1691
12.8996 68.2296
13.0792 76.8293
13.2589 231.416
13.4386 125.601
13.6183 237.718
13.7981 99.998
13.9779 73.6023
14.1577 75.1415
14.3376 67.3441
14.5175 66.692
14.6974 67.7975
14.8774 110.629
15.0574 157.784
15.2374 66.4919
15.4175 64.4631
15.5976 63.5102
15.7778 95.3572
15.958 167.926
16.1382 59.6818
16.3185 55.9175
16.4988 53.4448
16.6792 52.7453
16.8596 52.9185
17.04 53.9351
17.2205 65.0133
17.401 72.0097
17.5815 57.2694
17.7622 60.0575
17.9428 73.6104
18.1237 142.464
18.3044 88.758
18.4852 78.651
18.666 58.7991
18.8469 56.5081
19.0278 55.2476
19.2088 57.9332
19.3898 76.3292
19.5709 53.0964
19.752 52.0096
19.9332 55.3739
20.1144 70.5525
20.2957 63.4948
20.477 52.848
20.6586 48.3712
20.84 47.8654
21.0215 47.3938
21.203 49.6813
21.3846 48.0464
21.5662 47.6439
21.7479 52.1097
21.9297 65.2385
22.1115 55.9791
22.2933 49.1417
22.4753 47.6839
22.6572 47.7481
22.8393 51.1982
23.0214 57.4478
23.2037 47.905
23.3859 49.3922
23.5682 57.3057
23.7505 48.3032
23.9329 44.3756
24.1154 43.127
24.2979 42.5456
24.4805 42.0623
24.6631 42.0644
24.8458 41.3827
25.0286 42.0352
25.2114 44.2907
25.3943 44.5539
25.5773 40.1647
25.7605 39.7972
25.9436 40.1424
26.1268 41.3346
26.31 39.3692
26.4933 40.1056
26.6767 42.0204
26.8601 40.1414
27.0437 38.4348
27.2272 37.9157
27.4109 37.7231
27.5946 38.095
27.7784 37.3862
27.9623 38.1593
28.1462 38.6307
28.3304 36.9511
28.5145 35.5125
28.6987 34.8929
28.8829 34.8818
29.0673 34.1974
29.2517 33.7893
29.4361 33.7139
29.6207 32.6145
29.8053 32.4341
29.99 32.0356
30.1748 31.948
30.3597 31.8461
30.5447 31.7818
30.7297 31.9258
30.915 31.1795
31.1002 30.7128
31.2855 30.3321
31.4708 30.462
31.6563 30.0106
31.8418 29.8542
32.0275 29.6788
32.2132 28.9689
32.399 28.5531
32.5848 28.0619
32.7708 27.7536
32.9569 27.5748
33.143 27.3785
33.3293 27.1139
33.5158 26.6678
33.7022 26.2067
33.8887 25.9351
34.0753 25.6585
34.262 25.3183
34.4488 24.9427
34.6357 24.6967
34.8227 24.3572
35.0098 24.1109
35.1969 23.8376
35.3842 23.7385
35.5716 23.5407
35.759 23.114
35.9468 22.7449
36.1345 22.6915
36.3222 22.4249
36.5101 22.1355
36.6981 21.7539
36.8861 21.4399
37.0743 21.1918
37.2626 21.011
37.451 20.6534
37.6395 20.5207
37.8281 20.249
38.0168 19.9276
38.2056 19.7028
38.3945 19.3497
38.5837 19.2351
38.7728 18.9117
38.9621 18.739
39.1514 18.4543
39.3409 18.2435
39.5304 17.9557
39.7201 17.8476
39.9099 17.5508
40.0999 17.3195
40.2899 17.1243
40.48 16.8234
40.6703 16.6994
40.8607 16.5194
41.0512 16.2903
41.242 16.0492
41.4327 15.918
41.6236 15.5524
41.8146 15.4768
42.0057 15.204
42.1969 14.9995
42.3882 14.8486
42.5797 14.6196
42.7713 14.382
42.963 14.2159
43.1549 14.0757
43.3468 13.7915
43.5389 13.6324
43.7312 13.4356
43.9237 13.2732
44.1162 13.0702
44.3088 12.8834
44.5016 12.7248
44.6945 12.5652
44.8875 12.372
45.0806 12.1621
45.2739 12.0452
45.4673 11.8813
45.6609 11.6978
45.8546 11.5543
46.0484 11.3988
46.2424 11.1781
46.4365 11.0365
46.631 10.856
46.8254 10.6783
47.0199 10.5588
47.2146 10.4584
47.4095 10.2551
47.6044 10.0775
47.7996 9.97036
47.9948 9.78288
48.1902 9.64832
48.3858 9.52866
48.5815 9.41072
48.7774 9.2805
48.9734 9.09742
49.1696 8.96057
49.3661 8.83449
49.5626 8.68318
49.7592 8.60445
49.956 8.47458
50.153 8.28899
50.3501 8.19551
50.5474 8.03278
50.7448 7.92685
50.9424 7.80815
51.1402 7.7099
51.3381 7.54777
51.5362 7.47226
51.7344 7.31028
51.9328 7.17266
52.1316 7.05953
52.3304 6.96173
52.5293 6.82247
52.7284 6.76379
52.9276 6.64113
53.1271 6.52212
53.3267 6.42086
53.5265 6.28671
53.7264 6.12489
53.9266 6.09589
54.1269 5.99752
54.3274 5.86995
54.528 5.7729
54.7289 5.54099
54.9301 5.39012
55.1314 5.27189
55.3328 5.11333
55.5344 4.88579
55.7361 4.75251

File: Ni3Fe_FD1074.xy
TT I
1.27165 7.12827
1.45013 6.01859
1.62863 4.49918
1.80712 4.28578
1.98562 4.56813
2.16411 4.18233
2.34263 4.54962
2.52115 7.64216
2.69965 8.06448
2.87818 8.84326
3.05672 11.6355
3.23527 14.4486
3.4138 18.2511
3.59237 20.852
3.77094 24.3454
3.9495 27.77
4.12809 32.5069
4.30669 56.5501
4.4853 46.4021
4.6639 53.0338
4.84253 64.158
5.02118 82.7473
5.19981 230.113
5.37848 206.301
5.55716 97.2345
5.73586 87.7192
5.91455 89.0604
6.09328 4469.29
6.27201 75.9409
6.45075 63.5809
6.62952 57.8715
6.8083 54.6237
6.98711 52.4372
7.16591 51.8377
7.34475 56.0164
7.5236 57.7136
7.70247 53.2161
7.88135 54.95
8.06026 58.8676
8.23919 65.6092
8.41812 78.1413
8.59709 1111.48
8.77609 94.9631
8.9551 82.5352
9.13412 79.1526
9.31318 87.836
9.49226 81.0297
9.67134 86.9138
9.85047 94.2792
10.0296 350.723
10.2088 445.968
10.388 97.6862
10.5672 513.107
10.7465 86.0624
10.9257 73.8204
11.105 68.4539
11.2844 64.8751
11.4637 61.9311
11.6431 60.5809
11.8225 59.591
12.002 66.4322
12.1814 146.875
12.3609 64.7186
12.5405 61.5315
12.72 64.1168
12.8996 68.0441
13.0792 76.6719
13.2589 230.633
13.4386 126.086
13.6183 237.009
13.7981 99.9965
13.9779 73.2737
14.1577 75.0282
14.3376 67.3114
14.5175 66.3194
14.6974 67.7495
14.8774 110.538
15.0574 159.163
15.2374 66.7587
15.4175 64.0991
15.5976 63.4199
15.7778 95.2227
15.958 169.628
16.1382 59.8844
16.3185 55.599
16.4988 53.627
16.6792 52.4043
16.8596 52.8238
17.04 54.0466
17.2205 65.165
17.401 72.2532
17.5815 57.3543
17.7622 59.9976
17.9428 73.4396
18.1237 142.632
18.3044 88.888
18.4852 78.7629
18.666 58.858
18.8469 56.4436
19.0278 55.0789
19.2088 58.1217
19.3898 76.0646
19.5709 53.0227
19.752 51.8594
19.9332 55.1801
20.1144 70.6207
20.2957 63.7076
20.477 52.8696
20.6586 48.4937
20.84 47.9691
21.0215 47.4493
21.203 49.7816
21.3846 48.0067
21.5662 47.7708
21.7479 51.968
21.9297 65.3157
22.1115 55.9274
22.2933 49.1844
22.4753 47.5929
22.6572 47.8137
22.8393 51.3033
23.0214 57.4333
23.2037 47.8809
23.3859 49.4969
23.5682 57.284
23.7505 48.1265
23.9329 44.3373
24.1154 43.2593
24.2979 42.3562
24.4805 41.9996
24.6631 42.1975
24.8458 41.4046
25.0286 42.1362
25.2114 44.2628
25.3943 44.4088
25.5773 40.2103
25.7605 39.6804
25.9436 40.1956
26.1268 41.3547
26.31 39.44
26.4933 40.2377
26.6767 42.1052
26.8601 40.1948
27.0437 38.3208
27.2272 37.9715
27.4109 37.7493
27.5946 37.9702
27.7784 37.3179
27.9623 37.8766
28.1462 38.6492
28.3304 36.8398
28.5145 35.4427
28.6987 35.11
28.8829 35.027
29.0673 34.249
29.2517 33.7823
29.4361 33.6713
29.6207 32.6206
29.8053 32.2561
29.99 32.1818
30.1748 32.0701
30.3597 31.8394
30.5447 31.7757
30.7297 31.8734
30.915 31.2544
31.1002 30.732
31.2855 30.4633
31.4708 30.5146
31.6563 30.0879
31.8418 29.82
32.0275 29.6553
32.2132 29.0221
32.399 28.5428
32.5848 28.1433
32.7708 27.7976
32.9569 27.6137
33.143 27.4737
33.3293 27.0481
33.5158 26.6141
33.7022 26.1499
33.8887 25.9236
34.0753 25.615
34.262 25.3285
34.4488 24.9493
34.6357 24.6316
34.8227 24.4522
35.0098 24.057
35.1969 23.8648
35.3842 23.789
35.5716 23.4924
35.759 23.1118
35.9468 22.8645
36.1345 22.6019
36.3222 22.3272
36.5101 22.1781
36.6981 21.9397
36.8861 21.6226
37.0743 21.2095
37.2626 20.9479
37.451 20.6717
37.6395 20.6163
37.8281 20.2017
38.0168 19.9171
38.2056 19.662
38.3945 19.4983
38.5837 19.2473
38.7728 18.9714
38.9621 18.6422
39.1514 18.4456
39.3409 18.1914
39.5304 17.9802
39.7201 17.7844
39.9099 17.5661
40.0999 17.3362
40.2899 17.131
40.48 16.8609
40.6703 16.6663
40.8607 16.5281
41.0512 16.3133
41.242 16.0447
41.4327 15.8785
41.6236 15.6247
41.8146 15.4695
42.0057 15.1646
42.1969 15.0112
42.3882 14.8595
42.5797 14.6372
42.7713 14.4856
42.963 14.2313
43.1549 14.0575
43.3468 13.8392
43.5389 13.6005
43.7312 13.4261
43.9237 13.3153
44.1162 13.0701
44.3088 12.8937
44.5016 12.7207
44.6945 12.5591
44.8875 12.3696
45.0806 12.2303
45.2739 12.0437
45.4673 11.8714
45.6609 11.6802
45.8546 11.5355
46.0484 11.3636
46.2424 11.218
46.4365 11.0645
46.631 10.9004
46.8254 10.7081
47.0199 10.5523
47.2146 10.4104
47.4095 10.2547
47.6044 10.0985
47.7996 9.97238
47.9948 9.77475
48.1902 9.65594
48.3858 9.52708
48.5815 9.38441
48.7774 9.24879
48.9734 9.14168
49.1696 8.96344
49.3661 8.83173
49.5626 8.66328
49.7592 8.59694
49.956 8.44872
50.153 8.33676
50.3501 8.15816
50.5474 8.06607
50.7448 7.96698
50.9424 7.78829
51.1402 7.70915
51.3381 7.59112
51.5362 7.44713
51.7344 7.33553
51.9328 7.19933
52.1316 7.09361
52.3304 6.96593
52.5293 6.87296
52.7284 6.74555
52.9276 6.62443
53.1271 6.52329
53.3267 6.38774
53.5265 6.29548
53.7264 6.18328
53.9266 6.07556
54.1269 5.91709
54.3274 5.83228
54.528 5.71172
54.7289 5.55708
54.9301 5.41383
55.1314 5.23841
55.3328 5.08052
55.5344 4.91806
55.7361 4.78808