Folder: NiFe_MOF_catalyst_paper/XRD (part 193)

File: Ni3Fe_FD1041.xy
TT I
1.27165 7.1433
1.45013 5.94311
1.62863 4.98721
1.80712 4.70174
1.98562 3.98425
2.16411 4.8168
2.34263 4.75268
2.52115 7.40189
2.69965 8.64706
2.87818 8.9038
3.05672 10.9253
3.23527 14.8197
3.4138 18.2909
3.59237 21.3138
3.77094 24.4261
3.9495 28.1167
4.12809 32.3618
4.30669 56.1051
4.4853 45.913
4.6639 52.5451
4.84253 63.9635
5.02118 82.513
5.19981 230.472
5.37848 215.475
5.55716 97.2846
5.73586 87.5966
5.91455 88.3208
6.09328 4582.9
6.27201 75.6293
6.45075 63.7399
6.62952 57.9555
6.8083 54.4752
6.98711 52.6644
7.16591 51.2515
7.34475 55.974
7.5236 59.6106
7.70247 53.0326
7.88135 54.9494
8.06026 59.0553
8.23919 65.5207
8.41812 77.4741
8.59709 1078.16
8.77609 94.469
8.9551 82.1879
9.13412 78.8373
9.31318 89.9762
9.49226 81.1685
9.67134 86.2025
9.85047 93.7911
10.0296 344.01
10.2088 439.26
10.388 97.6232
10.5672 504.126
10.7465 86.4995
10.9257 73.2405
11.105 68.4185
11.2844 64.7315
11.4637 61.9467
11.6431 60.4709
11.8225 59.6122
12.002 67.0773
12.1814 146.318
12.3609 64.458
12.5405 61.4005
12.72 63.757
12.8996 67.8331
13.0792 76.5494
13.2589 225.973
13.4386 127.374
13.6183 235.959
13.7981 100.115
13.9779 73.4414
14.1577 75.9447
14.3376 67.2489
14.5175 66.3646
14.6974 67.3144
14.8774 109.283
15.0574 161.061
15.2374 66.5917
15.4175 64.0521
15.5976 63.42
15.7778 93.4751
15.958 168.021
16.1382 59.8044
16.3185 55.3579
16.4988 53.3808
16.6792 52.3481
16.8596 52.7232
17.04 53.7108
17.2205 64.4783
17.401 71.5479
17.5815 57.194
17.7622 59.9147
17.9428 73.0225
18.1237 142.111
18.3044 88.6315
18.4852 79.4386
18.666 58.9845
18.8469 56.2969
19.0278 54.8096
19.2088 57.8498
19.3898 76.1028
19.5709 52.8849
19.752 51.7049
19.9332 55.0263
20.1144 70.329
20.2957 63.278
20.477 52.6983
20.6586 48.1501
20.84 47.8708
21.0215 47.2392
21.203 49.3426
21.3846 47.753
21.5662 47.5188
21.7479 51.5575
21.9297 65.0012
22.1115 55.8467
22.2933 48.9886
22.4753 47.4119
22.6572 47.5537
22.8393 51.1855
23.0214 57.339
23.2037 47.8296
23.3859 49.2068
23.5682 57.1568
23.7505 48.2053
23.9329 44.1364
24.1154 43.0848
24.2979 42.3269
24.4805 41.8761
24.6631 42.0571
24.8458 41.2491
25.0286 41.9361
25.2114 44.1483
25.3943 44.3075
25.5773 40.2137
25.7605 39.5798
25.9436 40.0693
26.1268 41.1567
26.31 39.3576
26.4933 40.0369
26.6767 41.8459
26.8601 39.9988
27.0437 38.3338
27.2272 37.8104
27.4109 37.6367
27.5946 37.8351
27.7784 37.2199
27.9623 37.8643
28.1462 38.5518
28.3304 36.7958
28.5145 35.3241
28.6987 34.9534
28.8829 34.7746
29.0673 34.0352
29.2517 33.6796
29.4361 33.582
29.6207 32.6391
29.8053 32.1659
29.99 31.8818
30.1748 31.7647
30.3597 31.6381
30.5447 31.6534
30.7297 31.816
30.915 31.1706
31.1002 30.5899
31.2855 30.3796
31.4708 30.3352
31.6563 29.9168
31.8418 29.6872
32.0275 29.5098
32.2132 28.865
32.399 28.3979
32.5848 28.001
32.7708 27.5792
32.9569 27.5289
33.143 27.3457
33.3293 26.9979
33.5158 26.6193
33.7022 26.0613
33.8887 25.8407
34.0753 25.5577
34.262 25.1678
34.4488 24.8688
34.6357 24.4389
34.8227 24.2514
35.0098 24.0138
35.1969 23.7918
35.3842 23.5638
35.5716 23.3911
35.759 23.0865
35.9468 22.6367
36.1345 22.5015
36.3222 22.2785
36.5101 22.0792
36.6981 21.7628
36.8861 21.3932
37.0743 21.1825
37.2626 20.901
37.451 20.6578
37.6395 20.4767
37.8281 20.1231
38.0168 19.8922
38.2056 19.5458
38.3945 19.3781
38.5837 19.0659
38.7728 18.8804
38.9621 18.5986
39.1514 18.3467
39.3409 18.1175
39.5304 17.8976
39.7201 17.7504
39.9099 17.5099
40.0999 17.2807
40.2899 17.018
40.48 16.8401
40.6703 16.6828
40.8607 16.4959
41.0512 16.2418
41.242 15.9784
41.4327 15.8146
41.6236 15.5002
41.8146 15.4206
42.0057 15.1643
42.1969 14.9521
42.3882 14.8175
42.5797 14.4892
42.7713 14.3568
42.963 14.155
43.1549 14.0139
43.3468 13.7469
43.5389 13.6014
43.7312 13.3746
43.9237 13.2557
44.1162 13.0904
44.3088 12.8335
44.5016 12.6592
44.6945 12.5585
44.8875 12.3589
45.0806 12.1169
45.2739 12.0305
45.4673 11.8415
45.6609 11.6812
45.8546 11.5095
46.0484 11.3148
46.2424 11.1694
46.4365 11.0402
46.631 10.8494
46.8254 10.668
47.0199 10.5487
47.2146 10.3696
47.4095 10.2029
47.6044 10.1022
47.7996 9.88895
47.9948 9.75784
48.1902 9.60394
48.3858 9.48293
48.5815 9.34158
48.7774 9.21655
48.9734 9.06898
49.1696 8.94929
49.3661 8.82898
49.5626 8.67082
49.7592 8.54975
49.956 8.43639
50.153 8.28919
50.3501 8.10892
50.5474 8.03633
50.7448 7.91106
50.9424 7.79631
51.1402 7.68725
51.3381 7.53357
51.5362 7.44796
51.7344 7.32533
51.9328 7.15913
52.1316 7.04748
52.3304 6.94897
52.5293 6.83099
52.7284 6.72259
52.9276 6.59254
53.1271 6.55076
53.3267 6.359
53.5265 6.25675
53.7264 6.1237
53.9266 6.04655
54.1269 5.95768
54.3274 5.7916
54.528 5.72921
54.7289 5.57879
54.9301 5.39785
55.1314 5.24555
55.3328 5.10002
55.5344 4.88168
55.7361 4.7895

File: Ni3Fe_FD1042.xy
TT I
1.27165 7.38011
1.45013 6.09195
1.62863 4.66059
1.80712 4.22621
1.98562 4.72645
2.16411 3.79209
2.34263 4.98218
2.52115 7.86913
2.69965 8.58237
2.87818 9.25711
3.05672 10.9938
3.23527 14.4215
3.4138 18.3574
3.59237 21.2923
3.77094 24.4989
3.9495 28.0479
4.12809 32.3962
4.30669 57.256
4.4853 46.1976
4.6639 52.009
4.84253 64.1727
5.02118 82.9136
5.19981 232.918
5.37848 213.966
5.55716 96.9839
5.73586 87.7864
5.91455 88.8024
6.09328 4532.99
6.27201 75.9223
6.45075 63.3672
6.62952 57.965
6.8083 54.7011
6.98711 52.169
7.16591 51.2065
7.34475 55.8107
7.5236 59.5952
7.70247 53.1264
7.88135 54.8166
8.06026 58.9609
8.23919 65.4955
8.41812 77.5845
8.59709 1081.12
8.77609 94.7993
8.9551 82.5466
9.13412 79.0762
9.31318 90.0678
9.49226 80.8733
9.67134 86.6024
9.85047 93.7994
10.0296 346.912
10.2088 435.794
10.388 97.3116
10.5672 505.267
10.7465 86.3525
10.9257 73.2852
11.105 68.0729
11.2844 64.7121
11.4637 61.7451
11.6431 60.4959
11.8225 59.6714
12.002 67.1856
12.1814 146.609
12.3609 64.5902
12.5405 61.4703
12.72 63.5743
12.8996 67.5531
13.0792 76.616
13.2589 227.666
13.4386 127.005
13.6183 236.327
13.7981 100.303
13.9779 73.0634
14.1577 75.9194
14.3376 67.2478
14.5175 66.3106
14.6974 67.4661
14.8774 109.161
15.0574 160.402
15.2374 66.4182
15.4175 63.898
15.5976 63.4194
15.7778 93.8376
15.958 166.833
16.1382 59.6755
16.3185 55.4859
16.4988 53.2524
16.6792 52.5496
16.8596 52.92
17.04 53.6879
17.2205 64.6542
17.401 71.5967
17.5815 57.2609
17.7622 59.8388
17.9428 72.7798
18.1237 141.817
18.3044 88.7049
18.4852 78.9609
18.666 58.8173
18.8469 56.4246
19.0278 55.0296
19.2088 57.9873
19.3898 76.0862
19.5709 52.9136
19.752 51.5932
19.9332 54.878
20.1144 70.2849
20.2957 63.4253
20.477 52.6994
20.6586 48.2774
20.84 47.9063
21.0215 47.2289
21.203 49.4606
21.3846 47.8025
21.5662 47.4402
21.7479 51.5648
21.9297 65.3989
22.1115 55.558
22.2933 48.9371
22.4753 47.4903
22.6572 47.6522
22.8393 51.0535
23.0214 57.2861
23.2037 47.672
23.3859 49.2518
23.5682 57.12
23.7505 48.0684
23.9329 44.2668
24.1154 43.1746
24.2979 42.4676
24.4805 42.0496
24.6631 42.0309
24.8458 41.2449
25.0286 41.8766
25.2114 44.115
25.3943 44.2138
25.5773 40.0594
25.7605 39.5486
25.9436 40.0509
26.1268 41.1896
26.31 39.3653
26.4933 40.0489
26.6767 41.7541
26.8601 40.0175
27.0437 38.245
27.2272 37.7198
27.4109 37.6897
27.5946 37.8151
27.7784 37.2094
27.9623 37.7712
28.1462 38.5541
28.3304 36.7071
28.5145 35.1596
28.6987 34.95
28.8829 34.6661
29.0673 34.054
29.2517 33.791
29.4361 33.5359
29.6207 32.4455
29.8053 32.2568
29.99 31.9436
30.1748 31.8386
30.3597 31.579
30.5447 31.6388
30.7297 31.8127
30.915 31.1767
31.1002 30.6067
31.2855 30.375
31.4708 30.3776
31.6563 29.9226
31.8418 29.6497
32.0275 29.5894
32.2132 28.8126
32.399 28.3803
32.5848 28.0238
32.7708 27.6763
32.9569 27.5332
33.143 27.4228
33.3293 26.8623
33.5158 26.5866
33.7022 26.112
33.8887 25.8854
34.0753 25.5385
34.262 25.1787
34.4488 24.8939
34.6357 24.4971
34.8227 24.2495
35.0098 24.0786
35.1969 23.7811
35.3842 23.5873
35.5716 23.3911
35.759 23.063
35.9468 22.7213
36.1345 22.5743
36.3222 22.3116
36.5101 22.0966
36.6981 21.7502
36.8861 21.4292
37.0743 21.1265
37.2626 20.8977
37.451 20.687
37.6395 20.505
37.8281 20.1589
38.0168 19.8677
38.2056 19.5726
38.3945 19.3888
38.5837 19.1437
38.7728 18.8999
38.9621 18.6211
39.1514 18.3788
39.3409 18.2039
39.5304 17.9292
39.7201 17.7213
39.9099 17.5267
40.0999 17.2837
40.2899 17.0859
40.48 16.8399
40.6703 16.6344
40.8607 16.4595
41.0512 16.2394
41.242 15.9747
41.4327 15.7799
41.6236 15.537
41.8146 15.4221
42.0057 15.1839
42.1969 14.9541
42.3882 14.8071
42.5797 14.527
42.7713 14.3691
42.963 14.1737
43.1549 13.9669
43.3468 13.7571
43.5389 13.7011
43.7312 13.3714
43.9237 13.2168
44.1162 13.0745
44.3088 12.865
44.5016 12.6501
44.6945 12.5222
44.8875 12.3462
45.0806 12.1682
45.2739 11.9988
45.4673 11.8434
45.6609 11.6115
45.8546 11.4949
46.0484 11.3338
46.2424 11.1833
46.4365 11.0238
46.631 10.8583
46.8254 10.7032
47.0199 10.5368
47.2146 10.3744
47.4095 10.2453
47.6044 10.0964
47.7996 9.89077
47.9948 9.73682
48.1902 9.63783
48.3858 9.49569
48.5815 9.37848
48.7774 9.20179
48.9734 9.09071
49.1696 8.95675
49.3661 8.82842
49.5626 8.68385
49.7592 8.53916
49.956 8.41
50.153 8.25515
50.3501 8.11962
50.5474 8.00725
50.7448 7.92115
50.9424 7.77326
51.1402 7.68808
51.3381 7.54043
51.5362 7.40675
51.7344 7.29308
51.9328 7.1903
52.1316 7.0193
52.3304 6.93642
52.5293 6.85233
52.7284 6.72619
52.9276 6.59706
53.1271 6.53198
53.3267 6.36135
53.5265 6.24185
53.7264 6.15246
53.9266 6.09271
54.1269 5.9665
54.3274 5.86092
54.528 5.69958
54.7289 5.60095
54.9301 5.43128
55.1314 5.24159
55.3328 5.07068
55.5344 4.91846
55.7361 4.77581

File: Ni3Fe_FD1043.xy
TT I
1.27165 7.37509
1.45013 5.80824
1.62863 5.49219
1.80712 4.5001
1.98562 4.10659
2.16411 4.76556
2.34263 4.68668
2.52115 6.90234
2.69965 8.07109
2.87818 8.3807
3.05672 10.8284
3.23527 15.0567
3.4138 18.29
3.59237 21.595
3.77094 24.5299
3.9495 28.8077
4.12809 32.7322
4.30669 57.0157
4.4853 46.0943
4.6639 52.5293
4.84253 64.0349
5.02118 82.7114
5.19981 230.912
5.37848 214.978
5.55716 97.3273
5.73586 87.8457
5.91455 88.9181
6.09328 4529.6
6.27201 75.8695
6.45075 63.5889
6.62952 57.9079
6.8083 54.5806
6.98711 52.7551
7.16591 51.4976
7.34475 55.9391
7.5236 59.4907
7.70247 53.1468
7.88135 54.7728
8.06026 59.1519
8.23919 65.3796
8.41812 77.4886
8.59709 1078.33
8.77609 94.9056
8.9551 82.3323
9.13412 78.7974
9.31318 89.9713
9.49226 80.639
9.67134 86.644
9.85047 93.653
10.0296 346.009
10.2088 438.69
10.388 97.4031
10.5672 504.658
10.7465 86.2542
10.9257 73.17
11.105 68.0027
11.2844 64.6592
11.4637 61.6672
11.6431 60.4345
11.8225 59.5229
12.002 67.016
12.1814 145.918
12.3609 64.4939
12.5405 61.2123
12.72 63.9101
12.8996 67.6133
13.0792 76.5953
13.2589 226.772
13.4386 127.336
13.6183 235.387
13.7981 100.04
13.9779 73.3416
14.1577 75.8243
14.3376 67.3403
14.5175 66.338
14.6974 67.2088
14.8774 109.235
15.0574 160.465
15.2374 66.367
15.4175 63.9266
15.5976 63.3545
15.7778 93.7303
15.958 167.847
16.1382 59.9533
16.3185 55.4773
16.4988 53.2744
16.6792 52.4718
16.8596 52.8173
17.04 53.6435
17.2205 64.5019
17.401 71.8661
17.5815 57.2214
17.7622 59.9735
17.9428 73.1058
18.1237 141.76
18.3044 88.7067
18.4852 78.9843
18.666 58.7319
18.8469 56.2904
19.0278 54.8754
19.2088 57.8084
19.3898 75.9295
19.5709 52.7693
19.752 51.7305
19.9332 54.8474
20.1144 70.5038
20.2957 63.4834
20.477 52.7483
20.6586 48.2885
20.84 47.9624
21.0215 47.3606
21.203 49.5286
21.3846 47.9239
21.5662 47.472
21.7479 51.7294
21.9297 65.3613
22.1115 55.8365
22.2933 49.0225
22.4753 47.4551
22.6572 47.4846
22.8393 51.0475
23.0214 57.6144
23.2037 47.7879
23.3859 49.2651
23.5682 57.1085
23.7505 48.3534
23.9329 44.2033
24.1154 43.0648
24.2979 42.306
24.4805 42.0513
24.6631 41.9119
24.8458 41.1462
25.0286 41.8688
25.2114 44.0632
25.3943 44.2221
25.5773 40.2368
25.7605 39.59
25.9436 40.1175
26.1268 41.1526
26.31 39.2639
26.4933 39.8703
26.6767 41.8259
26.8601 40.036
27.0437 38.163
27.2272 37.8082
27.4109 37.6485
27.5946 37.7578
27.7784 37.3868
27.9623 37.9284
28.1462 38.6956
28.3304 36.786
28.5145 35.3425
28.6987 34.8702
28.8829 34.773
29.0673 34.0775
29.2517 33.7324
29.4361 33.7167
29.6207 32.5437
29.8053 32.2019
29.99 31.9689
30.1748 31.7922
30.3597 31.6218
30.5447 31.6793
30.7297 31.9048
30.915 31.1661
31.1002 30.6449
31.2855 30.5067
31.4708 30.344
31.6563 29.8515
31.8418 29.6262
32.0275 29.5385
32.2132 28.915
32.399 28.4313
32.5848 27.943
32.7708 27.7135
32.9569 27.5032
33.143 27.3812
33.3293 26.9896
33.5158 26.5752
33.7022 26.1242
33.8887 25.9086
34.0753 25.5089
34.262 25.2637
34.4488 24.9336
34.6357 24.5541
34.8227 24.1911
35.0098 24.0675
35.1969 23.7538
35.3842 23.6408
35.5716 23.4332
35.759 23.0832
35.9468 22.7543
36.1345 22.5511
36.3222 22.2559
36.5101 22.0758
36.6981 21.7767
36.8861 21.4046
37.0743 21.1029
37.2626 20.9086
37.451 20.6389
37.6395 20.5418
37.8281 20.1286
38.0168 19.8272
38.2056 19.6115
38.3945 19.2897
38.5837 19.1445
38.7728 18.9288
38.9621 18.6406
39.1514 18.3777
39.3409 18.1287
39.5304 17.9061
39.7201 17.7262
39.9099 17.4831
40.0999 17.3413
40.2899 17.1058
40.48 16.8428
40.6703 16.6109
40.8607 16.4892
41.0512 16.2516
41.242 16.0183
41.4327 15.8269
41.6236 15.5353
41.8146 15.3892
42.0057 15.1392
42.1969 14.9412
42.3882 14.8078
42.5797 14.598
42.7713 14.3687
42.963 14.2044
43.1549 14.0034
43.3468 13.782
43.5389 13.6372
43.7312 13.3764
43.9237 13.2671
44.1162 13.0354
44.3088 12.8545
44.5016 12.6775
44.6945 12.5125
44.8875 12.3243
45.0806 12.1367
45.2739 12.0121
45.4673 11.8351
45.6609 11.6724
45.8546 11.5069
46.0484 11.2918
46.2424 11.1668
46.4365 10.9918
46.631 10.8441
46.8254 10.6867
47.0199 10.5197
47.2146 10.3864
47.4095 10.2124
47.6044 10.0543
47.7996 9.888
47.9948 9.7787
48.1902 9.65271
48.3858 9.50568
48.5815 9.37468
48.7774 9.26675
48.9734 9.08627
49.1696 8.946
49.3661 8.80265
49.5626 8.64084
49.7592 8.55808
49.956 8.43241
50.153 8.28403
50.3501 8.18002
50.5474 8.03771
50.7448 7.87665
50.9424 7.79178
51.1402 7.64743
51.3381 7.51765
51.5362 7.45711
51.7344 7.28294
51.9328 7.1628
52.1316 7.06425
52.3304 6.94974
52.5293 6.8377
52.7284 6.76274
52.9276 6.60252
53.1271 6.51588
53.3267 6.35098
53.5265 6.29171
53.7264 6.14424
53.9266 6.08222
54.1269 5.95102
54.3274 5.86819
54.528 5.71799
54.7289 5.58982
54.9301 5.39143
55.1314 5.28875
55.3328 5.04048
55.5344 4.88606
55.7361 4.72433

File: Ni3Fe_FD1044.xy
TT I
1.27165 7.30483
1.45013 5.89152
1.62863 4.36507
1.80712 4.54052
1.98562 4.20275
2.16411 4.14275
2.34263 5.21249
2.52115 6.88492
2.69965 8.30516
2.87818 8.38371
3.05672 10.7147
3.23527 15.2644
3.4138 17.9122
3.59237 21.6335
3.77094 24.7463
3.9495 28.0361
4.12809 32.4536
4.30669 57.056
4.4853 46.1972
4.6639 52.2666
4.84253 64.1678
5.02118 83.0886
5.19981 230.614
5.37848 214.234
5.55716 97.2782
5.73586 87.9268
5.91455 88.6536
6.09328 4599.8
6.27201 76.1968
6.45075 63.309
6.62952 58.1206
6.8083 54.4797
6.98711 52.3605
7.16591 51.5539
7.34475 55.9485
7.5236 59.4126
7.70247 53.2633
7.88135 54.5656
8.06026 59.1448
8.23919 65.2836
8.41812 77.418
8.59709 1079.5
8.77609 94.8802
8.9551 82.1155
9.13412 79.0985
9.31318 90.1039
9.49226 80.7658
9.67134 86.0141
9.85047 93.9885
10.0296 345.852
10.2088 441.552
10.388 97.6769
10.5672 502.787
10.7465 86.4993
10.9257 73.2451
11.105 68.2722
11.2844 64.6524
11.4637 61.6885
11.6431 60.5359
11.8225 59.3176
12.002 66.8648
12.1814 146.458
12.3609 64.4187
12.5405 61.2777
12.72 64.016
12.8996 67.7195
13.0792 76.2795
13.2589 226.308
13.4386 127.507
13.6183 235.609
13.7981 100.261
13.9779 73.1553
14.1577 75.7798
14.3376 67.2487
14.5175 66.2615
14.6974 67.4509
14.8774 109.012
15.0574 161.282
15.2374 66.5118
15.4175 63.7493
15.5976 63.3676
15.7778 93.8925
15.958 168.729
16.1382 59.8281
16.3185 55.5298
16.4988 53.5443
16.6792 52.5288
16.8596 52.7281
17.04 53.6808
17.2205 64.3439
17.401 72.0729
17.5815 57.164
17.7622 59.8249
17.9428 72.9173
18.1237 141.847
18.3044 88.6873
18.4852 79.4079
18.666 58.806
18.8469 56.3269
19.0278 54.8664
19.2088 57.8988
19.3898 75.976
19.5709 52.7933
19.752 51.5361
19.9332 54.9053
20.1144 70.4244
20.2957 63.4641
20.477 52.9252
20.6586 48.2508
20.84 47.977
21.0215 47.339
21.203 49.4379
21.3846 47.7628
21.5662 47.5133
21.7479 51.6347
21.9297 65.2892
22.1115 55.8646
22.2933 49.026
22.4753 47.4042
22.6572 47.6626
22.8393 51.2438
23.0214 57.4924
23.2037 47.7868
23.3859 49.2349
23.5682 57.1998
23.7505 48.2066
23.9329 44.2119
24.1154 43.0447
24.2979 42.3106
24.4805 41.9791
24.6631 42.0716
24.8458 41.0975
25.0286 41.991
25.2114 44.003
25.3943 44.3293
25.5773 40.1704
25.7605 39.6637
25.9436 40.0898
26.1268 41.209
26.31 39.3594
26.4933 39.9124
26.6767 41.8786
26.8601 40.0087
27.0437 38.2003
27.2272 37.7593
27.4109 37.8203
27.5946 37.7351
27.7784 37.142
27.9623 37.921
28.1462 38.59
28.3304 36.8151
28.5145 35.3879
28.6987 34.968
28.8829 34.7091
29.0673 34.0644
29.2517 33.6536
29.4361 33.6095
29.6207 32.4557
29.8053 32.2597
29.99 31.8193
30.1748 31.8351
30.3597 31.6279
30.5447 31.6446
30.7297 31.752
30.915 31.1592
31.1002 30.6548
31.2855 30.4584
31.4708 30.3665
31.6563 29.9561
31.8418 29.683
32.0275 29.6361
32.2132 28.8883
32.399 28.4301
32.5848 27.99
32.7708 27.6745
32.9569 27.612
33.143 27.3652
33.3293 27.0071
33.5158 26.5607
33.7022 26.186
33.8887 25.8315
34.0753 25.5242
34.262 25.2271
34.4488 24.7824
34.6357 24.5465
34.8227 24.2874
35.0098 24.0597
35.1969 23.7804
35.3842 23.6422
35.5716 23.3381
35.759 23.1266
35.9468 22.821
36.1345 22.5179
36.3222 22.2721
36.5101 22.0882
36.6981 21.8077
36.8861 21.4452
37.0743 21.1549
37.2626 20.9015
37.451 20.6031
37.6395 20.4572
37.8281 20.165
38.0168 19.9062
38.2056 19.5697
38.3945 19.3478
38.5837 19.1583
38.7728 18.9
38.9621 18.6257
39.1514 18.4375
39.3409 18.1834
39.5304 17.8995
39.7201 17.7033
39.9099 17.5927
40.0999 17.2712
40.2899 17.1394
40.48 16.7783
40.6703 16.6779
40.8607 16.5112
41.0512 16.2435
41.242 16.0047
41.4327 15.8319
41.6236 15.5083
41.8146 15.3709
42.0057 15.1882
42.1969 14.9504
42.3882 14.8045
42.5797 14.5999
42.7713 14.366
42.963 14.1869
43.1549 13.9946
43.3468 13.767
43.5389 13.6114
43.7312 13.3965
43.9237 13.2125
44.1162 13.0842
44.3088 12.8503
44.5016 12.674
44.6945 12.495
44.8875 12.3453
45.0806 12.1883
45.2739 11.9752
45.4673 11.8366
45.6609 11.6564
45.8546 11.5042
46.0484 11.3322
46.2424 11.214
46.4365 10.9942
46.631 10.8083
46.8254 10.7212
47.0199 10.5389
47.2146 10.3935
47.4095 10.2516
47.6044 10.032
47.7996 9.90834
47.9948 9.75957
48.1902 9.64414
48.3858 9.50715
48.5815 9.36535
48.7774 9.23695
48.9734 9.08563
49.1696 8.9242
49.3661 8.82804
49.5626 8.65772
49.7592 8.54803
49.956 8.42289
50.153 8.28691
50.3501 8.16794
50.5474 8.05587
50.7448 7.9515
50.9424 7.77904
51.1402 7.66569
51.3381 7.56023
51.5362 7.43976
51.7344 7.30864
51.9328 7.14498
52.1316 7.07635
52.3304 6.92481
52.5293 6.83067
52.7284 6.70274
52.9276 6.60853
53.1271 6.51085
53.3267 6.41626
53.5265 6.29125
53.7264 6.17037
53.9266 6.09465
54.1269 5.90743
54.3274 5.80595
54.528 5.68474
54.7289 5.57756
54.9301 5.38479
55.1314 5.2476
55.3328 5.06136
55.5344 4.89766
55.7361 4.71895

File: Ni3Fe_FD1045.xy
TT I
1.27165 6.88669
1.45013 6.02318
1.62863 4.6805
1.80712 4.20807
1.98562 4.33293
2.16411 4.28451
2.34263 4.48589
2.52115 7.22624
2.69965 8.34957
2.87818 9.14885
3.05672 10.9293
3.23527 14.4884
3.4138 18.2795
3.59237 21.1949
3.77094 24.5918
3.9495 28.1609
4.12809 32.4971
4.30669 57.233
4.4853 46.0125
4.6639 52.1527
4.84253 63.9047
5.02118 82.8934
5.19981 232.266
5.37848 214.157
5.55716 97.3361
5.73586 87.7867
5.91455 88.7168
6.09328 4597.5
6.27201 75.8619
6.45075 63.246
6.62952 57.8143
6.8083 54.3852
6.98711 52.5209
7.16591 51.5681
7.34475 56.1749
7.5236 59.2421
7.70247 53.1329
7.88135 55.0652
8.06026 58.8872
8.23919 65.7638
8.41812 77.6421
8.59709 1082.73
8.77609 94.748
8.9551 82.0632
9.13412 79.0282
9.31318 89.6828
9.49226 80.7209
9.67134 85.9007
9.85047 93.5859
10.0296 346.388
10.2088 439.927
10.388 97.615
10.5672 504.228
10.7465 86.6893
10.9257 73.4784
11.105 68.1629
11.2844 64.6346
11.4637 61.727
11.6431 60.5686
11.8225 59.5793
12.002 66.9639
12.1814 146.512
12.3609 64.5752
12.5405 61.424
12.72 63.839
12.8996 67.4596
13.0792 76.4505
13.2589 226.849
13.4386 126.988
13.6183 235.761
13.7981 100.32
13.9779 73.0574
14.1577 75.6609
14.3376 67.145
14.5175 66.1599
14.6974 67.1575
14.8774 109.118
15.0574 161.181
15.2374 66.4155
15.4175 63.9583
15.5976 63.0494
15.7778 93.9311
15.958 168.174
16.1382 60.0133
16.3185 55.5778
16.4988 53.4561
16.6792 52.4718
16.8596 52.7324
17.04 53.6128
17.2205 64.6677
17.401 71.9655
17.5815 57.1634
17.7622 59.9797
17.9428 73.2148
18.1237 141.976
18.3044 88.8884
18.4852 79.2487
18.666 58.6972
18.8469 56.3957
19.0278 55.0655
19.2088 58.0115
19.3898 76.1576
19.5709 53.0228
19.752 51.7133
19.9332 54.7592
20.1144 70.2314
20.2957 63.4404
20.477 52.873
20.6586 48.0726
20.84 47.9458
21.0215 47.3461
21.203 49.487
21.3846 47.8443
21.5662 47.45
21.7479 51.601
21.9297 65.0754
22.1115 55.8233
22.2933 49.1096
22.4753 47.5155
22.6572 47.6355
22.8393 51.0505
23.0214 57.2501
23.2037 47.7534
23.3859 49.2596
23.5682 57.145
23.7505 48.1158
23.9329 44.1718
24.1154 43.1385
24.2979 42.4153
24.4805 41.9447
24.6631 41.7863
24.8458 41.351
25.0286 41.9153
25.2114 44.322
25.3943 44.2861
25.5773 40.0563
25.7605 39.6334
25.9436 40.1163
26.1268 41.0965
26.31 39.2687
26.4933 40.0034
26.6767 41.8727
26.8601 39.8471
27.0437 38.2341
27.2272 37.8914
27.4109 37.607
27.5946 37.8676
27.7784 37.2562
27.9623 37.9996
28.1462 38.5977
28.3304 36.7912
28.5145 35.2888
28.6987 35.1629
28.8829 34.8042
29.0673 34.1628
29.2517 33.5846
29.4361 33.6032
29.6207 32.5836
29.8053 32.051
29.99 31.9129
30.1748 31.7831
30.3597 31.6197
30.5447 31.6631
30.7297 31.7791
30.915 31.1908
31.1002 30.6552
31.2855 30.4195
31.4708 30.2805
31.6563 29.9671
31.8418 29.7261
32.0275 29.5286
32.2132 28.9991
32.399 28.4515
32.5848 27.9136
32.7708 27.6913
32.9569 27.5093
33.143 27.3702
33.3293 27.0138
33.5158 26.569
33.7022 26.1501
33.8887 25.8902
34.0753 25.5397
34.262 25.2173
34.4488 24.8635
34.6357 24.6111
34.8227 24.3076
35.0098 24.0319
35.1969 23.7257
35.3842 23.5897
35.5716 23.4533
35.759 23.1369
35.9468 22.7347
36.1345 22.5073
36.3222 22.2936
36.5101 22.1191
36.6981 21.799
36.8861 21.4547
37.0743 21.2556
37.2626 20.9997
37.451 20.6585
37.6395 20.4723
37.8281 20.1614
38.0168 19.8981
38.2056 19.6309
38.3945 19.3391
38.5837 19.0969
38.7728 18.884
38.9621 18.6443
39.1514 18.3413
39.3409 18.1379
39.5304 17.935
39.7201 17.7371
39.9099 17.5878
40.0999 17.3017
40.2899 17.1004
40.48 16.8107
40.6703 16.728
40.8607 16.4369
41.0512 16.3193
41.242 16.0115
41.4327 15.7977
41.6236 15.5778
41.8146 15.4129
42.0057 15.1115
42.1969 15.0024
42.3882 14.821
42.5797 14.5795
42.7713 14.4001
42.963 14.1838
43.1549 14.0378
43.3468 13.7838
43.5389 13.6181
43.7312 13.4106
43.9237 13.2381
44.1162 13.0636
44.3088 12.8425
44.5016 12.6607
44.6945 12.5362
44.8875 12.3573
45.0806 12.1459
45.2739 11.9629
45.4673 11.8615
45.6609 11.6402
45.8546 11.5079
46.0484 11.3247
46.2424 11.2142
46.4365 11.0133
46.631 10.8424
46.8254 10.728
47.0199 10.4963
47.2146 10.3962
47.4095 10.2024
47.6044 10.0533
47.7996 9.95551
47.9948 9.76184
48.1902 9.63064
48.3858 9.5319
48.5815 9.35704
48.7774 9.22909
48.9734 9.06747
49.1696 8.96484
49.3661 8.81713
49.5626 8.65157
49.7592 8.54947
49.956 8.43161
50.153 8.28893
50.3501 8.17913
50.5474 8.04557
50.7448 7.93588
50.9424 7.77587
51.1402 7.69356
51.3381 7.55748
51.5362 7.42614
51.7344 7.29396
51.9328 7.15455
52.1316 7.05212
52.3304 6.91149
52.5293 6.8164
52.7284 6.7452
52.9276 6.63909
53.1271 6.54212
53.3267 6.42493
53.5265 6.25875
53.7264 6.17306
53.9266 6.05386
54.1269 5.93658
54.3274 5.85087
54.528 5.70063
54.7289 5.58125
54.9301 5.40714
55.1314 5.26073
55.3328 5.06883
55.5344 4.89999
55.7361 4.76708