Folder: NiFe_MOF_catalyst_paper/XRD (part 98)

File: Ni3Fe_FD0530.xy
TT I
1.27165 7.12959
1.45013 6.05274
1.62863 4.62404
1.80712 4.68757
1.98562 4.5948
2.16411 4.48826
2.34263 5.17223
2.52115 6.76037
2.69965 7.82636
2.87818 8.97587
3.05672 11.1677
3.23527 15.1832
3.4138 19.2976
3.59237 24.8818
3.77094 26.5558
3.9495 29.95
4.12809 35.4932
4.30669 274.371
4.4853 71.7523
4.6639 55.7962
4.84253 67.4882
5.02118 87.4828
5.19981 371.795
5.37848 206.164
5.55716 103.19
5.73586 93.0265
5.91455 94.9759
6.09328 4091.81
6.27201 85.7789
6.45075 68.428
6.62952 64.1148
6.8083 59.6468
6.98711 56.8497
7.16591 56.3987
7.34475 104.599
7.5236 55.6144
7.70247 56.803
7.88135 58.4865
8.06026 62.6937
8.23919 70.4808
8.41812 86.9038
8.59709 1098.01
8.77609 102.33
8.9551 94.441
9.13412 82.8856
9.31318 82.9855
9.49226 85.0567
9.67134 102.111
9.85047 100.378
10.0296 332.333
10.2088 467.786
10.388 106.519
10.5672 494.358
10.7465 87.9456
10.9257 79.798
11.105 72.6645
11.2844 72.2256
11.4637 65.8644
11.6431 64.4484
11.8225 63.1757
12.002 63.9828
12.1814 146.938
12.3609 73.5335
12.5405 65.429
12.72 71.8847
12.8996 71.7126
13.0792 79.2638
13.2589 226.121
13.4386 132.842
13.6183 234.091
13.7981 103.468
13.9779 76.5752
14.1577 73.5168
14.3376 73.0148
14.5175 69.4702
14.6974 71.1868
14.8774 108.471
15.0574 159.179
15.2374 72.6638
15.4175 67.1239
15.5976 66.5598
15.7778 93.7642
15.958 165.02
16.1382 64.1634
16.3185 59.712
16.4988 56.0866
16.6792 55.3575
16.8596 56.0942
17.04 56.3875
17.2205 66.4728
17.401 73.5819
17.5815 59.7094
17.7622 61.8474
17.9428 73.7405
18.1237 137.897
18.3044 89.5962
18.4852 81.5146
18.666 61.1732
18.8469 58.7594
19.0278 57.5624
19.2088 60.0561
19.3898 76.8603
19.5709 55.0905
19.752 53.7544
19.9332 56.7061
20.1144 70.3872
20.2957 63.812
20.477 54.9137
20.6586 50.217
20.84 49.3351
21.0215 48.9567
21.203 51.217
21.3846 49.6183
21.5662 49.4101
21.7479 52.9083
21.9297 65.0098
22.1115 56.6215
22.2933 50.6208
22.4753 49.4907
22.6572 49.2537
22.8393 52.3218
23.0214 58.3983
23.2037 49.3526
23.3859 50.1075
23.5682 57.0137
23.7505 49.2701
23.9329 45.9266
24.1154 44.5808
24.2979 44.0375
24.4805 43.3264
24.6631 43.3009
24.8458 42.7307
25.0286 43.1895
25.2114 45.1308
25.3943 45.2606
25.5773 41.4187
25.7605 40.8718
25.9436 41.3004
26.1268 42.2049
26.31 40.6278
26.4933 41.0668
26.6767 42.6305
26.8601 40.9409
27.0437 39.3694
27.2272 38.9756
27.4109 38.8208
27.5946 38.816
27.7784 38.3598
27.9623 38.6907
28.1462 39.2616
28.3304 37.7081
28.5145 36.4854
28.6987 36.0446
28.8829 35.8719
29.0673 35.1192
29.2517 34.7918
29.4361 34.6018
29.6207 33.6012
29.8053 33.2769
29.99 32.9668
30.1748 32.8948
30.3597 32.5801
30.5447 32.5653
30.7297 32.6082
30.915 31.965
31.1002 31.495
31.2855 31.1798
31.4708 31.1926
31.6563 30.6955
31.8418 30.455
32.0275 30.3116
32.2132 29.6952
32.399 29.3069
32.5848 28.8583
32.7708 28.4877
32.9569 28.3515
33.143 28.0891
33.3293 27.732
33.5158 27.4048
33.7022 26.9429
33.8887 26.5734
34.0753 26.2396
34.262 25.8798
34.4488 25.5551
34.6357 25.3225
34.8227 25.0223
35.0098 24.8126
35.1969 24.4623
35.3842 24.2095
35.5716 24.0799
35.759 23.7902
35.9468 23.4379
36.1345 23.0772
36.3222 22.9231
36.5101 22.6444
36.6981 22.3792
36.8861 22.0543
37.0743 21.8071
37.2626 21.5431
37.451 21.2563
37.6395 21.0902
37.8281 20.8124
38.0168 20.4612
38.2056 20.2167
38.3945 19.9305
38.5837 19.7178
38.7728 19.4644
38.9621 19.2352
39.1514 18.9699
39.3409 18.6816
39.5304 18.503
39.7201 18.3319
39.9099 18.0538
40.0999 17.804
40.2899 17.5757
40.48 17.3394
40.6703 17.174
40.8607 17.0104
41.0512 16.718
41.242 16.4882
41.4327 16.2515
41.6236 16.0262
41.8146 15.9008
42.0057 15.6645
42.1969 15.4334
42.3882 15.2311
42.5797 15.0594
42.7713 14.7297
42.963 14.6406
43.1549 14.3771
43.3468 14.2072
43.5389 14.0091
43.7312 13.8334
43.9237 13.5981
44.1162 13.4256
44.3088 13.2794
44.5016 13.0326
44.6945 12.9602
44.8875 12.7029
45.0806 12.5499
45.2739 12.3602
45.4673 12.1916
45.6609 12.0271
45.8546 11.8773
46.0484 11.7052
46.2424 11.5072
46.4365 11.3525
46.631 11.1232
46.8254 10.9762
47.0199 10.8501
47.2146 10.6901
47.4095 10.5117
47.6044 10.3551
47.7996 10.2193
47.9948 10.045
48.1902 9.90685
48.3858 9.8182
48.5815 9.65417
48.7774 9.51031
48.9734 9.33725
49.1696 9.22909
49.3661 9.08587
49.5626 8.93728
49.7592 8.81762
49.956 8.73855
50.153 8.54351
50.3501 8.37869
50.5474 8.31479
50.7448 8.16064
50.9424 8.02333
51.1402 7.92941
51.3381 7.77358
51.5362 7.66598
51.7344 7.54448
51.9328 7.40447
52.1316 7.28048
52.3304 7.15997
52.5293 7.0411
52.7284 6.93203
52.9276 6.79112
53.1271 6.71312
53.3267 6.57394
53.5265 6.44477
53.7264 6.34054
53.9266 6.25756
54.1269 6.18286
54.3274 6.06543
54.528 5.91366
54.7289 5.66835
54.9301 5.53584
55.1314 5.41587
55.3328 5.18291
55.5344 5.03516
55.7361 4.8738

File: Ni3Fe_FD0532.xy
TT I
1.27165 7.762
1.45013 6.30243
1.62863 5.56934
1.80712 4.74562
1.98562 4.9321
2.16411 4.84268
2.34263 4.83698
2.52115 6.10388
2.69965 7.21769
2.87818 8.43093
3.05672 10.9218
3.23527 15.2263
3.4138 18.7383
3.59237 24.472
3.77094 26.2387
3.9495 29.9647
4.12809 35.7155
4.30669 279.353
4.4853 71.7598
4.6639 56.015
4.84253 67.1778
5.02118 87.291
5.19981 370.412
5.37848 206.413
5.55716 103.418
5.73586 92.9046
5.91455 95.1193
6.09328 4081.79
6.27201 85.6865
6.45075 68.4353
6.62952 63.9492
6.8083 59.7376
6.98711 56.4759
7.16591 56.4785
7.34475 105.545
7.5236 55.8104
7.70247 57.0459
7.88135 58.612
8.06026 62.9713
8.23919 70.3151
8.41812 86.4086
8.59709 1097.5
8.77609 102.06
8.9551 94.5137
9.13412 82.7717
9.31318 82.918
9.49226 85.2854
9.67134 102.007
9.85047 101.0
10.0296 331.561
10.2088 467.29
10.388 106.29
10.5672 493.191
10.7465 87.68
10.9257 79.8681
11.105 72.7435
11.2844 72.2425
11.4637 65.5823
11.6431 64.5415
11.8225 63.1589
12.002 64.0066
12.1814 146.945
12.3609 73.7435
12.5405 65.325
12.72 72.1483
12.8996 71.7393
13.0792 79.6604
13.2589 225.451
13.4386 131.968
13.6183 233.817
13.7981 103.409
13.9779 76.6143
14.1577 73.5293
14.3376 73.2544
14.5175 69.4368
14.6974 71.2633
14.8774 108.355
15.0574 160.191
15.2374 72.711
15.4175 67.3088
15.5976 66.6429
15.7778 93.791
15.958 164.764
16.1382 64.3234
16.3185 59.7514
16.4988 56.2481
16.6792 55.2295
16.8596 56.0254
17.04 56.4701
17.2205 66.6025
17.401 73.6832
17.5815 59.9541
17.7622 61.9731
17.9428 73.8561
18.1237 138.146
18.3044 89.7759
18.4852 81.5014
18.666 61.3767
18.8469 58.7152
19.0278 57.7506
19.2088 60.1872
19.3898 77.3162
19.5709 55.0608
19.752 53.9622
19.9332 56.5947
20.1144 70.2326
20.2957 63.8135
20.477 54.7691
20.6586 50.2226
20.84 49.4953
21.0215 49.1351
21.203 51.3039
21.3846 49.7495
21.5662 49.233
21.7479 52.862
21.9297 65.0319
22.1115 56.3859
22.2933 50.733
22.4753 49.4642
22.6572 49.3571
22.8393 52.147
23.0214 58.5292
23.2037 49.3927
23.3859 50.1602
23.5682 56.8933
23.7505 49.2993
23.9329 45.8828
24.1154 44.6957
24.2979 43.8411
24.4805 43.3987
24.6631 43.3326
24.8458 42.7147
25.0286 43.2965
25.2114 45.0277
25.3943 45.2305
25.5773 41.375
25.7605 40.8507
25.9436 41.1787
26.1268 42.1318
26.31 40.6225
26.4933 41.2115
26.6767 42.6402
26.8601 41.0015
27.0437 39.3992
27.2272 38.9995
27.4109 38.8245
27.5946 38.7752
27.7784 38.2772
27.9623 38.7762
28.1462 39.2613
28.3304 37.7413
28.5145 36.4116
28.6987 36.066
28.8829 35.8551
29.0673 35.1074
29.2517 34.761
29.4361 34.5606
29.6207 33.5374
29.8053 33.2144
29.99 32.9682
30.1748 32.8664
30.3597 32.6932
30.5447 32.592
30.7297 32.5508
30.915 32.0634
31.1002 31.5562
31.2855 31.232
31.4708 31.1526
31.6563 30.7336
31.8418 30.4735
32.0275 30.2584
32.2132 29.7683
32.399 29.2748
32.5848 28.8119
32.7708 28.5057
32.9569 28.3219
33.143 28.1132
33.3293 27.7283
33.5158 27.4216
33.7022 26.9117
33.8887 26.6942
34.0753 26.3031
34.262 25.9486
34.4488 25.6226
34.6357 25.3302
34.8227 25.0245
35.0098 24.8083
35.1969 24.5175
35.3842 24.2391
35.5716 24.1089
35.759 23.7843
35.9468 23.4351
36.1345 23.2517
36.3222 22.9347
36.5101 22.708
36.6981 22.4069
36.8861 22.1244
37.0743 21.7928
37.2626 21.5636
37.451 21.3073
37.6395 21.0449
37.8281 20.7451
38.0168 20.5235
38.2056 20.1547
38.3945 19.937
38.5837 19.656
38.7728 19.4317
38.9621 19.1997
39.1514 18.9517
39.3409 18.6779
39.5304 18.5013
39.7201 18.2855
39.9099 18.0782
40.0999 17.8618
40.2899 17.6598
40.48 17.3433
40.6703 17.15
40.8607 16.9634
41.0512 16.7473
41.242 16.4549
41.4327 16.2353
41.6236 16.0624
41.8146 15.9092
42.0057 15.6502
42.1969 15.4368
42.3882 15.2807
42.5797 15.0453
42.7713 14.8437
42.963 14.6407
43.1549 14.4097
43.3468 14.2232
43.5389 14.0321
43.7312 13.8422
43.9237 13.6337
44.1162 13.4636
44.3088 13.2491
44.5016 13.0255
44.6945 12.8768
44.8875 12.733
45.0806 12.5419
45.2739 12.3596
45.4673 12.2269
45.6609 11.9976
45.8546 11.858
46.0484 11.705
46.2424 11.5087
46.4365 11.3515
46.631 11.1865
46.8254 11.0262
47.0199 10.8425
47.2146 10.6847
47.4095 10.5458
47.6044 10.3863
47.7996 10.2259
47.9948 10.0921
48.1902 9.93992
48.3858 9.76559
48.5815 9.62684
48.7774 9.50775
48.9734 9.37809
49.1696 9.21397
49.3661 9.0895
49.5626 8.89901
49.7592 8.83211
49.956 8.71257
50.153 8.56225
50.3501 8.40543
50.5474 8.28636
50.7448 8.14862
50.9424 8.05203
51.1402 7.89525
51.3381 7.78548
51.5362 7.65843
51.7344 7.5199
51.9328 7.38046
52.1316 7.25848
52.3304 7.15824
52.5293 7.05854
52.7284 6.93591
52.9276 6.81087
53.1271 6.68541
53.3267 6.59675
53.5265 6.46388
53.7264 6.39986
53.9266 6.26827
54.1269 6.17394
54.3274 6.04912
54.528 5.87351
54.7289 5.72693
54.9301 5.54907
55.1314 5.39432
55.3328 5.17893
55.5344 5.04541
55.7361 4.90997

File: Ni3Fe_FD0533.xy
TT I
1.27165 7.75501
1.45013 5.84309
1.62863 5.37625
1.80712 5.30229
1.98562 4.73832
2.16411 5.08371
2.34263 5.54489
2.52115 6.70474
2.69965 7.42127
2.87818 8.06996
3.05672 11.191
3.23527 15.0418
3.4138 18.7649
3.59237 24.8245
3.77094 26.178
3.9495 30.1625
4.12809 35.4586
4.30669 279.486
4.4853 72.0624
4.6639 55.674
4.84253 67.9073
5.02118 87.7167
5.19981 371.355
5.37848 206.515
5.55716 103.714
5.73586 92.7706
5.91455 95.089
6.09328 4108.49
6.27201 85.8321
6.45075 68.5347
6.62952 63.863
6.8083 59.7913
6.98711 57.1693
7.16591 56.4071
7.34475 105.582
7.5236 55.5839
7.70247 56.8924
7.88135 58.523
8.06026 62.9904
8.23919 70.0925
8.41812 86.7185
8.59709 1099.45
8.77609 102.155
8.9551 94.7326
9.13412 83.0433
9.31318 83.3012
9.49226 85.3473
9.67134 102.418
9.85047 101.268
10.0296 332.251
10.2088 464.683
10.388 106.577
10.5672 494.499
10.7465 87.9157
10.9257 79.7607
11.105 72.9292
11.2844 72.5687
11.4637 65.8645
11.6431 64.6387
11.8225 63.0577
12.002 64.462
12.1814 146.832
12.3609 73.5455
12.5405 65.4754
12.72 72.1183
12.8996 71.8235
13.0792 79.4509
13.2589 225.035
13.4386 132.02
13.6183 233.208
13.7981 103.245
13.9779 76.7973
14.1577 73.7057
14.3376 73.303
14.5175 69.4192
14.6974 71.042
14.8774 108.425
15.0574 160.083
15.2374 72.8093
15.4175 67.2573
15.5976 66.5539
15.7778 93.7059
15.958 164.423
16.1382 64.3278
16.3185 59.831
16.4988 56.4085
16.6792 55.3648
16.8596 56.2185
17.04 56.4922
17.2205 66.3453
17.401 73.7157
17.5815 59.7302
17.7622 61.7957
17.9428 74.0789
18.1237 137.845
18.3044 89.6568
18.4852 81.1083
18.666 61.0761
18.8469 58.7267
19.0278 57.6766
19.2088 60.1526
19.3898 77.0667
19.5709 55.1628
19.752 53.7632
19.9332 56.7508
20.1144 70.5694
20.2957 63.7217
20.477 54.9269
20.6586 50.4256
20.84 49.5508
21.0215 49.2424
21.203 51.2699
21.3846 49.7539
21.5662 49.2884
21.7479 52.851
21.9297 64.9182
22.1115 56.2963
22.2933 50.6905
22.4753 49.6083
22.6572 49.3936
22.8393 52.2369
23.0214 58.3274
23.2037 49.5055
23.3859 50.0184
23.5682 56.9064
23.7505 49.1394
23.9329 45.7947
24.1154 44.7644
24.2979 43.8655
24.4805 43.5504
24.6631 43.3734
24.8458 42.7662
25.0286 43.2537
25.2114 45.0532
25.3943 45.2982
25.5773 41.4653
25.7605 41.0063
25.9436 41.1869
26.1268 42.2554
26.31 40.5912
26.4933 41.1801
26.6767 42.5579
26.8601 40.9355
27.0437 39.2814
27.2272 38.9958
27.4109 38.7838
27.5946 38.7411
27.7784 38.2985
27.9623 38.6336
28.1462 39.4283
28.3304 37.7089
28.5145 36.3476
28.6987 36.0619
28.8829 35.9547
29.0673 35.0442
29.2517 34.7408
29.4361 34.5379
29.6207 33.6461
29.8053 33.24
29.99 32.9209
30.1748 32.8255
30.3597 32.6962
30.5447 32.4396
30.7297 32.5505
30.915 31.9606
31.1002 31.4912
31.2855 31.2123
31.4708 31.0742
31.6563 30.7438
31.8418 30.3778
32.0275 30.1932
32.2132 29.7336
32.399 29.2449
32.5848 28.8308
32.7708 28.4069
32.9569 28.2786
33.143 28.153
33.3293 27.6864
33.5158 27.3997
33.7022 26.9595
33.8887 26.6073
34.0753 26.2644
34.262 25.8918
34.4488 25.643
34.6357 25.3183
34.8227 24.987
35.0098 24.8
35.1969 24.49
35.3842 24.2713
35.5716 24.0689
35.759 23.7245
35.9468 23.3913
36.1345 23.0969
36.3222 22.9202
36.5101 22.7109
36.6981 22.4306
36.8861 22.0595
37.0743 21.7915
37.2626 21.5746
37.451 21.2215
37.6395 21.1166
37.8281 20.6903
38.0168 20.4476
38.2056 20.164
38.3945 19.9545
38.5837 19.6398
38.7728 19.4457
38.9621 19.1706
39.1514 18.9867
39.3409 18.6758
39.5304 18.5345
39.7201 18.2741
39.9099 18.0873
40.0999 17.8076
40.2899 17.6153
40.48 17.3557
40.6703 17.1381
40.8607 16.9159
41.0512 16.7467
41.242 16.5226
41.4327 16.2421
41.6236 16.0142
41.8146 15.8245
42.0057 15.6365
42.1969 15.399
42.3882 15.2862
42.5797 15.0024
42.7713 14.8403
42.963 14.6241
43.1549 14.3968
43.3468 14.1918
43.5389 14.0168
43.7312 13.8102
43.9237 13.6703
44.1162 13.4307
44.3088 13.243
44.5016 13.0481
44.6945 12.9099
44.8875 12.7176
45.0806 12.559
45.2739 12.3397
45.4673 12.2013
45.6609 11.9792
45.8546 11.8111
46.0484 11.7109
46.2424 11.5421
46.4365 11.3254
46.631 11.1519
46.8254 11.0051
47.0199 10.885
47.2146 10.7031
47.4095 10.5208
47.6044 10.3638
47.7996 10.239
47.9948 10.0892
48.1902 9.9193
48.3858 9.79008
48.5815 9.66569
48.7774 9.51838
48.9734 9.38054
49.1696 9.19304
49.3661 9.10826
49.5626 8.92724
49.7592 8.82566
49.956 8.66432
50.153 8.54305
50.3501 8.42212
50.5474 8.28734
50.7448 8.13468
50.9424 8.02137
51.1402 7.89265
51.3381 7.76386
51.5362 7.63764
51.7344 7.52238
51.9328 7.38014
52.1316 7.25991
52.3304 7.14626
52.5293 7.04234
52.7284 6.90188
52.9276 6.81027
53.1271 6.66991
53.3267 6.59975
53.5265 6.48618
53.7264 6.35787
53.9266 6.24629
54.1269 6.12723
54.3274 6.03435
54.528 5.84956
54.7289 5.7118
54.9301 5.56253
55.1314 5.42538
55.3328 5.2084
55.5344 4.98367
55.7361 4.82167

File: Ni3Fe_FD0534.xy
TT I
1.27165 7.53036
1.45013 6.60017
1.62863 5.73599
1.80712 4.9794
1.98562 4.7408
2.16411 5.2207
2.34263 5.34867
2.52115 6.57476
2.69965 7.93084
2.87818 9.22614
3.05672 10.891
3.23527 15.2873
3.4138 18.8959
3.59237 24.7805
3.77094 26.5717
3.9495 30.2257
4.12809 35.4948
4.30669 283.343
4.4853 72.5295
4.6639 55.8484
4.84253 67.7008
5.02118 87.2898
5.19981 370.609
5.37848 206.505
5.55716 103.303
5.73586 93.4721
5.91455 94.9062
6.09328 4086.9
6.27201 85.7783
6.45075 68.3384
6.62952 63.8955
6.8083 59.4995
6.98711 56.6383
7.16591 56.4655
7.34475 106.242
7.5236 55.7975
7.70247 57.2889
7.88135 58.6312
8.06026 62.8414
8.23919 70.4479
8.41812 86.5736
8.59709 1097.84
8.77609 102.269
8.9551 94.769
9.13412 82.3881
9.31318 83.1502
9.49226 84.9628
9.67134 102.412
9.85047 100.761
10.0296 332.456
10.2088 468.168
10.388 106.704
10.5672 494.443
10.7465 88.0351
10.9257 80.0582
11.105 73.0211
11.2844 72.4163
11.4637 65.6627
11.6431 64.6828
11.8225 63.0375
12.002 64.534
12.1814 147.998
12.3609 73.8269
12.5405 65.1897
12.72 72.3868
12.8996 71.6978
13.0792 79.5402
13.2589 225.395
13.4386 132.25
13.6183 231.883
13.7981 103.448
13.9779 76.6203
14.1577 73.6299
14.3376 73.2552
14.5175 69.6417
14.6974 71.3231
14.8774 107.985
15.0574 160.706
15.2374 72.9905
15.4175 67.2381
15.5976 66.3971
15.7778 93.6769
15.958 165.197
16.1382 64.4426
16.3185 59.726
16.4988 56.3119
16.6792 55.192
16.8596 56.1346
17.04 56.6668
17.2205 66.4661
17.401 73.9451
17.5815 59.8839
17.7622 61.9068
17.9428 73.8367
18.1237 137.832
18.3044 89.4235
18.4852 81.4815
18.666 61.0383
18.8469 58.6378
19.0278 57.7255
19.2088 60.064
19.3898 76.9429
19.5709 55.1464
19.752 53.9963
19.9332 56.6323
20.1144 70.4991
20.2957 63.5709
20.477 54.93
20.6586 50.2521
20.84 49.48
21.0215 49.1327
21.203 51.2216
21.3846 49.7141
21.5662 49.4939
21.7479 52.9622
21.9297 65.2228
22.1115 56.3926
22.2933 50.6407
22.4753 49.5544
22.6572 49.4544
22.8393 52.362
23.0214 58.3781
23.2037 49.4928
23.3859 50.2551
23.5682 56.9781
23.7505 49.1884
23.9329 45.7836
24.1154 44.6582
24.2979 43.9677
24.4805 43.4491
24.6631 43.3036
24.8458 42.7215
25.0286 43.2617
25.2114 45.0913
25.3943 45.2516
25.5773 41.3684
25.7605 40.9612
25.9436 41.3315
26.1268 42.1564
26.31 40.7232
26.4933 41.0691
26.6767 42.6195
26.8601 40.9052
27.0437 39.3543
27.2272 38.9265
27.4109 38.8432
27.5946 38.7397
27.7784 38.3812
27.9623 38.7264
28.1462 39.294
28.3304 37.705
28.5145 36.4922
28.6987 36.0605
28.8829 35.8582
29.0673 35.1229
29.2517 34.7996
29.4361 34.612
29.6207 33.6228
29.8053 33.3943
29.99 32.9252
30.1748 32.8478
30.3597 32.7136
30.5447 32.4763
30.7297 32.6296
30.915 32.053
31.1002 31.4901
31.2855 31.3086
31.4708 31.2028
31.6563 30.7676
31.8418 30.4521
32.0275 30.3532
32.2132 29.8011
32.399 29.2768
32.5848 28.7398
32.7708 28.4954
32.9569 28.3701
33.143 28.1083
33.3293 27.7467
33.5158 27.3798
33.7022 26.9478
33.8887 26.7033
34.0753 26.3188
34.262 25.9629
34.4488 25.6371
34.6357 25.2637
34.8227 24.9693
35.0098 24.8528
35.1969 24.5711
35.3842 24.3756
35.5716 24.1344
35.759 23.7769
35.9468 23.427
36.1345 23.2344
36.3222 22.983
36.5101 22.7348
36.6981 22.4004
36.8861 22.0604
37.0743 21.8333
37.2626 21.5276
37.451 21.2671
37.6395 21.1307
37.8281 20.7388
38.0168 20.434
38.2056 20.2431
38.3945 19.9295
38.5837 19.705
38.7728 19.471
38.9621 19.1955
39.1514 18.9636
39.3409 18.7316
39.5304 18.4963
39.7201 18.3018
39.9099 18.1372
40.0999 17.8346
40.2899 17.5771
40.48 17.368
40.6703 17.1583
40.8607 16.9816
41.0512 16.6881
41.242 16.5119
41.4327 16.2594
41.6236 16.0285
41.8146 15.8765
42.0057 15.5897
42.1969 15.4017
42.3882 15.2641
42.5797 15.0363
42.7713 14.7934
42.963 14.6461
43.1549 14.4345
43.3468 14.2389
43.5389 14.0591
43.7312 13.8134
43.9237 13.635
44.1162 13.4539
44.3088 13.2761
44.5016 13.0368
44.6945 12.8858
44.8875 12.7594
45.0806 12.5667
45.2739 12.3542
45.4673 12.2161
45.6609 11.9969
45.8546 11.8246
46.0484 11.7007
46.2424 11.498
46.4365 11.3729
46.631 11.1575
46.8254 10.9856
47.0199 10.8707
47.2146 10.7342
47.4095 10.552
47.6044 10.4053
47.7996 10.1919
47.9948 10.0564
48.1902 9.91483
48.3858 9.79581
48.5815 9.63583
48.7774 9.53688
48.9734 9.3791
49.1696 9.18462
49.3661 9.07154
49.5626 8.96085
49.7592 8.79703
49.956 8.67194
50.153 8.55068
50.3501 8.43497
50.5474 8.28156
50.7448 8.14805
50.9424 8.05612
51.1402 7.87464
51.3381 7.76557
51.5362 7.67473
51.7344 7.51936
51.9328 7.37282
52.1316 7.27894
52.3304 7.21405
52.5293 7.05177
52.7284 6.9345
52.9276 6.8289
53.1271 6.73632
53.3267 6.58094
53.5265 6.4916
53.7264 6.401
53.9266 6.2775
54.1269 6.14088
54.3274 6.0478
54.528 5.88023
54.7289 5.76129
54.9301 5.57844
55.1314 5.45347
55.3328 5.20669
55.5344 5.02105
55.7361 4.88161

File: Ni3Fe_FD0535.xy
TT I
1.27165 7.15978
1.45013 6.36119
1.62863 5.03701
1.80712 4.90711
1.98562 5.10915
2.16411 4.89145
2.34263 5.32651
2.52115 6.28841
2.69965 7.93666
2.87818 8.43381
3.05672 11.1659
3.23527 14.8437
3.4138 19.1783
3.59237 24.8189
3.77094 26.5465
3.9495 29.986
4.12809 35.9856
4.30669 284.552
4.4853 73.0431
4.6639 55.4293
4.84253 67.9237
5.02118 86.9563
5.19981 369.755
5.37848 207.342
5.55716 103.432
5.73586 92.9639
5.91455 94.4631
6.09328 4109.72
6.27201 85.5642
6.45075 68.5098
6.62952 64.2562
6.8083 59.7921
6.98711 56.8384
7.16591 56.4313
7.34475 106.699
7.5236 55.8867
7.70247 57.1838
7.88135 58.5827
8.06026 62.7499
8.23919 70.2956
8.41812 86.5432
8.59709 1089.85
8.77609 102.084
8.9551 94.8663
9.13412 82.5508
9.31318 83.2112
9.49226 85.1922
9.67134 102.627
9.85047 100.799
10.0296 330.954
10.2088 470.061
10.388 106.539
10.5672 499.269
10.7465 87.6372
10.9257 79.5875
11.105 73.2573
11.2844 72.2392
11.4637 65.8169
11.6431 64.8362
11.8225 63.3154
12.002 64.378
12.1814 147.352
12.3609 73.8945
12.5405 65.4776
12.72 72.0132
12.8996 71.6835
13.0792 79.1303
13.2589 224.264
13.4386 132.705
13.6183 231.653
13.7981 103.2
13.9779 76.575
14.1577 73.5814
14.3376 73.1712
14.5175 69.2587
14.6974 71.1304
14.8774 107.74
15.0574 161.784
15.2374 72.8705
15.4175 67.2243
15.5976 66.465
15.7778 93.4011
15.958 165.635
16.1382 64.3451
16.3185 59.8822
16.4988 56.2365
16.6792 55.1556
16.8596 56.1065
17.04 56.4303
17.2205 66.4475
17.401 73.7805
17.5815 60.0138
17.7622 61.8488
17.9428 73.6715
18.1237 137.832
18.3044 89.2003
18.4852 81.211
18.666 61.3873
18.8469 58.6824
19.0278 57.5935
19.2088 60.2185
19.3898 76.9923
19.5709 55.038
19.752 53.8597
19.9332 56.7684
20.1144 70.3555
20.2957 63.6594
20.477 54.8235
20.6586 50.3564
20.84 49.3343
21.0215 49.333
21.203 51.1793
21.3846 49.6445
21.5662 49.4529
21.7479 52.8553
21.9297 65.1263
22.1115 56.5352
22.2933 50.5872
22.4753 49.7589
22.6572 49.3683
22.8393 52.2307
23.0214 58.3728
23.2037 49.3885
23.3859 50.1304
23.5682 56.7587
23.7505 49.3021
23.9329 45.6665
24.1154 44.6931
24.2979 43.9678
24.4805 43.4002
24.6631 43.3953
24.8458 42.7292
25.0286 43.2255
25.2114 45.1122
25.3943 45.3127
25.5773 41.5029
25.7605 40.987
25.9436 41.3498
26.1268 42.269
26.31 40.5762
26.4933 41.0507
26.6767 42.7154
26.8601 40.8836
27.0437 39.465
27.2272 39.032
27.4109 38.7672
27.5946 38.6976
27.7784 38.2799
27.9623 38.6846
28.1462 39.309
28.3304 37.6424
28.5145 36.4634
28.6987 36.06
28.8829 35.8362
29.0673 35.124
29.2517 34.7325
29.4361 34.5588
29.6207 33.5893
29.8053 33.1923
29.99 32.9888
30.1748 32.7728
30.3597 32.6534
30.5447 32.5632
30.7297 32.5992
30.915 32.099
31.1002 31.4982
31.2855 31.2093
31.4708 31.2255
31.6563 30.7626
31.8418 30.4927
32.0275 30.2664
32.2132 29.7579
32.399 29.2924
32.5848 28.7902
32.7708 28.5104
32.9569 28.4363
33.143 28.1476
33.3293 27.7965
33.5158 27.4144
33.7022 26.8954
33.8887 26.6185
34.0753 26.3158
34.262 25.8789
34.4488 25.598
34.6357 25.3335
34.8227 25.0823
35.0098 24.7346
35.1969 24.5005
35.3842 24.2935
35.5716 24.1696
35.759 23.6989
35.9468 23.3673
36.1345 23.1493
36.3222 22.9113
36.5101 22.7228
36.6981 22.3967
36.8861 22.0667
37.0743 21.7488
37.2626 21.4766
37.451 21.2554
37.6395 21.0943
37.8281 20.7521
38.0168 20.4538
38.2056 20.1657
38.3945 19.8977
38.5837 19.6648
38.7728 19.4312
38.9621 19.1979
39.1514 18.8951
39.3409 18.719
39.5304 18.4463
39.7201 18.284
39.9099 18.0587
40.0999 17.7833
40.2899 17.5585
40.48 17.4125
40.6703 17.1588
40.8607 17.0135
41.0512 16.6969
41.242 16.4607
41.4327 16.2709
41.6236 16.0172
41.8146 15.9151
42.0057 15.6432
42.1969 15.4421
42.3882 15.2358
42.5797 14.9835
42.7713 14.8455
42.963 14.6276
43.1549 14.4199
43.3468 14.208
43.5389 14.0048
43.7312 13.8209
43.9237 13.645
44.1162 13.4383
44.3088 13.235
44.5016 13.0494
44.6945 12.914
44.8875 12.7084
45.0806 12.5274
45.2739 12.3576
45.4673 12.1905
45.6609 11.9612
45.8546 11.8556
46.0484 11.6799
46.2424 11.4948
46.4365 11.3691
46.631 11.1661
46.8254 10.9718
47.0199 10.8276
47.2146 10.7128
47.4095 10.5462
47.6044 10.3771
47.7996 10.2411
47.9948 10.0972
48.1902 9.92603
48.3858 9.81977
48.5815 9.64205
48.7774 9.52791
48.9734 9.36995
49.1696 9.26351
49.3661 9.06315
49.5626 8.91514
49.7592 8.81387
49.956 8.68249
50.153 8.53955
50.3501 8.41573
50.5474 8.32439
50.7448 8.20734
50.9424 8.02167
51.1402 7.90982
51.3381 7.76135
51.5362 7.67105
51.7344 7.52134
51.9328 7.39992
52.1316 7.27206
52.3304 7.16924
52.5293 7.07269
52.7284 6.92936
52.9276 6.84421
53.1271 6.6993
53.3267 6.58394
53.5265 6.45809
53.7264 6.39939
53.9266 6.26118
54.1269 6.11749
54.3274 6.02517
54.528 5.90716
54.7289 5.7516
54.9301 5.5446
55.1314 5.41304
55.3328 5.22663
55.5344 5.01473
55.7361 4.8442