Folder: NiFe_MOF_catalyst_paper/XRD (part 186)

File: Ni3Fe_FD1006.xy
TT I
1.27165 7.23902
1.45013 5.27758
1.62863 4.82568
1.80712 4.48451
1.98562 4.29055
2.16411 4.80719
2.34263 5.80137
2.52115 7.51557
2.69965 9.02383
2.87818 9.30468
3.05672 11.834
3.23527 15.1976
3.4138 18.256
3.59237 23.4942
3.77094 25.8395
3.9495 29.2545
4.12809 33.9858
4.30669 287.101
4.4853 70.2126
4.6639 53.2688
4.84253 63.8299
5.02118 81.4601
5.19981 252.893
5.37848 174.481
5.55716 96.4459
5.73586 87.6652
5.91455 86.996
6.09328 4367.02
6.27201 79.2051
6.45075 64.6641
6.62952 60.3239
6.8083 56.5592
6.98711 53.9693
7.16591 53.485
7.34475 109.527
7.5236 53.0476
7.70247 54.2143
7.88135 55.6908
8.06026 59.4729
8.23919 66.49
8.41812 79.8687
8.59709 990.48
8.77609 95.1387
8.9551 89.6213
9.13412 78.1576
9.31318 78.8435
9.49226 80.5434
9.67134 96.7596
9.85047 94.4741
10.0296 260.234
10.2088 422.571
10.388 100.76
10.5672 509.734
10.7465 82.9207
10.9257 75.1166
11.105 68.9596
11.2844 68.7664
11.4637 62.2175
11.6431 61.1879
11.8225 60.0086
12.002 60.6819
12.1814 143.259
12.3609 71.3349
12.5405 61.6373
12.72 69.4999
12.8996 67.6203
13.0792 74.7498
13.2589 208.493
13.4386 127.644
13.6183 223.274
13.7981 98.4383
13.9779 72.8113
14.1577 70.0245
14.3376 69.4144
14.5175 66.0332
14.6974 67.8132
14.8774 98.3783
15.0574 160.99
15.2374 68.9035
15.4175 63.9741
15.5976 63.2346
15.7778 85.2439
15.958 168.097
16.1382 61.3145
16.3185 56.6995
16.4988 53.5196
16.6792 52.5159
16.8596 53.0917
17.04 53.7673
17.2205 62.9102
17.401 70.2525
17.5815 57.0165
17.7622 59.0234
17.9428 68.5773
18.1237 138.972
18.3044 86.3797
18.4852 78.4089
18.666 58.4812
18.8469 56.1267
19.0278 55.0194
19.2088 57.1376
19.3898 76.0284
19.5709 52.6256
19.752 51.5599
19.9332 53.9404
20.1144 69.0362
20.2957 62.3828
20.477 52.921
20.6586 48.1731
20.84 47.2215
21.0215 47.0946
21.203 49.0683
21.3846 47.6082
21.5662 47.0897
21.7479 50.3367
21.9297 64.0336
22.1115 55.1922
22.2933 48.7442
22.4753 47.7566
22.6572 47.2304
22.8393 49.8571
23.0214 56.9353
23.2037 47.4282
23.3859 48.0373
23.5682 56.2209
23.7505 47.6208
23.9329 43.906
24.1154 42.8256
24.2979 42.2083
24.4805 41.741
24.6631 41.552
24.8458 41.0282
25.0286 41.4602
25.2114 43.57
25.3943 43.9428
25.5773 39.7881
25.7605 39.3197
25.9436 39.6416
26.1268 40.8041
26.31 38.9551
26.4933 39.4614
26.6767 41.3399
26.8601 39.5599
27.0437 37.831
27.2272 37.4823
27.4109 37.2759
27.5946 37.405
27.7784 36.9738
27.9623 37.3626
28.1462 38.0977
28.3304 36.3594
28.5145 35.0832
28.6987 34.8684
28.8829 34.4753
29.0673 33.762
29.2517 33.5341
29.4361 33.3257
29.6207 32.2139
29.8053 32.0947
29.99 31.7381
30.1748 31.6706
30.3597 31.3985
30.5447 31.3356
30.7297 31.5447
30.915 30.8362
31.1002 30.3588
31.2855 30.0032
31.4708 30.1155
31.6563 29.6374
31.8418 29.3085
32.0275 29.2979
32.2132 28.7372
32.399 28.2854
32.5848 27.7532
32.7708 27.4737
32.9569 27.3429
33.143 27.0998
33.3293 26.8413
33.5158 26.3577
33.7022 26.0237
33.8887 25.6722
34.0753 25.4351
34.262 25.1212
34.4488 24.6734
34.6357 24.4012
34.8227 24.0925
35.0098 23.8907
35.1969 23.622
35.3842 23.4426
35.5716 23.2412
35.759 22.9572
35.9468 22.557
36.1345 22.3965
36.3222 22.1414
36.5101 21.9661
36.6981 21.6394
36.8861 21.2789
37.0743 20.9482
37.2626 20.8024
37.451 20.4972
37.6395 20.3639
37.8281 20.049
38.0168 19.7624
38.2056 19.4914
38.3945 19.2243
38.5837 18.9455
38.7728 18.7732
38.9621 18.5329
39.1514 18.2757
39.3409 18.0183
39.5304 17.8474
39.7201 17.6816
39.9099 17.3756
40.0999 17.1937
40.2899 16.9724
40.48 16.7059
40.6703 16.5487
40.8607 16.3756
41.0512 16.1539
41.242 15.9352
41.4327 15.7024
41.6236 15.4819
41.8146 15.2947
42.0057 15.0893
42.1969 14.9437
42.3882 14.7093
42.5797 14.4942
42.7713 14.3092
42.963 14.098
43.1549 13.8896
43.3468 13.7358
43.5389 13.5233
43.7312 13.3716
43.9237 13.2188
44.1162 12.9835
44.3088 12.842
44.5016 12.5864
44.6945 12.4381
44.8875 12.2485
45.0806 12.0743
45.2739 11.949
45.4673 11.7845
45.6609 11.6093
45.8546 11.4056
46.0484 11.2803
46.2424 11.086
46.4365 10.9678
46.631 10.7765
46.8254 10.6162
47.0199 10.4745
47.2146 10.3244
47.4095 10.1593
47.6044 9.98855
47.7996 9.88447
47.9948 9.71422
48.1902 9.60493
48.3858 9.46884
48.5815 9.31804
48.7774 9.17064
48.9734 9.03345
49.1696 8.9008
49.3661 8.76818
49.5626 8.59055
49.7592 8.52631
49.956 8.39181
50.153 8.23782
50.3501 8.13841
50.5474 7.98672
50.7448 7.88218
50.9424 7.76314
51.1402 7.66954
51.3381 7.51997
51.5362 7.42137
51.7344 7.26814
51.9328 7.11504
52.1316 7.03112
52.3304 6.94855
52.5293 6.78757
52.7284 6.69106
52.9276 6.61506
53.1271 6.50228
53.3267 6.38456
53.5265 6.26425
53.7264 6.16702
53.9266 6.06424
54.1269 5.90839
54.3274 5.8399
54.528 5.68608
54.7289 5.5125
54.9301 5.40823
55.1314 5.26007
55.3328 5.02043
55.5344 4.86442
55.7361 4.72469

File: Ni3Fe_FD1007.xy
TT I
1.27165 6.62432
1.45013 5.98885
1.62863 4.98282
1.80712 4.98214
1.98562 4.84927
2.16411 4.8673
2.34263 5.40987
2.52115 7.73354
2.69965 9.06226
2.87818 8.7751
3.05672 11.2724
3.23527 15.1982
3.4138 18.7437
3.59237 23.4245
3.77094 25.3803
3.9495 29.0295
4.12809 33.6367
4.30669 292.215
4.4853 70.2077
4.6639 52.1393
4.84253 63.5169
5.02118 80.5882
5.19981 247.575
5.37848 176.692
5.55716 95.9615
5.73586 86.2659
5.91455 86.1908
6.09328 4305.62
6.27201 77.8748
6.45075 64.1932
6.62952 60.0487
6.8083 56.6724
6.98711 53.2887
7.16591 52.817
7.34475 113.86
7.5236 52.5377
7.70247 53.92
7.88135 55.4502
8.06026 59.0263
8.23919 66.351
8.41812 78.7598
8.59709 971.521
8.77609 94.5064
8.9551 88.9754
9.13412 77.5556
9.31318 77.846
9.49226 79.9341
9.67134 96.0517
9.85047 93.0074
10.0296 255.592
10.2088 443.339
10.388 100.027
10.5672 503.919
10.7465 82.4896
10.9257 74.5909
11.105 68.0869
11.2844 68.5634
11.4637 62.0014
11.6431 61.1127
11.8225 59.4971
12.002 60.0618
12.1814 140.158
12.3609 71.2669
12.5405 61.3981
12.72 69.9373
12.8996 67.3569
13.0792 74.1838
13.2589 204.507
13.4386 130.886
13.6183 219.452
13.7981 99.356
13.9779 72.4751
14.1577 69.362
14.3376 69.0372
14.5175 65.6545
14.6974 67.4398
14.8774 97.1737
15.0574 166.322
15.2374 68.4353
15.4175 63.3249
15.5976 62.7222
15.7778 84.381
15.958 172.971
16.1382 61.4585
16.3185 56.1747
16.4988 53.4817
16.6792 52.2474
16.8596 52.8666
17.04 53.4359
17.2205 62.5178
17.401 70.8788
17.5815 56.7234
17.7622 58.7736
17.9428 68.0958
18.1237 139.865
18.3044 85.9106
18.4852 79.4061
18.666 58.3088
18.8469 55.729
19.0278 54.8531
19.2088 56.8496
19.3898 76.0511
19.5709 52.4206
19.752 51.2063
19.9332 53.6161
20.1144 69.1835
20.2957 62.2561
20.477 53.0399
20.6586 48.0227
20.84 47.1136
21.0215 46.7134
21.203 49.0553
21.3846 47.5007
21.5662 46.8094
21.7479 50.1193
21.9297 64.4707
22.1115 55.1911
22.2933 48.6273
22.4753 47.446
22.6572 47.0074
22.8393 49.8237
23.0214 57.2359
23.2037 47.3225
23.3859 47.7665
23.5682 56.1242
23.7505 47.8173
23.9329 43.7784
24.1154 42.745
24.2979 42.1077
24.4805 41.6209
24.6631 41.6174
24.8458 40.9132
25.0286 41.2385
25.2114 43.4749
25.3943 44.019
25.5773 39.8058
25.7605 39.1899
25.9436 39.5264
26.1268 40.9458
26.31 38.9832
26.4933 39.4683
26.6767 41.3882
26.8601 39.5232
27.0437 37.8903
27.2272 37.5037
27.4109 37.3888
27.5946 37.4891
27.7784 36.7724
27.9623 37.3262
28.1462 38.1906
28.3304 36.3894
28.5145 34.9315
28.6987 34.672
28.8829 34.5696
29.0673 33.6796
29.2517 33.2616
29.4361 33.4332
29.6207 32.2443
29.8053 31.9365
29.99 31.6536
30.1748 31.6722
30.3597 31.3954
30.5447 31.3059
30.7297 31.4228
30.915 30.8373
31.1002 30.2511
31.2855 30.1062
31.4708 30.0745
31.6563 29.5756
31.8418 29.3957
32.0275 29.319
32.2132 28.7244
32.399 28.17
32.5848 27.7743
32.7708 27.3755
32.9569 27.3324
33.143 27.0947
33.3293 26.7029
33.5158 26.3379
33.7022 25.9082
33.8887 25.6484
34.0753 25.3901
34.262 25.027
34.4488 24.6358
34.6357 24.3666
34.8227 24.1722
35.0098 23.8549
35.1969 23.5259
35.3842 23.4094
35.5716 23.2825
35.759 22.9045
35.9468 22.5102
36.1345 22.3074
36.3222 22.0552
36.5101 21.8798
36.6981 21.6659
36.8861 21.306
37.0743 20.9697
37.2626 20.7517
37.451 20.4307
37.6395 20.3554
37.8281 20.028
38.0168 19.6605
38.2056 19.4724
38.3945 19.063
38.5837 18.9647
38.7728 18.7314
38.9621 18.445
39.1514 18.2258
39.3409 18.0093
39.5304 17.8244
39.7201 17.6292
39.9099 17.4812
40.0999 17.1678
40.2899 16.8865
40.48 16.7115
40.6703 16.5234
40.8607 16.3459
41.0512 16.0873
41.242 15.8707
41.4327 15.7017
41.6236 15.4477
41.8146 15.26
42.0057 15.0654
42.1969 14.841
42.3882 14.7059
42.5797 14.5023
42.7713 14.2672
42.963 14.0889
43.1549 13.8667
43.3468 13.7103
43.5389 13.4773
43.7312 13.3491
43.9237 13.1503
44.1162 12.9225
44.3088 12.7605
44.5016 12.5604
44.6945 12.4399
44.8875 12.2697
45.0806 12.0543
45.2739 11.9123
45.4673 11.7357
45.6609 11.5853
45.8546 11.4671
46.0484 11.2788
46.2424 11.1313
46.4365 10.9748
46.631 10.7726
46.8254 10.6522
47.0199 10.5085
47.2146 10.3372
47.4095 10.1835
47.6044 9.99516
47.7996 9.82974
47.9948 9.71805
48.1902 9.61798
48.3858 9.44356
48.5815 9.31165
48.7774 9.16806
48.9734 9.0566
49.1696 8.88557
49.3661 8.74851
49.5626 8.6286
49.7592 8.48918
49.956 8.38633
50.153 8.24608
50.3501 8.12608
50.5474 7.98988
50.7448 7.9024
50.9424 7.74054
51.1402 7.64419
51.3381 7.50999
51.5362 7.36322
51.7344 7.29659
51.9328 7.13207
52.1316 7.01768
52.3304 6.93038
52.5293 6.83803
52.7284 6.67628
52.9276 6.59465
53.1271 6.50635
53.3267 6.35991
53.5265 6.25335
53.7264 6.12728
53.9266 6.02705
54.1269 5.95524
54.3274 5.83624
54.528 5.64134
54.7289 5.52925
54.9301 5.36447
55.1314 5.25497
55.3328 5.01668
55.5344 4.85149
55.7361 4.68991

File: Ni3Fe_FD1008.xy
TT I
1.27165 6.77461
1.45013 6.47928
1.62863 4.68547
1.80712 4.52464
1.98562 4.70413
2.16411 4.68189
2.34263 5.28468
2.52115 7.24246
2.69965 8.72046
2.87818 8.86149
3.05672 11.2781
3.23527 15.1974
3.4138 18.6602
3.59237 23.4658
3.77094 25.2911
3.9495 28.574
4.12809 33.7729
4.30669 295.994
4.4853 69.2508
4.6639 52.0703
4.84253 62.6072
5.02118 79.905
5.19981 243.066
5.37848 179.351
5.55716 95.1136
5.73586 85.42
5.91455 86.0347
6.09328 4239.38
6.27201 78.1498
6.45075 63.3526
6.62952 59.521
6.8083 55.7643
6.98711 53.0642
7.16591 52.553
7.34475 116.136
7.5236 52.2792
7.70247 53.6094
7.88135 54.681
8.06026 58.4719
8.23919 65.6028
8.41812 77.8924
8.59709 959.873
8.77609 94.5828
8.9551 88.406
9.13412 76.7098
9.31318 77.6309
9.49226 79.2178
9.67134 95.2624
9.85047 92.7252
10.0296 252.768
10.2088 455.68
10.388 100.01
10.5672 496.721
10.7465 81.7255
10.9257 73.8971
11.105 67.7318
11.2844 68.3613
11.4637 61.7685
11.6431 60.6318
11.8225 59.3434
12.002 59.712
12.1814 138.804
12.3609 71.3627
12.5405 61.0439
12.72 69.8582
12.8996 67.0041
13.0792 73.7442
13.2589 202.178
13.4386 134.17
13.6183 217.276
13.7981 100.797
13.9779 72.1757
14.1577 69.1239
14.3376 68.2703
14.5175 65.4098
14.6974 67.0839
14.8774 96.3694
15.0574 169.716
15.2374 68.0838
15.4175 63.2737
15.5976 62.5076
15.7778 83.6516
15.958 174.182
16.1382 61.234
16.3185 55.9071
16.4988 53.1308
16.6792 52.1953
16.8596 52.5182
17.04 53.2768
17.2205 62.0421
17.401 71.627
17.5815 56.5811
17.7622 58.4824
17.9428 67.9093
18.1237 139.821
18.3044 85.656
18.4852 80.1258
18.666 58.0684
18.8469 55.5897
19.0278 54.5311
19.2088 56.7201
19.3898 76.0403
19.5709 52.429
19.752 51.015
19.9332 53.4136
20.1144 69.244
20.2957 62.2378
20.477 52.9753
20.6586 47.8658
20.84 46.8802
21.0215 46.6522
21.203 49.1573
21.3846 47.3585
21.5662 46.7797
21.7479 50.0051
21.9297 64.6319
22.1115 55.1969
22.2933 48.4352
22.4753 47.43
22.6572 46.813
22.8393 49.7425
23.0214 57.4506
23.2037 47.2733
23.3859 47.7144
23.5682 56.1635
23.7505 47.9292
23.9329 43.6043
24.1154 42.6472
24.2979 42.0599
24.4805 41.46
24.6631 41.524
24.8458 40.8905
25.0286 41.2924
25.2114 43.5468
25.3943 44.0035
25.5773 39.7143
25.7605 39.1076
25.9436 39.4921
26.1268 40.9452
26.31 38.7987
26.4933 39.4673
26.6767 41.4671
26.8601 39.5897
27.0437 37.8414
27.2272 37.259
27.4109 37.2892
27.5946 37.3135
27.7784 36.6416
27.9623 37.409
28.1462 38.2835
28.3304 36.3545
28.5145 35.0505
28.6987 34.5487
28.8829 34.4911
29.0673 33.7771
29.2517 33.2945
29.4361 33.2463
29.6207 32.2993
29.8053 31.9704
29.99 31.524
30.1748 31.5342
30.3597 31.1783
30.5447 31.3077
30.7297 31.3921
30.915 30.8013
31.1002 30.2581
31.2855 30.0283
31.4708 30.1169
31.6563 29.5502
31.8418 29.2706
32.0275 29.1977
32.2132 28.5748
32.399 28.1793
32.5848 27.7831
32.7708 27.4068
32.9569 27.2168
33.143 27.2088
33.3293 26.6924
33.5158 26.3424
33.7022 25.8678
33.8887 25.6379
34.0753 25.29
34.262 24.9352
34.4488 24.6708
34.6357 24.334
34.8227 24.0391
35.0098 23.8193
35.1969 23.5196
35.3842 23.3648
35.5716 23.1901
35.759 22.8526
35.9468 22.4908
36.1345 22.284
36.3222 22.1132
36.5101 21.8873
36.6981 21.5453
36.8861 21.1586
37.0743 20.8976
37.2626 20.7777
37.451 20.4993
37.6395 20.2789
37.8281 19.9614
38.0168 19.6684
38.2056 19.4829
38.3945 19.2045
38.5837 18.9496
38.7728 18.7455
38.9621 18.5587
39.1514 18.2437
39.3409 17.9806
39.5304 17.7589
39.7201 17.5861
39.9099 17.3951
40.0999 17.1409
40.2899 16.9241
40.48 16.6346
40.6703 16.4483
40.8607 16.3091
41.0512 16.0449
41.242 15.8128
41.4327 15.7401
41.6236 15.4661
41.8146 15.2616
42.0057 15.0289
42.1969 14.8883
42.3882 14.6803
42.5797 14.4413
42.7713 14.2585
42.963 14.0842
43.1549 13.9489
43.3468 13.686
43.5389 13.4556
43.7312 13.3302
43.9237 13.1466
44.1162 13.0022
44.3088 12.7912
44.5016 12.5955
44.6945 12.4414
44.8875 12.2928
45.0806 12.1235
45.2739 11.9125
45.4673 11.7422
45.6609 11.5608
45.8546 11.403
46.0484 11.2702
46.2424 11.1147
46.4365 10.9137
46.631 10.7859
46.8254 10.6211
47.0199 10.4685
47.2146 10.3276
47.4095 10.1391
47.6044 9.99597
47.7996 9.87161
47.9948 9.69396
48.1902 9.58415
48.3858 9.43
48.5815 9.30915
48.7774 9.19431
48.9734 9.03771
49.1696 8.88419
49.3661 8.76057
49.5626 8.61862
49.7592 8.50786
49.956 8.36943
50.153 8.24959
50.3501 8.1001
50.5474 7.97784
50.7448 7.84194
50.9424 7.7645
51.1402 7.6431
51.3381 7.5131
51.5362 7.40223
51.7344 7.2491
51.9328 7.15025
52.1316 7.01272
52.3304 6.92157
52.5293 6.78086
52.7284 6.71301
52.9276 6.60175
53.1271 6.51964
53.3267 6.32512
53.5265 6.27863
53.7264 6.15331
53.9266 6.03227
54.1269 5.93643
54.3274 5.78797
54.528 5.66693
54.7289 5.55867
54.9301 5.32367
55.1314 5.24894
55.3328 5.01104
55.5344 4.79479
55.7361 4.72969

File: Ni3Fe_FD1009.xy
TT I
1.27165 6.4566
1.45013 6.45689
1.62863 4.64823
1.80712 4.43083
1.98562 4.55515
2.16411 4.76865
2.34263 6.34819
2.52115 7.59449
2.69965 8.48406
2.87818 8.80034
3.05672 11.5748
3.23527 14.9958
3.4138 18.4954
3.59237 23.741
3.77094 25.1854
3.9495 28.9535
4.12809 33.4145
4.30669 275.1
4.4853 67.6777
4.6639 52.0751
4.84253 62.7016
5.02118 80.282
5.19981 242.295
5.37848 176.365
5.55716 94.6459
5.73586 85.8846
5.91455 86.0859
6.09328 4283.1
6.27201 77.4376
6.45075 63.2308
6.62952 59.3107
6.8083 55.8738
6.98711 53.0211
7.16591 52.514
7.34475 110.228
7.5236 51.9421
7.70247 53.6813
7.88135 54.4888
8.06026 58.7702
8.23919 65.6026
8.41812 77.9724
8.59709 975.068
8.77609 93.9668
8.9551 88.2618
9.13412 77.3863
9.31318 77.3725
9.49226 79.4284
9.67134 94.4442
9.85047 92.799
10.0296 256.899
10.2088 451.42
10.388 99.3337
10.5672 503.657
10.7465 81.784
10.9257 73.8632
11.105 67.9772
11.2844 67.9037
11.4637 61.4839
11.6431 60.5727
11.8225 59.2077
12.002 59.807
12.1814 138.968
12.3609 70.6549
12.5405 60.7902
12.72 69.2956
12.8996 66.7386
13.0792 73.7113
13.2589 204.305
13.4386 132.663
13.6183 219.237
13.7981 100.218
13.9779 72.0105
14.1577 69.0043
14.3376 68.3699
14.5175 65.4438
14.6974 66.9518
14.8774 97.2126
15.0574 165.986
15.2374 67.9595
15.4175 63.2049
15.5976 62.6053
15.7778 84.2129
15.958 172.885
16.1382 61.0227
16.3185 55.8142
16.4988 52.9497
16.6792 52.0625
16.8596 52.6257
17.04 53.0744
17.2205 62.1609
17.401 71.0539
17.5815 56.371
17.7622 58.5986
17.9428 68.1999
18.1237 140.723
18.3044 85.8035
18.4852 79.6023
18.666 58.1587
18.8469 55.7666
19.0278 54.4939
19.2088 56.6256
19.3898 75.7795
19.5709 52.2659
19.752 51.0102
19.9332 53.3896
20.1144 69.3726
20.2957 62.2902
20.477 52.7158
20.6586 47.8365
20.84 46.9432
21.0215 46.5597
21.203 48.8351
21.3846 47.173
21.5662 46.8015
21.7479 49.9191
21.9297 64.5613
22.1115 55.3488
22.2933 48.68
22.4753 47.457
22.6572 47.0203
22.8393 49.6556
23.0214 57.1982
23.2037 47.2548
23.3859 47.8603
23.5682 56.2258
23.7505 47.7638
23.9329 43.6063
24.1154 42.6059
24.2979 41.8918
24.4805 41.4981
24.6631 41.3277
24.8458 40.6997
25.0286 41.2514
25.2114 43.6078
25.3943 44.0053
25.5773 39.6697
25.7605 39.1178
25.9436 39.3213
26.1268 40.7718
26.31 38.9446
26.4933 39.2895
26.6767 41.461
26.8601 39.62
27.0437 37.8579
27.2272 37.3005
27.4109 37.2459
27.5946 37.2229
27.7784 36.8251
27.9623 37.3658
28.1462 38.1818
28.3304 36.3682
28.5145 35.0101
28.6987 34.5532
28.8829 34.3601
29.0673 33.5838
29.2517 33.2913
29.4361 33.3415
29.6207 32.2817
29.8053 31.9597
29.99 31.596
30.1748 31.5098
30.3597 31.464
30.5447 31.2312
30.7297 31.4937
30.915 30.8424
31.1002 30.2688
31.2855 30.0436
31.4708 30.0206
31.6563 29.6751
31.8418 29.3538
32.0275 29.1722
32.2132 28.6397
32.399 28.1115
32.5848 27.6243
32.7708 27.3039
32.9569 27.1557
33.143 27.0434
33.3293 26.7923
33.5158 26.3867
33.7022 25.7725
33.8887 25.5789
34.0753 25.3271
34.262 24.9752
34.4488 24.5771
34.6357 24.2592
34.8227 24.0279
35.0098 23.7794
35.1969 23.4542
35.3842 23.4855
35.5716 23.2224
35.759 22.9671
35.9468 22.5158
36.1345 22.3531
36.3222 22.1413
36.5101 21.7907
36.6981 21.6188
36.8861 21.2715
37.0743 20.8858
37.2626 20.7155
37.451 20.4668
37.6395 20.2599
37.8281 19.9379
38.0168 19.6547
38.2056 19.4342
38.3945 19.1213
38.5837 18.9822
38.7728 18.6797
38.9621 18.4795
39.1514 18.2265
39.3409 18.003
39.5304 17.7636
39.7201 17.5685
39.9099 17.3991
40.0999 17.1554
40.2899 16.9263
40.48 16.6474
40.6703 16.48
40.8607 16.3253
41.0512 16.091
41.242 15.8517
41.4327 15.6802
41.6236 15.4004
41.8146 15.2528
42.0057 15.022
42.1969 14.8178
42.3882 14.6549
42.5797 14.4469
42.7713 14.2563
42.963 14.0266
43.1549 13.8788
43.3468 13.6839
43.5389 13.473
43.7312 13.2351
43.9237 13.1119
44.1162 12.9155
44.3088 12.7472
44.5016 12.5336
44.6945 12.4061
44.8875 12.2324
45.0806 12.0422
45.2739 11.8722
45.4673 11.7177
45.6609 11.5168
45.8546 11.4243
46.0484 11.2325
46.2424 11.087
46.4365 10.9453
46.631 10.7797
46.8254 10.557
47.0199 10.4649
47.2146 10.3147
47.4095 10.1312
47.6044 9.98937
47.7996 9.85047
47.9948 9.7089
48.1902 9.59192
48.3858 9.39578
48.5815 9.29087
48.7774 9.19191
48.9734 9.00032
49.1696 8.86082
49.3661 8.74357
49.5626 8.57622
49.7592 8.51286
49.956 8.36753
50.153 8.20003
50.3501 8.05831
50.5474 7.96639
50.7448 7.89026
50.9424 7.75589
51.1402 7.62383
51.3381 7.48882
51.5362 7.33131
51.7344 7.24973
51.9328 7.15183
52.1316 7.01176
52.3304 6.93827
52.5293 6.76868
52.7284 6.67627
52.9276 6.56394
53.1271 6.44496
53.3267 6.34324
53.5265 6.2361
53.7264 6.16268
53.9266 6.01265
54.1269 5.93203
54.3274 5.82224
54.528 5.66764
54.7289 5.47948
54.9301 5.38539
55.1314 5.27241
55.3328 5.05638
55.5344 4.82604
55.7361 4.73023

File: Ni3Fe_FD1010.xy
TT I
1.27165 6.90752
1.45013 5.75571
1.62863 4.83913
1.80712 4.41354
1.98562 4.45361
2.16411 4.34844
2.34263 5.19218
2.52115 6.94437
2.69965 9.36907
2.87818 9.06499
3.05672 10.887
3.23527 15.1338
3.4138 18.8212
3.59237 22.5073
3.77094 24.7385
3.9495 28.4649
4.12809 32.8204
4.30669 163.326
4.4853 56.7278
4.6639 52.1872
4.84253 62.7329
5.02118 81.0358
5.19981 230.046
5.37848 220.757
5.55716 95.3772
5.73586 86.2689
5.91455 86.2333
6.09328 4250.08
6.27201 76.2193
6.45075 63.1426
6.62952 58.1501
6.8083 54.7772
6.98711 52.4566
7.16591 51.6965
7.34475 82.0404
7.5236 57.7605
7.70247 52.7074
7.88135 54.0943
8.06026 58.0572
8.23919 65.1438
8.41812 77.036
8.59709 979.997
8.77609 93.8581
8.9551 84.4653
9.13412 77.7483
9.31318 89.4522
9.49226 79.5062
9.67134 89.9281
9.85047 92.4521
10.0296 267.847
10.2088 456.549
10.388 97.5636
10.5672 497.771
10.7465 85.717
10.9257 73.2277
11.105 67.2704
11.2844 65.6638
11.4637 61.1964
11.6431 60.0366
11.8225 58.7235
12.002 65.5765
12.1814 139.003
12.3609 67.233
12.5405 60.6234
12.72 66.1128
12.8996 66.677
13.0792 74.6586
13.2589 206.641
13.4386 131.149
13.6183 221.026
13.7981 100.702
13.9779 72.1079
14.1577 74.026
14.3376 67.3986
14.5175 65.409
14.6974 66.3063
14.8774 99.199
15.0574 164.062
15.2374 66.8032
15.4175 63.028
15.5976 62.0695
15.7778 85.0877
15.958 171.98
16.1382 60.4898
16.3185 55.4193
16.4988 52.8491
16.6792 51.6784
16.8596 52.2345
17.04 52.9591
17.2205 62.3364
17.401 70.5384
17.5815 56.3204
17.7622 58.8284
17.9428 68.3951
18.1237 141.667
18.3044 85.9449
18.4852 79.1138
18.666 58.0454
18.8469 55.5172
19.0278 54.4928
19.2088 56.5472
19.3898 76.0535
19.5709 52.1762
19.752 51.03
19.9332 53.6247
20.1144 68.8869
20.2957 62.2295
20.477 52.6372
20.6586 47.6662
20.84 46.9571
21.0215 46.5567
21.203 48.5396
21.3846 47.2577
21.5662 46.7304
21.7479 50.1768
21.9297 64.4707
22.1115 55.2904
22.2933 48.5176
22.4753 47.0651
22.6572 46.8184
22.8393 49.8368
23.0214 57.1355
23.2037 47.0054
23.3859 47.7656
23.5682 56.4359
23.7505 47.7086
23.9329 43.7219
24.1154 42.4954
24.2979 41.7838
24.4805 41.2816
24.6631 41.5252
24.8458 40.529
25.0286 41.2359
25.2114 43.3624
25.3943 43.9357
25.5773 39.5504
25.7605 38.9281
25.9436 39.5057
26.1268 40.6637
26.31 38.7125
26.4933 39.2989
26.6767 41.2353
26.8601 39.5368
27.0437 37.7356
27.2272 37.2158
27.4109 37.0589
27.5946 37.3088
27.7784 36.5688
27.9623 37.2769
28.1462 38.2039
28.3304 36.2238
28.5145 34.8352
28.6987 34.5022
28.8829 34.3988
29.0673 33.6285
29.2517 33.1286
29.4361 33.2673
29.6207 32.0943
29.8053 31.8285
29.99 31.4427
30.1748 31.4757
30.3597 31.1655
30.5447 31.1607
30.7297 31.3984
30.915 30.7501
31.1002 30.2858
31.2855 29.8894
31.4708 29.9921
31.6563 29.5506
31.8418 29.2231
32.0275 29.1413
32.2132 28.6133
32.399 27.9833
32.5848 27.6015
32.7708 27.257
32.9569 27.2225
33.143 26.947
33.3293 26.5589
33.5158 26.2848
33.7022 25.8376
33.8887 25.5427
34.0753 25.2146
34.262 24.8624
34.4488 24.5111
34.6357 24.234
34.8227 23.9706
35.0098 23.8157
35.1969 23.4413
35.3842 23.2849
35.5716 23.0589
35.759 22.7487
35.9468 22.4547
36.1345 22.26
36.3222 21.992
36.5101 21.7655
36.6981 21.5519
36.8861 21.2307
37.0743 20.854
37.2626 20.7028
37.451 20.3153
37.6395 20.2372
37.8281 19.892
38.0168 19.6111
38.2056 19.3458
38.3945 19.0954
38.5837 18.8884
38.7728 18.6933
38.9621 18.4179
39.1514 18.1506
39.3409 17.9026
39.5304 17.7246
39.7201 17.4964
39.9099 17.3534
40.0999 17.0927
40.2899 16.8395
40.48 16.635
40.6703 16.4644
40.8607 16.2262
41.0512 16.0134
41.242 15.7892
41.4327 15.5994
41.6236 15.4326
41.8146 15.2152
42.0057 15.0157
42.1969 14.8145
42.3882 14.5796
42.5797 14.3771
42.7713 14.241
42.963 14.0147
43.1549 13.7801
43.3468 13.6369
43.5389 13.4333
43.7312 13.251
43.9237 13.045
44.1162 12.8363
44.3088 12.7502
44.5016 12.5413
44.6945 12.3755
44.8875 12.1675
45.0806 12.026
45.2739 11.8301
45.4673 11.666
45.6609 11.5425
45.8546 11.3754
46.0484 11.1875
46.2424 11.0522
46.4365 10.9054
46.631 10.7125
46.8254 10.5327
47.0199 10.3937
47.2146 10.2585
47.4095 10.116
47.6044 9.98276
47.7996 9.80831
47.9948 9.6868
48.1902 9.53542
48.3858 9.3982
48.5815 9.27923
48.7774 9.15081
48.9734 9.00388
49.1696 8.87489
49.3661 8.70343
49.5626 8.56159
49.7592 8.43272
49.956 8.32703
50.153 8.2066
50.3501 8.07817
50.5474 7.9803
50.7448 7.8004
50.9424 7.69714
51.1402 7.57811
51.3381 7.43717
51.5362 7.32192
51.7344 7.20935
51.9328 7.11734
52.1316 6.98108
52.3304 6.88614
52.5293 6.77403
52.7284 6.65152
52.9276 6.52081
53.1271 6.43327
53.3267 6.31588
53.5265 6.23189
53.7264 6.08752
53.9266 6.01605
54.1269 5.87218
54.3274 5.80062
54.528 5.63686
54.7289 5.48683
54.9301 5.3135
55.1314 5.17508
55.3328 5.04812
55.5344 4.81331
55.7361 4.7334