Folder: NiFe_MOF_catalyst_paper/XRD (part 28)

File: Ni3Fe_FD0141.xy
TT I
1.27165 7.74759
1.45013 6.61974
1.62863 5.54439
1.80712 4.61251
1.98562 5.16507
2.16411 4.33231
2.34263 4.50491
2.52115 4.02002
2.69965 5.28753
2.87818 7.78309
3.05672 11.0073
3.23527 15.1664
3.4138 18.4347
3.59237 21.3952
3.77094 24.7723
3.9495 28.8218
4.12809 32.0044
4.30669 37.7311
4.4853 44.5345
4.6639 53.6438
4.84253 65.5156
5.02118 90.5649
5.19981 558.23
5.37848 470.88
5.55716 108.072
5.73586 95.2817
5.91455 105.46
6.09328 2663.15
6.27201 89.3702
6.45075 66.4074
6.62952 59.7539
6.8083 55.4451
6.98711 53.3935
7.16591 52.1218
7.34475 52.0001
7.5236 55.7572
7.70247 53.6452
7.88135 55.94
8.06026 60.3398
8.23919 67.6614
8.41812 83.556
8.59709 865.0
8.77609 117.978
8.9551 84.9486
9.13412 81.0402
9.31318 86.9061
9.49226 82.9575
9.67134 87.795
9.85047 98.4989
10.0296 548.047
10.2088 1017.74
10.388 104.241
10.5672 323.671
10.7465 90.1139
10.9257 75.4701
11.105 69.7647
11.2844 65.6728
11.4637 63.0902
11.6431 61.8063
11.8225 61.0687
12.002 65.3805
12.1814 115.753
12.3609 75.2272
12.5405 62.8065
12.72 64.6327
12.8996 69.5885
13.0792 78.8498
13.2589 201.587
13.4386 216.816
13.6183 188.905
13.7981 154.495
13.9779 75.4944
14.1577 74.0955
14.3376 68.6172
14.5175 68.0022
14.6974 69.2312
14.8774 120.625
15.0574 204.843
15.2374 68.7737
15.4175 65.6822
15.5976 65.1125
15.7778 107.054
15.958 184.272
16.1382 61.4651
16.3185 56.8949
16.4988 54.6617
16.6792 53.726
16.8596 53.8685
17.04 54.9022
17.2205 64.5222
17.401 80.6389
17.5815 58.6476
17.7622 61.0949
17.9428 83.5081
18.1237 112.537
18.3044 87.9159
18.4852 95.4348
18.666 60.592
18.8469 57.8226
19.0278 56.392
19.2088 61.5178
19.3898 68.4059
19.5709 56.3951
19.752 53.0915
19.9332 58.0158
20.1144 66.3125
20.2957 60.6249
20.477 59.4572
20.6586 49.5761
20.84 48.7614
21.0215 48.7779
21.203 49.5098
21.3846 50.2165
21.5662 48.8177
21.7479 53.8459
21.9297 61.4861
22.1115 56.1218
22.2933 52.4293
22.4753 48.6269
22.6572 48.8625
22.8393 51.7661
23.0214 56.6997
23.2037 49.7441
23.3859 51.6518
23.5682 53.3211
23.7505 53.3581
23.9329 45.4556
24.1154 44.2895
24.2979 43.4066
24.4805 42.7871
24.6631 43.0136
24.8458 42.3904
25.0286 42.9846
25.2114 44.44
25.3943 44.6659
25.5773 41.7771
25.7605 40.5285
25.9436 40.9226
26.1268 41.4538
26.31 40.8549
26.4933 40.7946
26.6767 41.7789
26.8601 41.2067
27.0437 39.2895
27.2272 38.8385
27.4109 38.375
27.5946 38.5501
27.7784 38.3649
27.9623 38.3689
28.1462 39.1417
28.3304 37.8504
28.5145 36.365
28.6987 35.7292
28.8829 35.4136
29.0673 35.0587
29.2517 34.4204
29.4361 34.1942
29.6207 33.5308
29.8053 32.9947
29.99 32.6447
30.1748 32.42
30.3597 32.4876
30.5447 32.2437
30.7297 32.2074
30.915 32.0052
31.1002 31.3551
31.2855 31.0021
31.4708 30.8679
31.6563 30.8583
31.8418 30.2148
32.0275 30.0879
32.2132 29.6405
32.399 29.0539
32.5848 28.584
32.7708 28.2864
32.9569 28.1573
33.143 27.9096
33.3293 27.5398
33.5158 27.1704
33.7022 26.7281
33.8887 26.3938
34.0753 26.0669
34.262 25.6735
34.4488 25.4166
34.6357 25.0481
34.8227 24.7316
35.0098 24.5758
35.1969 24.2522
35.3842 24.0363
35.5716 23.8534
35.759 23.4744
35.9468 23.183
36.1345 22.9904
36.3222 22.7296
36.5101 22.5281
36.6981 22.2052
36.8861 21.8771
37.0743 21.6235
37.2626 21.3638
37.451 21.0271
37.6395 20.85
37.8281 20.5463
38.0168 20.281
38.2056 19.9985
38.3945 19.7298
38.5837 19.4605
38.7728 19.3664
38.9621 19.0058
39.1514 18.7645
39.3409 18.5584
39.5304 18.2913
39.7201 18.0839
39.9099 17.9377
40.0999 17.5784
40.2899 17.4461
40.48 17.2111
40.6703 16.9704
40.8607 16.7674
41.0512 16.5222
41.242 16.3607
41.4327 16.0562
41.6236 15.8396
41.8146 15.632
42.0057 15.4949
42.1969 15.2284
42.3882 15.0792
42.5797 14.8847
42.7713 14.7146
42.963 14.4382
43.1549 14.3053
43.3468 14.0158
43.5389 13.853
43.7312 13.6453
43.9237 13.5178
44.1162 13.2791
44.3088 13.1143
44.5016 12.932
44.6945 12.7658
44.8875 12.5756
45.0806 12.3856
45.2739 12.232
45.4673 12.122
45.6609 11.8565
45.8546 11.7517
46.0484 11.5622
46.2424 11.355
46.4365 11.1894
46.631 11.0314
46.8254 10.9169
47.0199 10.7274
47.2146 10.6177
47.4095 10.3932
47.6044 10.2321
47.7996 10.1393
47.9948 9.9257
48.1902 9.81425
48.3858 9.67613
48.5815 9.54535
48.7774 9.43434
48.9734 9.27798
49.1696 9.13268
49.3661 8.9902
49.5626 8.84979
49.7592 8.71736
49.956 8.56816
50.153 8.46091
50.3501 8.33248
50.5474 8.23117
50.7448 8.07919
50.9424 7.95429
51.1402 7.8006
51.3381 7.68607
51.5362 7.59294
51.7344 7.46886
51.9328 7.3427
52.1316 7.19198
52.3304 7.11827
52.5293 6.98551
52.7284 6.89859
52.9276 6.75045
53.1271 6.66246
53.3267 6.51066
53.5265 6.42003
53.7264 6.32382
53.9266 6.15935
54.1269 6.05563
54.3274 5.97114
54.528 5.76516
54.7289 5.61876
54.9301 5.42364
55.1314 5.28516
55.3328 5.0609
55.5344 4.82134
55.7361 4.75171

File: Ni3Fe_FD0142.xy
TT I
1.27165 7.99833
1.45013 6.7201
1.62863 6.11668
1.80712 5.34203
1.98562 4.57955
2.16411 4.65499
2.34263 4.03021
2.52115 4.06728
2.69965 5.61639
2.87818 7.88386
3.05672 10.8296
3.23527 14.8486
3.4138 18.6453
3.59237 21.7106
3.77094 25.0202
3.9495 28.6393
4.12809 32.3135
4.30669 37.3133
4.4853 44.8912
4.6639 53.6188
4.84253 65.6126
5.02118 90.3871
5.19981 558.133
5.37848 472.629
5.55716 107.408
5.73586 94.7272
5.91455 105.466
6.09328 2663.43
6.27201 89.2935
6.45075 66.2414
6.62952 59.5468
6.8083 55.1433
6.98711 53.0854
7.16591 51.8859
7.34475 52.086
7.5236 55.8809
7.70247 53.8475
7.88135 55.7242
8.06026 60.1224
8.23919 67.3557
8.41812 83.4878
8.59709 868.328
8.77609 117.186
8.9551 84.7815
9.13412 80.7672
9.31318 86.9288
9.49226 82.9766
9.67134 87.9796
9.85047 98.7336
10.0296 546.923
10.2088 1014.04
10.388 104.183
10.5672 324.217
10.7465 90.516
10.9257 75.312
11.105 69.804
11.2844 65.6935
11.4637 63.0689
11.6431 61.6459
11.8225 60.7261
12.002 65.3692
12.1814 116.086
12.3609 75.5799
12.5405 62.7909
12.72 64.878
12.8996 69.4771
13.0792 79.0916
13.2589 201.616
13.4386 216.198
13.6183 189.3
13.7981 155.405
13.9779 75.7389
14.1577 73.8601
14.3376 68.4255
14.5175 68.0129
14.6974 69.5029
14.8774 120.542
15.0574 204.656
15.2374 68.7855
15.4175 65.7731
15.5976 65.2706
15.7778 107.118
15.958 184.163
16.1382 61.6804
16.3185 57.0502
16.4988 54.7663
16.6792 53.7568
16.8596 54.0988
17.04 55.0148
17.2205 64.6911
17.401 80.6772
17.5815 58.6597
17.7622 60.936
17.9428 83.4421
18.1237 112.614
18.3044 87.961
18.4852 95.301
18.666 60.6467
18.8469 57.8349
19.0278 56.5378
19.2088 61.5965
19.3898 68.4329
19.5709 56.2393
19.752 53.0091
19.9332 58.014
20.1144 66.3709
20.2957 60.6816
20.477 59.2082
20.6586 49.527
20.84 48.9224
21.0215 48.6751
21.203 49.513
21.3846 50.3833
21.5662 48.6255
21.7479 53.8871
21.9297 61.5132
22.1115 56.1202
22.2933 52.4514
22.4753 48.687
22.6572 48.7177
22.8393 51.8065
23.0214 56.7863
23.2037 49.6973
23.3859 51.6083
23.5682 53.1828
23.7505 53.2694
23.9329 45.3877
24.1154 44.2549
24.2979 43.4564
24.4805 42.7965
24.6631 42.8608
24.8458 42.2994
25.0286 42.7925
25.2114 44.4166
25.3943 44.6256
25.5773 41.6187
25.7605 40.5938
25.9436 40.8367
26.1268 41.4314
26.31 40.8344
26.4933 40.7966
26.6767 41.7509
26.8601 41.2042
27.0437 39.398
27.2272 38.8013
27.4109 38.5009
27.5946 38.5902
27.7784 38.3874
27.9623 38.2054
28.1462 39.1613
28.3304 37.8454
28.5145 36.1552
28.6987 35.7413
28.8829 35.3658
29.0673 35.0747
29.2517 34.3291
29.4361 34.15
29.6207 33.4632
29.8053 32.9918
29.99 32.6974
30.1748 32.3957
30.3597 32.5749
30.5447 32.2129
30.7297 32.3044
30.915 31.9764
31.1002 31.3396
31.2855 30.9984
31.4708 30.8829
31.6563 30.7765
31.8418 30.1994
32.0275 30.1096
32.2132 29.522
32.399 29.101
32.5848 28.5189
32.7708 28.2636
32.9569 28.1487
33.143 27.8459
33.3293 27.4742
33.5158 27.2222
33.7022 26.7269
33.8887 26.3588
34.0753 26.0925
34.262 25.7359
34.4488 25.3964
34.6357 25.0619
34.8227 24.7721
35.0098 24.5193
35.1969 24.2137
35.3842 24.0255
35.5716 23.9106
35.759 23.5673
35.9468 23.1672
36.1345 22.9566
36.3222 22.7961
36.5101 22.4576
36.6981 22.2342
36.8861 21.8862
37.0743 21.5473
37.2626 21.3707
37.451 21.0988
37.6395 20.9142
37.8281 20.6184
38.0168 20.2591
38.2056 19.9935
38.3945 19.7868
38.5837 19.5395
38.7728 19.265
38.9621 19.0404
39.1514 18.73
39.3409 18.4762
39.5304 18.3374
39.7201 18.165
39.9099 17.9033
40.0999 17.6877
40.2899 17.3902
40.48 17.2014
40.6703 16.965
40.8607 16.7414
41.0512 16.575
41.242 16.2847
41.4327 16.0839
41.6236 15.8842
41.8146 15.6973
42.0057 15.5369
42.1969 15.2278
42.3882 15.0439
42.5797 14.8518
42.7713 14.6838
42.963 14.4456
43.1549 14.224
43.3468 14.0428
43.5389 13.8881
43.7312 13.6676
43.9237 13.4936
44.1162 13.2971
44.3088 13.1358
44.5016 12.9314
44.6945 12.769
44.8875 12.5858
45.0806 12.3611
45.2739 12.2684
45.4673 12.0704
45.6609 11.8486
45.8546 11.7277
46.0484 11.5553
46.2424 11.3883
46.4365 11.2298
46.631 11.0681
46.8254 10.8941
47.0199 10.7157
47.2146 10.5714
47.4095 10.4088
47.6044 10.2642
47.7996 10.0731
47.9948 9.95312
48.1902 9.8434
48.3858 9.68183
48.5815 9.55008
48.7774 9.40243
48.9734 9.25407
49.1696 9.14894
49.3661 8.99279
49.5626 8.83168
49.7592 8.71826
49.956 8.61336
50.153 8.46647
50.3501 8.34371
50.5474 8.19474
50.7448 8.11478
50.9424 7.96059
51.1402 7.86315
51.3381 7.68823
51.5362 7.58947
51.7344 7.47304
51.9328 7.32592
52.1316 7.19158
52.3304 7.08861
52.5293 6.95391
52.7284 6.87695
52.9276 6.7327
53.1271 6.67693
53.3267 6.53358
53.5265 6.38074
53.7264 6.31002
53.9266 6.18061
54.1269 6.04975
54.3274 5.96454
54.528 5.82277
54.7289 5.63757
54.9301 5.39331
55.1314 5.27398
55.3328 5.03479
55.5344 4.87296
55.7361 4.76462

File: Ni3Fe_FD0143.xy
TT I
1.27165 7.75939
1.45013 6.92251
1.62863 5.58783
1.80712 5.1268
1.98562 4.76511
2.16411 4.68742
2.34263 4.7115
2.52115 4.51542
2.69965 5.30397
2.87818 7.50467
3.05672 11.3316
3.23527 14.848
3.4138 18.4549
3.59237 21.6122
3.77094 24.7286
3.9495 28.477
4.12809 32.2595
4.30669 37.5179
4.4853 44.3875
4.6639 53.4428
4.84253 65.6794
5.02118 90.1748
5.19981 554.021
5.37848 467.625
5.55716 107.666
5.73586 95.2433
5.91455 105.168
6.09328 2657.18
6.27201 89.6428
6.45075 66.1817
6.62952 59.5969
6.8083 55.2591
6.98711 53.4819
7.16591 51.8093
7.34475 51.7699
7.5236 55.7853
7.70247 53.4141
7.88135 55.8968
8.06026 60.1864
8.23919 67.7985
8.41812 83.0864
8.59709 871.874
8.77609 116.633
8.9551 84.7716
9.13412 81.1461
9.31318 86.6366
9.49226 82.8625
9.67134 88.2608
9.85047 97.9533
10.0296 546.098
10.2088 1006.18
10.388 104.109
10.5672 324.542
10.7465 90.3093
10.9257 75.0894
11.105 69.6016
11.2844 65.6626
11.4637 62.9984
11.6431 61.6742
11.8225 60.6977
12.002 65.3047
12.1814 116.232
12.3609 75.3321
12.5405 62.5865
12.72 64.8655
12.8996 69.118
13.0792 78.7017
13.2589 201.813
13.4386 215.121
13.6183 189.798
13.7981 155.537
13.9779 75.3309
14.1577 73.9736
14.3376 68.6857
14.5175 68.0784
14.6974 69.3527
14.8774 120.732
15.0574 203.722
15.2374 68.5307
15.4175 65.6905
15.5976 65.3174
15.7778 107.206
15.958 184.723
16.1382 61.5562
16.3185 56.852
16.4988 54.707
16.6792 53.6163
16.8596 53.7849
17.04 54.7924
17.2205 64.9046
17.401 80.2866
17.5815 58.7472
17.7622 61.0362
17.9428 83.5809
18.1237 113.117
18.3044 88.2309
18.4852 95.4846
18.666 60.4974
18.8469 57.8341
19.0278 56.3256
19.2088 61.5356
19.3898 68.6805
19.5709 56.2942
19.752 53.005
19.9332 57.971
20.1144 66.3144
20.2957 60.829
20.477 59.1147
20.6586 49.5467
20.84 48.8228
21.0215 48.6641
21.203 49.5555
21.3846 50.4171
21.5662 48.6693
21.7479 53.9009
21.9297 61.7003
22.1115 56.1509
22.2933 52.4519
22.4753 48.6804
22.6572 48.8174
22.8393 51.7562
23.0214 56.8543
23.2037 49.8103
23.3859 51.5505
23.5682 53.1405
23.7505 53.4502
23.9329 45.5199
24.1154 44.0351
24.2979 43.5807
24.4805 42.9067
24.6631 42.89
24.8458 42.3931
25.0286 42.9123
25.2114 44.5137
25.3943 44.5593
25.5773 41.5793
25.7605 40.5939
25.9436 40.9113
26.1268 41.4791
26.31 40.8903
26.4933 40.7178
26.6767 41.8721
26.8601 41.234
27.0437 39.3103
27.2272 38.7119
27.4109 38.4174
27.5946 38.6041
27.7784 38.3974
27.9623 38.315
28.1462 39.3588
28.3304 37.853
28.5145 36.1856
28.6987 35.7889
28.8829 35.2537
29.0673 35.0007
29.2517 34.4446
29.4361 34.2361
29.6207 33.4884
29.8053 33.0405
29.99 32.7319
30.1748 32.4563
30.3597 32.451
30.5447 32.2411
30.7297 32.2224
30.915 32.0879
31.1002 31.3352
31.2855 30.9791
31.4708 30.7857
31.6563 30.7692
31.8418 30.2487
32.0275 30.0772
32.2132 29.6162
32.399 29.1025
32.5848 28.6547
32.7708 28.2943
32.9569 28.0722
33.143 27.8663
33.3293 27.6539
33.5158 27.233
33.7022 26.7026
33.8887 26.4773
34.0753 26.0262
34.262 25.6802
34.4488 25.4781
34.6357 25.0491
34.8227 24.8037
35.0098 24.5715
35.1969 24.2804
35.3842 23.9953
35.5716 23.9182
35.759 23.5757
35.9468 23.2417
36.1345 23.0372
36.3222 22.8096
36.5101 22.5698
36.6981 22.2243
36.8861 21.9448
37.0743 21.5884
37.2626 21.3463
37.451 21.0647
37.6395 20.9279
37.8281 20.5657
38.0168 20.3097
38.2056 19.9942
38.3945 19.7856
38.5837 19.4521
38.7728 19.2632
38.9621 19.035
39.1514 18.774
39.3409 18.5609
39.5304 18.3052
39.7201 18.1143
39.9099 17.911
40.0999 17.7043
40.2899 17.4505
40.48 17.2188
40.6703 16.9558
40.8607 16.8702
41.0512 16.632
41.242 16.4154
41.4327 16.099
41.6236 15.8919
41.8146 15.744
42.0057 15.4957
42.1969 15.3033
42.3882 15.0668
42.5797 14.8783
42.7713 14.6489
42.963 14.4904
43.1549 14.3202
43.3468 14.069
43.5389 13.9278
43.7312 13.7099
43.9237 13.4996
44.1162 13.3539
44.3088 13.0963
44.5016 12.9466
44.6945 12.7225
44.8875 12.6342
45.0806 12.3967
45.2739 12.2948
45.4673 12.0741
45.6609 11.885
45.8546 11.7471
46.0484 11.5593
46.2424 11.3792
46.4365 11.2626
46.631 11.0885
46.8254 10.8772
47.0199 10.7299
47.2146 10.5845
47.4095 10.3984
47.6044 10.2381
47.7996 10.1374
47.9948 9.97327
48.1902 9.81898
48.3858 9.67833
48.5815 9.57719
48.7774 9.43405
48.9734 9.29835
49.1696 9.15026
49.3661 8.96973
49.5626 8.8402
49.7592 8.71553
49.956 8.61024
50.153 8.47451
50.3501 8.32972
50.5474 8.19438
50.7448 8.08117
50.9424 7.95289
51.1402 7.83354
51.3381 7.71411
51.5362 7.62827
51.7344 7.44104
51.9328 7.2865
52.1316 7.18958
52.3304 7.10536
52.5293 6.94949
52.7284 6.85204
52.9276 6.70236
53.1271 6.62928
53.3267 6.53118
53.5265 6.38703
53.7264 6.26282
53.9266 6.1933
54.1269 6.05311
54.3274 5.96615
54.528 5.78529
54.7289 5.5918
54.9301 5.43366
55.1314 5.28493
55.3328 5.03654
55.5344 4.8977
55.7361 4.75474

File: Ni3Fe_FD0144.xy
TT I
1.27165 8.17492
1.45013 6.79009
1.62863 5.74371
1.80712 5.38359
1.98562 4.78743
2.16411 4.5716
2.34263 4.46428
2.52115 4.01696
2.69965 5.43925
2.87818 7.37871
3.05672 11.156
3.23527 14.9745
3.4138 18.3473
3.59237 21.3472
3.77094 24.8624
3.9495 28.6012
4.12809 32.6968
4.30669 37.681
4.4853 44.4557
4.6639 53.6039
4.84253 65.5398
5.02118 90.5912
5.19981 556.387
5.37848 461.636
5.55716 107.328
5.73586 95.1489
5.91455 105.493
6.09328 2665.86
6.27201 89.3896
6.45075 66.1747
6.62952 59.5859
6.8083 55.596
6.98711 53.2625
7.16591 52.2191
7.34475 51.9386
7.5236 55.9407
7.70247 54.0155
7.88135 56.0174
8.06026 60.2633
8.23919 67.7533
8.41812 83.2251
8.59709 873.778
8.77609 116.214
8.9551 84.7866
9.13412 81.0562
9.31318 86.8619
9.49226 83.4205
9.67134 88.8127
9.85047 98.4236
10.0296 547.331
10.2088 994.919
10.388 104.035
10.5672 325.791
10.7465 90.265
10.9257 75.3516
11.105 70.0165
11.2844 65.9069
11.4637 63.1733
11.6431 62.0352
11.8225 60.7421
12.002 65.4968
12.1814 116.673
12.3609 74.9198
12.5405 62.984
12.72 65.0653
12.8996 69.2975
13.0792 79.0235
13.2589 202.165
13.4386 214.351
13.6183 190.032
13.7981 153.853
13.9779 75.6923
14.1577 74.2058
14.3376 68.6529
14.5175 68.1002
14.6974 69.3886
14.8774 120.807
15.0574 204.705
15.2374 68.8348
15.4175 65.8041
15.5976 65.4888
15.7778 107.189
15.958 184.17
16.1382 61.5032
16.3185 56.8683
16.4988 54.8874
16.6792 53.7664
16.8596 53.9045
17.04 55.1634
17.2205 64.9102
17.401 80.2338
17.5815 58.7043
17.7622 61.0923
17.9428 83.6428
18.1237 113.43
18.3044 87.696
18.4852 95.0055
18.666 60.6592
18.8469 57.9941
19.0278 56.4712
19.2088 61.5637
19.3898 68.6585
19.5709 56.1562
19.752 53.2145
19.9332 57.9064
20.1144 66.4367
20.2957 60.7034
20.477 58.9542
20.6586 49.6235
20.84 48.8843
21.0215 48.8306
21.203 49.5246
21.3846 50.3733
21.5662 48.8505
21.7479 53.9947
21.9297 61.6342
22.1115 56.052
22.2933 52.329
22.4753 48.7906
22.6572 48.8698
22.8393 51.8739
23.0214 56.9537
23.2037 49.7524
23.3859 51.7016
23.5682 53.1602
23.7505 53.2153
23.9329 45.571
24.1154 44.1377
24.2979 43.4101
24.4805 42.8604
24.6631 43.0538
24.8458 42.4307
25.0286 42.9433
25.2114 44.5338
25.3943 44.5915
25.5773 41.6029
25.7605 40.4557
25.9436 40.9415
26.1268 41.5412
26.31 40.8082
26.4933 40.8497
26.6767 41.9027
26.8601 41.2284
27.0437 39.5118
27.2272 38.9755
27.4109 38.5701
27.5946 38.5881
27.7784 38.3221
27.9623 38.4218
28.1462 39.2525
28.3304 37.8913
28.5145 36.28
28.6987 35.8815
28.8829 35.4424
29.0673 35.145
29.2517 34.4878
29.4361 34.2017
29.6207 33.4875
29.8053 33.0658
29.99 32.6942
30.1748 32.5076
30.3597 32.4775
30.5447 32.323
30.7297 32.2379
30.915 32.0312
31.1002 31.2855
31.2855 31.0684
31.4708 30.8658
31.6563 30.7429
31.8418 30.3547
32.0275 30.1485
32.2132 29.7274
32.399 29.0876
32.5848 28.6133
32.7708 28.2945
32.9569 28.1157
33.143 27.8281
33.3293 27.5897
33.5158 27.2246
33.7022 26.7081
33.8887 26.4503
34.0753 26.1664
34.262 25.795
34.4488 25.4006
34.6357 25.0329
34.8227 24.8027
35.0098 24.5912
35.1969 24.2389
35.3842 24.0803
35.5716 23.888
35.759 23.6065
35.9468 23.2187
36.1345 23.0788
36.3222 22.7977
36.5101 22.5912
36.6981 22.3113
36.8861 21.9716
37.0743 21.5637
37.2626 21.3598
37.451 21.1269
37.6395 20.8978
37.8281 20.5645
38.0168 20.3233
38.2056 19.9535
38.3945 19.7636
38.5837 19.5122
38.7728 19.2725
38.9621 19.0946
39.1514 18.8021
39.3409 18.5676
39.5304 18.305
39.7201 18.1466
39.9099 17.9617
40.0999 17.6275
40.2899 17.4892
40.48 17.2058
40.6703 16.988
40.8607 16.8464
41.0512 16.6002
41.242 16.3232
41.4327 16.1377
41.6236 15.9213
41.8146 15.7588
42.0057 15.5063
42.1969 15.2827
42.3882 15.1248
42.5797 14.8799
42.7713 14.6528
42.963 14.4852
43.1549 14.2706
43.3468 14.0738
43.5389 13.872
43.7312 13.6745
43.9237 13.5035
44.1162 13.3143
44.3088 13.1047
44.5016 12.9574
44.6945 12.761
44.8875 12.6012
45.0806 12.4471
45.2739 12.222
45.4673 12.0987
45.6609 11.8613
45.8546 11.7612
46.0484 11.582
46.2424 11.3798
46.4365 11.2375
46.631 11.0443
46.8254 10.9163
47.0199 10.6817
47.2146 10.6089
47.4095 10.4394
47.6044 10.2688
47.7996 10.1077
47.9948 9.98882
48.1902 9.81518
48.3858 9.68958
48.5815 9.58824
48.7774 9.45886
48.9734 9.28996
49.1696 9.1601
49.3661 8.97429
49.5626 8.82946
49.7592 8.70975
49.956 8.61627
50.153 8.45586
50.3501 8.36217
50.5474 8.22043
50.7448 8.07152
50.9424 7.98226
51.1402 7.85736
51.3381 7.69101
51.5362 7.6088
51.7344 7.47204
51.9328 7.35748
52.1316 7.18204
52.3304 7.06049
52.5293 6.97969
52.7284 6.83479
52.9276 6.76086
53.1271 6.70112
53.3267 6.5302
53.5265 6.41133
53.7264 6.28171
53.9266 6.1769
54.1269 6.08375
54.3274 5.95026
54.528 5.82005
54.7289 5.60428
54.9301 5.42926
55.1314 5.29763
55.3328 5.12123
55.5344 4.90433
55.7361 4.75542

File: Ni3Fe_FD0145.xy
TT I
1.27165 8.27878
1.45013 6.79091
1.62863 5.64153
1.80712 5.15103
1.98562 4.50406
2.16411 4.86388
2.34263 4.70837
2.52115 4.77617
2.69965 5.49771
2.87818 7.76511
3.05672 11.2364
3.23527 15.1229
3.4138 19.1235
3.59237 21.6168
3.77094 25.0772
3.9495 28.5248
4.12809 32.9532
4.30669 37.2921
4.4853 44.9279
4.6639 53.6748
4.84253 66.1634
5.02118 90.6612
5.19981 553.591
5.37848 459.702
5.55716 107.147
5.73586 95.168
5.91455 105.042
6.09328 2670.21
6.27201 89.3431
6.45075 66.2715
6.62952 59.5551
6.8083 55.3855
6.98711 53.594
7.16591 51.9627
7.34475 51.7193
7.5236 55.7248
7.70247 53.6454
7.88135 56.153
8.06026 60.5772
8.23919 68.025
8.41812 83.0952
8.59709 876.321
8.77609 116.442
8.9551 84.8303
9.13412 81.1783
9.31318 86.6017
9.49226 83.0227
9.67134 87.9586
9.85047 98.353
10.0296 548.018
10.2088 996.978
10.388 104.137
10.5672 327.635
10.7465 91.1475
10.9257 75.2064
11.105 69.7462
11.2844 65.6444
11.4637 63.1019
11.6431 61.9494
11.8225 61.1755
12.002 65.1928
12.1814 116.497
12.3609 74.7144
12.5405 62.7998
12.72 64.8072
12.8996 69.5714
13.0792 79.0705
13.2589 202.49
13.4386 214.193
13.6183 190.568
13.7981 153.662
13.9779 75.6579
14.1577 74.0641
14.3376 68.524
14.5175 67.8145
14.6974 69.3663
14.8774 120.606
15.0574 204.944
15.2374 68.644
15.4175 65.8307
15.5976 65.257
15.7778 107.128
15.958 184.075
16.1382 61.633
16.3185 57.1272
16.4988 54.7414
16.6792 53.8203
16.8596 53.9229
17.04 55.1451
17.2205 64.7636
17.401 80.4225
17.5815 58.7029
17.7622 61.0016
17.9428 83.4973
18.1237 113.24
18.3044 88.0058
18.4852 95.347
18.666 60.5596
18.8469 57.9476
19.0278 56.355
19.2088 61.6664
19.3898 68.5973
19.5709 56.0973
19.752 53.212
19.9332 57.9415
20.1144 66.5897
20.2957 60.6186
20.477 58.9175
20.6586 49.5437
20.84 48.8328
21.0215 48.6872
21.203 49.5283
21.3846 50.3293
21.5662 48.693
21.7479 53.8832
21.9297 61.558
22.1115 56.021
22.2933 52.3148
22.4753 48.6807
22.6572 48.9562
22.8393 51.8812
23.0214 56.9976
23.2037 49.6094
23.3859 51.8335
23.5682 53.1666
23.7505 53.3263
23.9329 45.4915
24.1154 44.0933
24.2979 43.5255
24.4805 42.7758
24.6631 42.9506
24.8458 42.5667
25.0286 42.879
25.2114 44.4284
25.3943 44.7628
25.5773 41.6063
25.7605 40.7102
25.9436 40.9472
26.1268 41.6667
26.31 40.8169
26.4933 40.7245
26.6767 42.029
26.8601 41.3113
27.0437 39.3604
27.2272 38.6666
27.4109 38.5187
27.5946 38.6376
27.7784 38.3811
27.9623 38.4488
28.1462 39.3714
28.3304 37.9299
28.5145 36.241
28.6987 35.8144
28.8829 35.4242
29.0673 34.9965
29.2517 34.427
29.4361 34.1832
29.6207 33.4239
29.8053 32.9658
29.99 32.6559
30.1748 32.431
30.3597 32.4801
30.5447 32.3215
30.7297 32.2126
30.915 31.9229
31.1002 31.3642
31.2855 31.0582
31.4708 30.8842
31.6563 30.7545
31.8418 30.3169
32.0275 30.1381
32.2132 29.6517
32.399 29.059
32.5848 28.6836
32.7708 28.3289
32.9569 28.1331
33.143 27.8539
33.3293 27.6241
33.5158 27.2283
33.7022 26.8016
33.8887 26.4718
34.0753 26.1739
34.262 25.7094
34.4488 25.4305
34.6357 25.0666
34.8227 24.835
35.0098 24.5985
35.1969 24.351
35.3842 23.9758
35.5716 23.8895
35.759 23.5774
35.9468 23.2417
36.1345 22.9893
36.3222 22.8168
36.5101 22.5376
36.6981 22.2325
36.8861 21.9299
37.0743 21.6019
37.2626 21.3378
37.451 21.106
37.6395 20.9535
37.8281 20.5628
38.0168 20.2758
38.2056 20.0152
38.3945 19.7578
38.5837 19.4584
38.7728 19.3036
38.9621 19.058
39.1514 18.8045
39.3409 18.5652
39.5304 18.3805
39.7201 18.1104
39.9099 17.889
40.0999 17.6471
40.2899 17.4758
40.48 17.2318
40.6703 17.0156
40.8607 16.8468
41.0512 16.5951
41.242 16.3223
41.4327 16.1619
41.6236 15.9143
41.8146 15.7084
42.0057 15.487
42.1969 15.2817
42.3882 15.0511
42.5797 14.9208
42.7713 14.6576
42.963 14.459
43.1549 14.3248
43.3468 14.0455
43.5389 13.9268
43.7312 13.6828
43.9237 13.5034
44.1162 13.2789
44.3088 13.1314
44.5016 12.9825
44.6945 12.7685
44.8875 12.5753
45.0806 12.4261
45.2739 12.273
45.4673 12.1317
45.6609 11.8753
45.8546 11.7158
46.0484 11.6091
46.2424 11.3937
46.4365 11.2525
46.631 11.0815
46.8254 10.8885
47.0199 10.7254
47.2146 10.5808
47.4095 10.4448
47.6044 10.2758
47.7996 10.1201
47.9948 9.99951
48.1902 9.86317
48.3858 9.70053
48.5815 9.57614
48.7774 9.41286
48.9734 9.26057
49.1696 9.14153
49.3661 8.98664
49.5626 8.85931
49.7592 8.71096
49.956 8.59298
50.153 8.49475
50.3501 8.30902
50.5474 8.22309
50.7448 8.06282
50.9424 7.96687
51.1402 7.80917
51.3381 7.72269
51.5362 7.58253
51.7344 7.42539
51.9328 7.35056
52.1316 7.23315
52.3304 7.09558
52.5293 6.97279
52.7284 6.89434
52.9276 6.8004
53.1271 6.67628
53.3267 6.51964
53.5265 6.41972
53.7264 6.30145
53.9266 6.19379
54.1269 6.0655
54.3274 5.9472
54.528 5.79509
54.7289 5.64494
54.9301 5.44785
55.1314 5.30238
55.3328 5.06611
55.5344 4.89421
55.7361 4.79721