Folder: NiFe_MOF_catalyst_paper/XRD (part 185)

File: Ni3Fe_FD1000.xy
TT I
1.27165 6.91779
1.45013 5.49663
1.62863 5.24631
1.80712 4.7314
1.98562 4.79554
2.16411 5.01795
2.34263 5.97265
2.52115 7.26893
2.69965 8.33864
2.87818 8.99306
3.05672 11.058
3.23527 15.2803
3.4138 18.8771
3.59237 24.1068
3.77094 25.9248
3.9495 29.4749
4.12809 34.3584
4.30669 263.528
4.4853 69.6979
4.6639 53.9979
4.84253 65.6046
5.02118 83.6056
5.19981 266.937
5.37848 173.181
5.55716 99.5031
5.73586 89.1171
5.91455 89.8293
6.09328 4550.58
6.27201 81.0132
6.45075 66.156
6.62952 62.2271
6.8083 57.9064
6.98711 55.0443
7.16591 54.9007
7.34475 101.723
7.5236 53.9657
7.70247 55.4772
7.88135 56.7225
8.06026 60.8372
8.23919 68.2061
8.41812 83.0379
8.59709 1085.76
8.77609 96.7423
8.9551 91.2515
9.13412 80.2882
9.31318 80.4653
9.49226 82.7399
9.67134 98.7651
9.85047 97.2871
10.0296 278.124
10.2088 371.118
10.388 101.944
10.5672 523.565
10.7465 84.7055
10.9257 77.449
11.105 70.6966
11.2844 69.5138
11.4637 63.8395
11.6431 62.4925
11.8225 61.109
12.002 62.0744
12.1814 147.52
12.3609 70.6094
12.5405 63.0644
12.72 69.6378
12.8996 69.2282
13.0792 76.315
13.2589 219.905
13.4386 121.793
13.6183 235.382
13.7981 94.6345
13.9779 74.2595
14.1577 71.1279
14.3376 70.7107
14.5175 67.0763
14.6974 68.5782
14.8774 101.906
15.0574 151.148
15.2374 70.1509
15.4175 64.7923
15.5976 64.1563
15.7778 87.8153
15.958 155.367
16.1382 61.8953
16.3185 57.6415
16.4988 54.5829
16.6792 53.4528
16.8596 54.1311
17.04 54.561
17.2205 64.1729
17.401 69.0208
17.5815 57.7635
17.7622 59.7461
17.9428 69.9945
18.1237 139.518
18.3044 87.7009
18.4852 76.0172
18.666 59.1382
18.8469 56.8084
19.0278 55.7209
19.2088 57.7317
19.3898 75.955
19.5709 52.9719
19.752 52.0575
19.9332 54.505
20.1144 68.998
20.2957 63.1266
20.477 52.6039
20.6586 48.7792
20.84 47.82
21.0215 47.3987
21.203 49.8128
21.3846 47.9911
21.5662 47.6227
21.7479 51.0431
21.9297 63.7514
22.1115 55.0788
22.2933 48.7049
22.4753 47.9945
22.6572 47.4996
22.8393 50.4453
23.0214 56.5518
23.2037 47.843
23.3859 48.4524
23.5682 56.4997
23.7505 47.4126
23.9329 44.3018
24.1154 43.2312
24.2979 42.723
24.4805 42.1005
24.6631 41.9192
24.8458 41.1859
25.0286 41.8106
25.2114 43.7312
25.3943 43.877
25.5773 40.079
25.7605 39.564
25.9436 39.8483
26.1268 40.9387
26.31 39.22
26.4933 39.972
26.6767 41.4882
26.8601 39.6383
27.0437 38.0456
27.2272 37.6563
27.4109 37.5099
27.5946 37.6915
27.7784 37.0979
27.9623 37.6961
28.1462 38.1062
28.3304 36.4252
28.5145 35.2151
28.6987 34.9447
28.8829 34.751
29.0673 33.8884
29.2517 33.6808
29.4361 33.4606
29.6207 32.4698
29.8053 32.1656
29.99 31.8887
30.1748 31.7279
30.3597 31.6079
30.5447 31.5585
30.7297 31.6193
30.915 30.9401
31.1002 30.61
31.2855 30.1863
31.4708 30.2548
31.6563 29.7717
31.8418 29.4069
32.0275 29.3368
32.2132 28.7991
32.399 28.3878
32.5848 27.9729
32.7708 27.6551
32.9569 27.4579
33.143 27.1918
33.3293 26.8208
33.5158 26.4747
33.7022 26.1207
33.8887 25.8342
34.0753 25.5057
34.262 25.1132
34.4488 24.8019
34.6357 24.5406
34.8227 24.2736
35.0098 24.0962
35.1969 23.7624
35.3842 23.5438
35.5716 23.3054
35.759 23.0294
35.9468 22.6968
36.1345 22.5091
36.3222 22.2756
36.5101 22.0385
36.6981 21.7229
36.8861 21.4096
37.0743 21.0861
37.2626 20.8523
37.451 20.5133
37.6395 20.4583
37.8281 20.0835
38.0168 19.8072
38.2056 19.6273
38.3945 19.3141
38.5837 19.0762
38.7728 18.8816
38.9621 18.6094
39.1514 18.32
39.3409 18.1385
39.5304 17.886
39.7201 17.7449
39.9099 17.5009
40.0999 17.3307
40.2899 17.0212
40.48 16.78
40.6703 16.5567
40.8607 16.4719
41.0512 16.2091
41.242 15.9417
41.4327 15.7634
41.6236 15.5608
41.8146 15.359
42.0057 15.1678
42.1969 14.9701
42.3882 14.7871
42.5797 14.5417
42.7713 14.3557
42.963 14.1265
43.1549 13.9582
43.3468 13.7717
43.5389 13.5865
43.7312 13.4092
43.9237 13.2172
44.1162 13.0105
44.3088 12.8389
44.5016 12.7091
44.6945 12.4986
44.8875 12.3524
45.0806 12.1479
45.2739 11.9949
45.4673 11.8115
45.6609 11.6305
45.8546 11.4996
46.0484 11.3137
46.2424 11.1867
46.4365 10.9902
46.631 10.8461
46.8254 10.6393
47.0199 10.5139
47.2146 10.3873
47.4095 10.174
47.6044 10.0598
47.7996 9.90194
47.9948 9.78203
48.1902 9.61697
48.3858 9.48848
48.5815 9.32589
48.7774 9.23176
48.9734 9.08722
49.1696 8.93935
49.3661 8.80963
49.5626 8.65947
49.7592 8.52683
49.956 8.39796
50.153 8.25511
50.3501 8.14321
50.5474 8.05121
50.7448 7.88296
50.9424 7.77886
51.1402 7.66765
51.3381 7.51682
51.5362 7.41609
51.7344 7.30885
51.9328 7.16726
52.1316 7.04133
52.3304 6.93393
52.5293 6.83217
52.7284 6.75469
52.9276 6.62495
53.1271 6.50733
53.3267 6.40414
53.5265 6.24854
53.7264 6.17258
53.9266 6.09448
54.1269 5.97395
54.3274 5.86921
54.528 5.71045
54.7289 5.55551
54.9301 5.39181
55.1314 5.24848
55.3328 5.09516
55.5344 4.88406
55.7361 4.73532

File: Ni3Fe_FD1001.xy
TT I
1.27165 7.47309
1.45013 5.8068
1.62863 5.72869
1.80712 4.80792
1.98562 4.68703
2.16411 4.97263
2.34263 6.12281
2.52115 7.33523
2.69965 8.81401
2.87818 9.15744
3.05672 11.7402
3.23527 15.3255
3.4138 18.6736
3.59237 24.0338
3.77094 25.991
3.9495 29.6731
4.12809 34.8009
4.30669 264.922
4.4853 70.0304
4.6639 54.1876
4.84253 65.7495
5.02118 83.4268
5.19981 267.954
5.37848 173.664
5.55716 98.929
5.73586 89.4216
5.91455 89.9653
6.09328 4562.67
6.27201 81.4417
6.45075 65.9898
6.62952 61.9036
6.8083 58.3464
6.98711 55.3161
7.16591 55.1751
7.34475 102.069
7.5236 54.2153
7.70247 55.1648
7.88135 56.8529
8.06026 61.2974
8.23919 68.1397
8.41812 83.1336
8.59709 1081.11
8.77609 96.7112
8.9551 91.716
9.13412 80.135
9.31318 80.4219
9.49226 82.8371
9.67134 98.5267
9.85047 97.1069
10.0296 278.106
10.2088 370.824
10.388 102.029
10.5672 523.937
10.7465 84.7307
10.9257 77.3594
11.105 70.5005
11.2844 69.8998
11.4637 63.9861
11.6431 62.602
11.8225 61.3314
12.002 61.6471
12.1814 148.183
12.3609 70.5194
12.5405 63.2083
12.72 69.6387
12.8996 69.2378
13.0792 76.4691
13.2589 219.99
13.4386 121.464
13.6183 234.917
13.7981 94.6857
13.9779 74.1463
14.1577 71.307
14.3376 70.6996
14.5175 67.228
14.6974 68.5693
14.8774 101.741
15.0574 151.293
15.2374 70.393
15.4175 64.9525
15.5976 64.0335
15.7778 88.038
15.958 155.475
16.1382 61.854
16.3185 57.8127
16.4988 54.4311
16.6792 53.506
16.8596 54.2412
17.04 54.4351
17.2205 64.2614
17.401 69.1086
17.5815 57.742
17.7622 59.7294
17.9428 69.9421
18.1237 139.665
18.3044 87.5483
18.4852 76.1398
18.666 59.1924
18.8469 56.7242
19.0278 55.5879
19.2088 57.8361
19.3898 75.8409
19.5709 53.1186
19.752 52.3202
19.9332 54.6189
20.1144 68.9736
20.2957 62.8704
20.477 52.4475
20.6586 48.7561
20.84 47.5848
21.0215 47.4404
21.203 49.8333
21.3846 47.9567
21.5662 47.5598
21.7479 50.9706
21.9297 63.7546
22.1115 55.297
22.2933 48.7302
22.4753 47.8062
22.6572 47.619
22.8393 50.4365
23.0214 56.4884
23.2037 47.823
23.3859 48.3814
23.5682 56.4162
23.7505 47.4236
23.9329 44.2442
24.1154 43.1329
24.2979 42.5156
24.4805 42.1326
24.6631 41.926
24.8458 41.3427
25.0286 41.8392
25.2114 43.7218
25.3943 43.7338
25.5773 40.155
25.7605 39.7034
25.9436 39.9794
26.1268 40.9787
26.31 39.2067
26.4933 39.7904
26.6767 41.3916
26.8601 39.6139
27.0437 38.1002
27.2272 37.5897
27.4109 37.5856
27.5946 37.6267
27.7784 37.1338
27.9623 37.5946
28.1462 38.015
28.3304 36.4532
28.5145 35.3148
28.6987 34.8572
28.8829 34.8257
29.0673 34.0159
29.2517 33.6008
29.4361 33.4686
29.6207 32.4485
29.8053 32.2581
29.99 31.9617
30.1748 31.8757
30.3597 31.5707
30.5447 31.4918
30.7297 31.6831
30.915 31.003
31.1002 30.5069
31.2855 30.3418
31.4708 30.2331
31.6563 29.8037
31.8418 29.5752
32.0275 29.3613
32.2132 28.7551
32.399 28.2725
32.5848 27.8834
32.7708 27.6414
32.9569 27.5012
33.143 27.1172
33.3293 26.9813
33.5158 26.3843
33.7022 26.16
33.8887 25.81
34.0753 25.5603
34.262 25.2765
34.4488 24.8228
34.6357 24.5413
34.8227 24.2704
35.0098 24.0337
35.1969 23.7917
35.3842 23.5666
35.5716 23.3296
35.759 23.0805
35.9468 22.7593
36.1345 22.4905
36.3222 22.3002
36.5101 22.0141
36.6981 21.6925
36.8861 21.4143
37.0743 21.1027
37.2626 20.9245
37.451 20.593
37.6395 20.435
37.8281 20.0534
38.0168 19.8144
38.2056 19.5616
38.3945 19.3446
38.5837 19.0652
38.7728 18.877
38.9621 18.6539
39.1514 18.3565
39.3409 18.1877
39.5304 17.8953
39.7201 17.721
39.9099 17.4852
40.0999 17.254
40.2899 17.0583
40.48 16.8219
40.6703 16.6092
40.8607 16.4484
41.0512 16.1609
41.242 15.9566
41.4327 15.7779
41.6236 15.486
41.8146 15.3679
42.0057 15.1391
42.1969 14.9864
42.3882 14.7891
42.5797 14.5496
42.7713 14.3716
42.963 14.1674
43.1549 13.9849
43.3468 13.7877
43.5389 13.5629
43.7312 13.4256
43.9237 13.2466
44.1162 13.0219
44.3088 12.8233
44.5016 12.6169
44.6945 12.5067
44.8875 12.3727
45.0806 12.1676
45.2739 11.951
45.4673 11.8153
45.6609 11.6956
45.8546 11.5035
46.0484 11.3254
46.2424 11.1633
46.4365 11.0218
46.631 10.8373
46.8254 10.7238
47.0199 10.5072
47.2146 10.4008
47.4095 10.2277
47.6044 10.0796
47.7996 9.87285
47.9948 9.78089
48.1902 9.5998
48.3858 9.5049
48.5815 9.40421
48.7774 9.26678
48.9734 9.10176
49.1696 8.95206
49.3661 8.81234
49.5626 8.65441
49.7592 8.54379
49.956 8.429
50.153 8.27771
50.3501 8.15262
50.5474 8.02988
50.7448 7.92105
50.9424 7.80287
51.1402 7.68072
51.3381 7.55223
51.5362 7.42032
51.7344 7.30499
51.9328 7.19319
52.1316 7.05446
52.3304 6.95921
52.5293 6.82708
52.7284 6.72626
52.9276 6.58318
53.1271 6.53729
53.3267 6.39454
53.5265 6.29861
53.7264 6.17919
53.9266 6.0907
54.1269 5.98653
54.3274 5.84173
54.528 5.66707
54.7289 5.53767
54.9301 5.36994
55.1314 5.27034
55.3328 5.04962
55.5344 4.88613
55.7361 4.76347

File: Ni3Fe_FD1002.xy
TT I
1.27165 7.31066
1.45013 6.48871
1.62863 4.81795
1.80712 4.79439
1.98562 4.43234
2.16411 5.20616
2.34263 5.83203
2.52115 7.2256
2.69965 8.60689
2.87818 9.37495
3.05672 11.6285
3.23527 15.3528
3.4138 18.7822
3.59237 24.134
3.77094 26.2244
3.9495 29.4569
4.12809 34.8055
4.30669 266.301
4.4853 69.9368
4.6639 54.0721
4.84253 65.698
5.02118 83.7241
5.19981 267.496
5.37848 173.686
5.55716 99.0542
5.73586 89.5249
5.91455 90.1137
6.09328 4560.46
6.27201 81.2592
6.45075 66.553
6.62952 62.203
6.8083 58.0581
6.98711 54.994
7.16591 54.6845
7.34475 102.056
7.5236 54.1197
7.70247 55.5433
7.88135 57.0356
8.06026 60.8363
8.23919 67.8555
8.41812 83.0604
8.59709 1076.66
8.77609 96.6598
8.9551 91.2925
9.13412 80.0205
9.31318 80.8973
9.49226 82.3779
9.67134 98.6286
9.85047 97.1974
10.0296 277.096
10.2088 371.692
10.388 102.014
10.5672 524.12
10.7465 84.4511
10.9257 76.9422
11.105 70.6357
11.2844 69.7822
11.4637 63.6722
11.6431 62.4702
11.8225 61.2415
12.002 61.8399
12.1814 148.334
12.3609 70.5634
12.5405 63.4924
12.72 69.7363
12.8996 69.3502
13.0792 76.5501
13.2589 219.923
13.4386 121.703
13.6183 234.779
13.7981 95.0445
13.9779 74.1837
14.1577 70.9923
14.3376 70.4585
14.5175 67.1086
14.6974 68.7978
14.8774 102.139
15.0574 151.357
15.2374 70.3253
15.4175 65.1014
15.5976 64.3859
15.7778 87.7902
15.958 156.187
16.1382 62.1347
16.3185 57.8137
16.4988 54.3771
16.6792 53.506
16.8596 54.2438
17.04 54.5624
17.2205 64.4344
17.401 69.0356
17.5815 57.8911
17.7622 59.8656
17.9428 69.8858
18.1237 139.821
18.3044 87.7599
18.4852 76.1605
18.666 59.1001
18.8469 56.7511
19.0278 55.6374
19.2088 57.7609
19.3898 75.9619
19.5709 52.9881
19.752 52.1121
19.9332 54.6999
20.1144 68.9871
20.2957 63.0998
20.477 52.6585
20.6586 48.6902
20.84 47.8448
21.0215 47.3693
21.203 49.7373
21.3846 47.7662
21.5662 47.612
21.7479 50.9321
21.9297 63.5621
22.1115 55.2788
22.2933 48.8679
22.4753 47.9659
22.6572 47.7204
22.8393 50.4612
23.0214 56.5666
23.2037 47.8385
23.3859 48.3296
23.5682 56.2828
23.7505 47.452
23.9329 44.3696
24.1154 43.2766
24.2979 42.6
24.4805 42.071
24.6631 42.1092
24.8458 41.4498
25.0286 41.952
25.2114 43.6872
25.3943 43.833
25.5773 40.1957
25.7605 39.5334
25.9436 39.9532
26.1268 40.9163
26.31 39.3416
26.4933 39.8089
26.6767 41.3203
26.8601 39.6411
27.0437 38.0627
27.2272 37.7827
27.4109 37.6069
27.5946 37.6659
27.7784 37.1026
27.9623 37.6547
28.1462 38.1016
28.3304 36.3841
28.5145 35.3524
28.6987 35.0076
28.8829 34.739
29.0673 34.0151
29.2517 33.6751
29.4361 33.544
29.6207 32.533
29.8053 32.1652
29.99 31.9693
30.1748 31.8718
30.3597 31.5435
30.5447 31.523
30.7297 31.6101
30.915 30.9659
31.1002 30.5558
31.2855 30.3087
31.4708 30.2919
31.6563 29.8092
31.8418 29.5343
32.0275 29.3304
32.2132 28.7824
32.399 28.3432
32.5848 27.8465
32.7708 27.6487
32.9569 27.4642
33.143 27.3223
33.3293 26.967
33.5158 26.51
33.7022 26.1545
33.8887 25.8585
34.0753 25.4746
34.262 25.1661
34.4488 24.8075
34.6357 24.5803
34.8227 24.2167
35.0098 24.0869
35.1969 23.7163
35.3842 23.5403
35.5716 23.3146
35.759 23.0552
35.9468 22.7043
36.1345 22.4408
36.3222 22.2296
36.5101 21.9638
36.6981 21.7019
36.8861 21.3986
37.0743 21.1943
37.2626 20.8994
37.451 20.6184
37.6395 20.4463
37.8281 20.1134
38.0168 19.839
38.2056 19.6194
38.3945 19.3859
38.5837 19.1419
38.7728 18.8787
38.9621 18.5907
39.1514 18.3217
39.3409 18.14
39.5304 17.8925
39.7201 17.7029
39.9099 17.459
40.0999 17.2701
40.2899 17.0188
40.48 16.8167
40.6703 16.6259
40.8607 16.4311
41.0512 16.181
41.242 15.9455
41.4327 15.7561
41.6236 15.5953
41.8146 15.388
42.0057 15.1143
42.1969 14.9547
42.3882 14.7944
42.5797 14.5546
42.7713 14.3839
42.963 14.1428
43.1549 13.9828
43.3468 13.776
43.5389 13.6135
43.7312 13.3537
43.9237 13.2606
44.1162 13.0616
44.3088 12.8636
44.5016 12.6476
44.6945 12.4967
44.8875 12.3493
45.0806 12.1299
45.2739 11.99
45.4673 11.839
45.6609 11.6341
45.8546 11.4897
46.0484 11.3645
46.2424 11.1288
46.4365 11.0869
46.631 10.8554
46.8254 10.6889
47.0199 10.5443
47.2146 10.3631
47.4095 10.2547
47.6044 10.0825
47.7996 9.94211
47.9948 9.75715
48.1902 9.61199
48.3858 9.48492
48.5815 9.37481
48.7774 9.22442
48.9734 9.08373
49.1696 8.95563
49.3661 8.8481
49.5626 8.671
49.7592 8.5379
49.956 8.42781
50.153 8.30926
50.3501 8.16048
50.5474 8.03932
50.7448 7.95741
50.9424 7.79956
51.1402 7.67103
51.3381 7.55086
51.5362 7.44537
51.7344 7.29568
51.9328 7.18896
52.1316 7.09054
52.3304 6.95031
52.5293 6.88462
52.7284 6.71277
52.9276 6.61758
53.1271 6.52937
53.3267 6.4018
53.5265 6.25439
53.7264 6.1832
53.9266 6.08846
54.1269 5.97065
54.3274 5.86164
54.528 5.70393
54.7289 5.49962
54.9301 5.38495
55.1314 5.275
55.3328 5.08605
55.5344 4.88418
55.7361 4.72352

File: Ni3Fe_FD1004.xy
TT I
1.27165 6.77352
1.45013 6.09475
1.62863 4.81302
1.80712 4.60163
1.98562 4.44744
2.16411 4.87855
2.34263 5.31575
2.52115 8.03476
2.69965 9.12361
2.87818 9.13694
3.05672 10.6403
3.23527 14.8958
3.4138 18.6536
3.59237 24.0133
3.77094 25.8221
3.9495 29.7891
4.12809 34.3418
4.30669 276.646
4.4853 70.2252
4.6639 53.9347
4.84253 65.0034
5.02118 83.0049
5.19981 262.646
5.37848 173.233
5.55716 98.7572
5.73586 88.695
5.91455 89.0083
6.09328 4506.25
6.27201 80.8845
6.45075 65.7578
6.62952 61.2316
6.8083 58.0311
6.98711 54.6048
7.16591 54.4651
7.34475 105.534
7.5236 53.8538
7.70247 54.978
7.88135 56.6262
8.06026 60.3869
8.23919 67.5517
8.41812 82.273
8.59709 1040.09
8.77609 96.0234
8.9551 91.1222
9.13412 79.3426
9.31318 79.9629
9.49226 82.0358
9.67134 98.3294
9.85047 95.8898
10.0296 270.521
10.2088 387.035
10.388 102.06
10.5672 514.468
10.7465 83.7385
10.9257 76.7705
11.105 70.0249
11.2844 69.7053
11.4637 63.3686
11.6431 62.3222
11.8225 60.686
12.002 61.5962
12.1814 146.341
12.3609 70.5879
12.5405 63.0214
12.72 69.6976
12.8996 68.7669
13.0792 76.0148
13.2589 216.875
13.4386 122.044
13.6183 231.73
13.7981 95.7808
13.9779 73.6191
14.1577 70.9001
14.3376 70.4659
14.5175 66.8859
14.6974 68.4195
14.8774 101.056
15.0574 153.182
15.2374 69.7785
15.4175 64.752
15.5976 63.9265
15.7778 87.0233
15.958 159.643
16.1382 61.7934
16.3185 57.5597
16.4988 54.2479
16.6792 53.158
16.8596 54.0237
17.04 54.2619
17.2205 63.8373
17.401 69.6966
17.5815 57.6249
17.7622 59.6402
17.9428 69.3583
18.1237 139.651
18.3044 87.0228
18.4852 76.6045
18.666 58.9369
18.8469 56.5806
19.0278 55.4633
19.2088 57.564
19.3898 75.9738
19.5709 52.8914
19.752 51.889
19.9332 54.3295
20.1144 69.0626
20.2957 62.8782
20.477 52.6431
20.6586 48.4831
20.84 47.7217
21.0215 47.3942
21.203 49.758
21.3846 47.73
21.5662 47.4784
21.7479 50.7749
21.9297 63.8319
22.1115 55.0947
22.2933 48.7788
22.4753 47.8639
22.6572 47.4767
22.8393 50.1918
23.0214 56.7456
23.2037 47.6437
23.3859 48.3112
23.5682 56.0601
23.7505 47.5059
23.9329 44.134
24.1154 43.0696
24.2979 42.4893
24.4805 41.9045
24.6631 41.9167
24.8458 41.1337
25.0286 41.7988
25.2114 43.755
25.3943 43.7298
25.5773 39.9136
25.7605 39.4696
25.9436 39.7998
26.1268 40.9576
26.31 39.1728
26.4933 39.8699
26.6767 41.4274
26.8601 39.6561
27.0437 38.1449
27.2272 37.6632
27.4109 37.5212
27.5946 37.5833
27.7784 36.9045
27.9623 37.5807
28.1462 38.1606
28.3304 36.4062
28.5145 35.112
28.6987 34.9201
28.8829 34.6575
29.0673 33.9011
29.2517 33.6322
29.4361 33.4512
29.6207 32.4763
29.8053 32.1807
29.99 31.7582
30.1748 31.8343
30.3597 31.6191
30.5447 31.5096
30.7297 31.5824
30.915 31.0712
31.1002 30.3831
31.2855 30.1912
31.4708 30.2092
31.6563 29.7278
31.8418 29.5093
32.0275 29.3183
32.2132 28.738
32.399 28.3134
32.5848 27.866
32.7708 27.5248
32.9569 27.492
33.143 27.3451
33.3293 26.8402
33.5158 26.4197
33.7022 26.0972
33.8887 25.7706
34.0753 25.4304
34.262 25.223
34.4488 24.7629
34.6357 24.4118
34.8227 24.1969
35.0098 24.0091
35.1969 23.6688
35.3842 23.4826
35.5716 23.3245
35.759 22.9046
35.9468 22.6538
36.1345 22.4264
36.3222 22.1708
36.5101 21.9511
36.6981 21.6491
36.8861 21.3998
37.0743 21.0691
37.2626 20.8354
37.451 20.5363
37.6395 20.4157
37.8281 20.0472
38.0168 19.7865
38.2056 19.6062
38.3945 19.3259
38.5837 19.0482
38.7728 18.8311
38.9621 18.6143
39.1514 18.3211
39.3409 18.1148
39.5304 17.8705
39.7201 17.7055
39.9099 17.4752
40.0999 17.2309
40.2899 17.0162
40.48 16.7855
40.6703 16.5712
40.8607 16.383
41.0512 16.1695
41.242 15.9385
41.4327 15.7688
41.6236 15.4886
41.8146 15.3467
42.0057 15.1196
42.1969 14.9143
42.3882 14.7269
42.5797 14.5275
42.7713 14.361
42.963 14.1607
43.1549 13.9914
43.3468 13.7451
43.5389 13.5418
43.7312 13.3562
43.9237 13.2097
44.1162 12.9981
44.3088 12.8982
44.5016 12.613
44.6945 12.4796
44.8875 12.2779
45.0806 12.1423
45.2739 11.9874
45.4673 11.8033
45.6609 11.6026
45.8546 11.4677
46.0484 11.318
46.2424 11.1516
46.4365 10.9815
46.631 10.8434
46.8254 10.6788
47.0199 10.5203
47.2146 10.3501
47.4095 10.1879
47.6044 10.0452
47.7996 9.87095
47.9948 9.75578
48.1902 9.64757
48.3858 9.4749
48.5815 9.36086
48.7774 9.20637
48.9734 9.08261
49.1696 8.89037
49.3661 8.80699
49.5626 8.6189
49.7592 8.52516
49.956 8.4101
50.153 8.28603
50.3501 8.15115
50.5474 8.04249
50.7448 7.93148
50.9424 7.8038
51.1402 7.66967
51.3381 7.52292
51.5362 7.393
51.7344 7.28942
51.9328 7.16172
52.1316 7.05742
52.3304 6.95213
52.5293 6.82264
52.7284 6.72861
52.9276 6.60597
53.1271 6.54012
53.3267 6.3836
53.5265 6.26689
53.7264 6.19891
53.9266 6.05981
54.1269 5.89367
54.3274 5.85446
54.528 5.70437
54.7289 5.5337
54.9301 5.37821
55.1314 5.20615
55.3328 5.06181
55.5344 4.8637
55.7361 4.69298

File: Ni3Fe_FD1005.xy
TT I
1.27165 7.00816
1.45013 5.9695
1.62863 5.09972
1.80712 4.63949
1.98562 4.52948
2.16411 4.83922
2.34263 5.63356
2.52115 7.89448
2.69965 8.74764
2.87818 8.94948
3.05672 11.4039
3.23527 15.5314
3.4138 18.8507
3.59237 23.9349
3.77094 26.0487
3.9495 29.3203
4.12809 34.0343
4.30669 281.944
4.4853 70.0837
4.6639 53.1896
4.84253 64.4176
5.02118 82.2417
5.19981 256.379
5.37848 174.496
5.55716 96.9823
5.73586 88.0847
5.91455 87.9558
6.09328 4423.87
6.27201 79.9956
6.45075 65.2143
6.62952 61.1226
6.8083 57.2601
6.98711 53.8827
7.16591 53.9965
7.34475 107.843
7.5236 53.2078
7.70247 54.5001
7.88135 55.7564
8.06026 60.2303
8.23919 67.11
8.41812 81.0444
8.59709 1006.59
8.77609 95.7372
8.9551 90.4385
9.13412 78.831
9.31318 79.3664
9.49226 80.9522
9.67134 97.4849
9.85047 95.2826
10.0296 264.17
10.2088 412.218
10.388 101.258
10.5672 511.961
10.7465 83.1263
10.9257 75.7471
11.105 69.4366
11.2844 69.2724
11.4637 62.5079
11.6431 61.703
11.8225 60.2953
12.002 60.9453
12.1814 143.612
12.3609 71.1606
12.5405 62.2773
12.72 69.9521
12.8996 68.0856
13.0792 75.2051
13.2589 211.792
13.4386 124.519
13.6183 226.852
13.7981 96.7439
13.9779 73.0495
14.1577 70.2106
14.3376 69.8567
14.5175 66.1601
14.6974 68.0947
14.8774 99.3928
15.0574 156.136
15.2374 69.2056
15.4175 63.9964
15.5976 63.4259
15.7778 86.5541
15.958 164.796
16.1382 61.8884
16.3185 56.8136
16.4988 53.8984
16.6792 52.7887
16.8596 53.5078
17.04 53.8567
17.2205 63.5458
17.401 70.1595
17.5815 57.2681
17.7622 59.1646
17.9428 69.0259
18.1237 139.507
18.3044 86.2906
18.4852 77.7395
18.666 58.8249
18.8469 56.2706
19.0278 55.1512
19.2088 57.1603
19.3898 75.8239
19.5709 52.8627
19.752 51.5343
19.9332 54.2015
20.1144 68.9954
20.2957 62.6275
20.477 52.638
20.6586 48.1862
20.84 47.565
21.0215 46.8543
21.203 49.3613
21.3846 47.6765
21.5662 47.2222
21.7479 50.5001
21.9297 63.8513
22.1115 55.1016
22.2933 48.7238
22.4753 47.7636
22.6572 47.2512
22.8393 50.0501
23.0214 56.9631
23.2037 47.5523
23.3859 48.0959
23.5682 56.2615
23.7505 47.5744
23.9329 44.0032
24.1154 42.9589
24.2979 42.2241
24.4805 41.6292
24.6631 41.7448
24.8458 41.0627
25.0286 41.5872
25.2114 43.5852
25.3943 43.9465
25.5773 40.0096
25.7605 39.2883
25.9436 39.7676
26.1268 40.9424
26.31 39.1272
26.4933 39.7906
26.6767 41.3075
26.8601 39.7308
27.0437 37.9643
27.2272 37.4965
27.4109 37.4292
27.5946 37.5109
27.7784 36.986
27.9623 37.4322
28.1462 38.0264
28.3304 36.4719
28.5145 35.0701
28.6987 34.7727
28.8829 34.6677
29.0673 33.9348
29.2517 33.4601
29.4361 33.3992
29.6207 32.4138
29.8053 32.0583
29.99 31.7666
30.1748 31.691
30.3597 31.5314
30.5447 31.3442
30.7297 31.4296
30.915 30.8969
31.1002 30.339
31.2855 30.133
31.4708 30.1126
31.6563 29.5922
31.8418 29.4011
32.0275 29.2387
32.2132 28.6453
32.399 28.2206
32.5848 27.9119
32.7708 27.5332
32.9569 27.3184
33.143 27.2145
33.3293 26.6863
33.5158 26.4111
33.7022 26.0404
33.8887 25.6608
34.0753 25.3934
34.262 25.1038
34.4488 24.7331
34.6357 24.4109
34.8227 24.1628
35.0098 23.9498
35.1969 23.6699
35.3842 23.4624
35.5716 23.2573
35.759 22.901
35.9468 22.5935
36.1345 22.4002
36.3222 22.1567
36.5101 21.8605
36.6981 21.6016
36.8861 21.3105
37.0743 21.027
37.2626 20.7694
37.451 20.4914
37.6395 20.4131
37.8281 19.9992
38.0168 19.7445
38.2056 19.5759
38.3945 19.2466
38.5837 18.9852
38.7728 18.783
38.9621 18.5335
39.1514 18.3349
39.3409 18.0736
39.5304 17.7983
39.7201 17.6171
39.9099 17.4041
40.0999 17.2131
40.2899 17.0024
40.48 16.7136
40.6703 16.5277
40.8607 16.3858
41.0512 16.084
41.242 15.8862
41.4327 15.7562
41.6236 15.504
41.8146 15.316
42.0057 15.16
42.1969 14.8907
42.3882 14.7445
42.5797 14.4833
42.7713 14.3441
42.963 14.158
43.1549 13.9185
43.3468 13.7741
43.5389 13.5479
43.7312 13.3704
43.9237 13.1954
44.1162 12.9817
44.3088 12.7672
44.5016 12.638
44.6945 12.4836
44.8875 12.2765
45.0806 12.1197
45.2739 11.9481
45.4673 11.8077
45.6609 11.5915
45.8546 11.419
46.0484 11.3069
46.2424 11.1406
46.4365 11.0049
46.631 10.7769
46.8254 10.6174
47.0199 10.5069
47.2146 10.3622
47.4095 10.1906
47.6044 10.0203
47.7996 9.90949
47.9948 9.71445
48.1902 9.61054
48.3858 9.48756
48.5815 9.35889
48.7774 9.17486
48.9734 9.08577
49.1696 8.9334
49.3661 8.77419
49.5626 8.63951
49.7592 8.51549
49.956 8.38532
50.153 8.28529
50.3501 8.1078
50.5474 7.99574
50.7448 7.88196
50.9424 7.76636
51.1402 7.64349
51.3381 7.527
51.5362 7.41512
51.7344 7.26995
51.9328 7.16041
52.1316 7.02695
52.3304 6.92376
52.5293 6.79733
52.7284 6.66472
52.9276 6.62695
53.1271 6.5304
53.3267 6.40718
53.5265 6.2635
53.7264 6.15538
53.9266 6.08195
54.1269 5.92605
54.3274 5.83807
54.528 5.66787
54.7289 5.53055
54.9301 5.40741
55.1314 5.2322
55.3328 5.03702
55.5344 4.84483
55.7361 4.76193