Folder: NiFe_MOF_catalyst_paper/XRD (part 76)

File: Ni3Fe_FD0405.xy
TT I
1.27165 7.74505
1.45013 6.28308
1.62863 5.99731
1.80712 4.82729
1.98562 4.78306
2.16411 5.39776
2.34263 5.50414
2.52115 6.19513
2.69965 7.17262
2.87818 8.13127
3.05672 11.2161
3.23527 14.8054
3.4138 19.397
3.59237 25.0233
3.77094 26.9758
3.9495 30.3261
4.12809 35.7831
4.30669 262.751
4.4853 71.2734
4.6639 56.3491
4.84253 68.2689
5.02118 88.9064
5.19981 430.354
5.37848 224.15
5.55716 105.243
5.73586 94.7959
5.91455 97.714
6.09328 3963.25
6.27201 87.2842
6.45075 69.2644
6.62952 64.8595
6.8083 60.3809
6.98711 57.5016
7.16591 57.1976
7.34475 102.203
7.5236 55.9343
7.70247 57.7001
7.88135 59.0663
8.06026 63.7749
8.23919 71.1226
8.41812 87.97
8.59709 1087.63
8.77609 104.737
8.9551 95.6108
9.13412 83.67
9.31318 84.6309
9.49226 86.2732
9.67134 102.78
9.85047 102.361
10.0296 364.062
10.2088 508.471
10.388 108.101
10.5672 477.539
10.7465 89.4598
10.9257 80.7256
11.105 73.6785
11.2844 72.9757
11.4637 66.4957
11.6431 65.0691
11.8225 64.1759
12.002 65.2575
12.1814 144.547
12.3609 74.2052
12.5405 66.0862
12.72 72.6593
12.8996 72.8412
13.0792 80.3895
13.2589 226.077
13.4386 138.786
13.6183 230.709
13.7981 106.814
13.9779 77.6854
14.1577 74.3117
14.3376 73.8673
14.5175 70.3315
14.6974 72.0928
14.8774 110.988
15.0574 165.741
15.2374 73.382
15.4175 67.9095
15.5976 67.373
15.7778 95.5585
15.958 171.16
16.1382 65.0907
16.3185 60.5065
16.4988 57.0214
16.6792 56.0207
16.8596 56.6803
17.04 57.2036
17.2205 67.0733
17.401 74.4984
17.5815 60.5108
17.7622 62.8369
17.9428 75.699
18.1237 137.071
18.3044 89.7615
18.4852 82.5754
18.666 61.8425
18.8469 59.36
19.0278 58.2599
19.2088 61.0549
19.3898 77.2498
19.5709 55.7267
19.752 54.6296
19.9332 57.4625
20.1144 70.6528
20.2957 64.0507
20.477 56.0145
20.6586 50.7565
20.84 49.9727
21.0215 49.8396
21.203 51.7793
21.3846 50.4186
21.5662 49.9235
21.7479 53.6496
21.9297 65.5943
22.1115 57.1079
22.2933 51.5531
22.4753 49.9595
22.6572 49.9495
22.8393 52.9655
23.0214 58.9827
23.2037 50.0407
23.3859 50.9727
23.5682 57.4769
23.7505 50.1577
23.9329 46.3314
24.1154 45.0916
24.2979 44.6919
24.4805 43.9416
24.6631 43.8882
24.8458 43.2183
25.0286 43.6932
25.2114 45.6699
25.3943 45.7895
25.5773 41.8579
25.7605 41.4196
25.9436 41.8198
26.1268 42.7358
26.31 41.0465
26.4933 41.7255
26.6767 43.0505
26.8601 41.511
27.0437 39.7758
27.2272 39.5171
27.4109 39.3398
27.5946 39.3069
27.7784 38.8919
27.9623 39.0774
28.1462 39.8142
28.3304 38.2037
28.5145 36.7742
28.6987 36.4129
28.8829 36.2336
29.0673 35.588
29.2517 35.2304
29.4361 34.952
29.6207 33.9879
29.8053 33.7337
29.99 33.4078
30.1748 33.2051
30.3597 33.1006
30.5447 32.8446
30.7297 33.1006
30.915 32.3509
31.1002 31.8886
31.2855 31.6444
31.4708 31.5887
31.6563 31.0491
31.8418 30.7509
32.0275 30.7165
32.2132 30.1485
32.399 29.6149
32.5848 29.1847
32.7708 28.837
32.9569 28.6214
33.143 28.4317
33.3293 28.074
33.5158 27.6853
33.7022 27.2366
33.8887 26.972
34.0753 26.6761
34.262 26.2986
34.4488 25.8871
34.6357 25.5951
34.8227 25.1585
35.0098 25.1285
35.1969 24.8282
35.3842 24.5487
35.5716 24.3432
35.759 24.0087
35.9468 23.5631
36.1345 23.4333
36.3222 23.1898
36.5101 22.9358
36.6981 22.6755
36.8861 22.3984
37.0743 22.0165
37.2626 21.7836
37.451 21.4704
37.6395 21.3095
37.8281 20.9738
38.0168 20.7311
38.2056 20.4904
38.3945 20.1966
38.5837 19.8999
38.7728 19.7031
38.9621 19.3937
39.1514 19.1312
39.3409 18.9157
39.5304 18.7319
39.7201 18.5193
39.9099 18.2554
40.0999 17.9986
40.2899 17.7679
40.48 17.4806
40.6703 17.3208
40.8607 17.1368
41.0512 16.8608
41.242 16.6126
41.4327 16.4538
41.6236 16.2305
41.8146 15.971
42.0057 15.7819
42.1969 15.567
42.3882 15.431
42.5797 15.162
42.7713 14.9581
42.963 14.7716
43.1549 14.5382
43.3468 14.3396
43.5389 14.1344
43.7312 13.9284
43.9237 13.7417
44.1162 13.6099
44.3088 13.4076
44.5016 13.2154
44.6945 13.0031
44.8875 12.8509
45.0806 12.6661
45.2739 12.517
45.4673 12.3507
45.6609 12.1212
45.8546 11.998
46.0484 11.813
46.2424 11.6061
46.4365 11.4961
46.631 11.2868
46.8254 11.1152
47.0199 10.9198
47.2146 10.8071
47.4095 10.6127
47.6044 10.4667
47.7996 10.3141
47.9948 10.1623
48.1902 10.0337
48.3858 9.91561
48.5815 9.75639
48.7774 9.61918
48.9734 9.49504
49.1696 9.33451
49.3661 9.18404
49.5626 9.02049
49.7592 8.91472
49.956 8.77202
50.153 8.6488
50.3501 8.51472
50.5474 8.38306
50.7448 8.22785
50.9424 8.10562
51.1402 7.98381
51.3381 7.85655
51.5362 7.75014
51.7344 7.58705
51.9328 7.46632
52.1316 7.33058
52.3304 7.24098
52.5293 7.11875
52.7284 6.9595
52.9276 6.83229
53.1271 6.79075
53.3267 6.66526
53.5265 6.52341
53.7264 6.43091
53.9266 6.32635
54.1269 6.20084
54.3274 6.08348
54.528 5.93145
54.7289 5.78224
54.9301 5.60601
55.1314 5.52098
55.3328 5.24309
55.5344 5.03429
55.7361 4.91194

File: Ni3Fe_FD0406.xy
TT I
1.27165 7.13663
1.45013 5.99911
1.62863 5.8049
1.80712 5.01289
1.98562 4.76465
2.16411 5.08122
2.34263 5.11005
2.52115 6.47107
2.69965 7.92256
2.87818 8.40886
3.05672 11.2637
3.23527 15.0596
3.4138 19.2393
3.59237 24.6605
3.77094 26.4336
3.9495 30.4007
4.12809 35.325
4.30669 264.789
4.4853 71.3424
4.6639 56.7462
4.84253 68.2956
5.02118 88.8686
5.19981 428.008
5.37848 224.774
5.55716 104.992
5.73586 94.7317
5.91455 97.4337
6.09328 3934.68
6.27201 86.9831
6.45075 68.9761
6.62952 64.4307
6.8083 60.393
6.98711 57.3296
7.16591 56.9636
7.34475 103.241
7.5236 56.3469
7.70247 57.5801
7.88135 59.1607
8.06026 63.264
8.23919 70.8313
8.41812 87.9811
8.59709 1090.93
8.77609 104.876
8.9551 95.1512
9.13412 83.8439
9.31318 84.9811
9.49226 85.9125
9.67134 102.637
9.85047 102.642
10.0296 363.393
10.2088 511.947
10.388 108.12
10.5672 476.852
10.7465 89.22
10.9257 80.5674
11.105 73.5881
11.2844 72.9642
11.4637 66.4501
11.6431 65.2101
11.8225 63.9449
12.002 65.1754
12.1814 144.117
12.3609 74.2963
12.5405 66.2204
12.72 72.7214
12.8996 72.3584
13.0792 80.6348
13.2589 225.772
13.4386 138.759
13.6183 230.196
13.7981 106.67
13.9779 77.4265
14.1577 74.4887
14.3376 73.6985
14.5175 70.4186
14.6974 72.3022
14.8774 110.653
15.0574 166.61
15.2374 73.2983
15.4175 68.0127
15.5976 67.1555
15.7778 96.0243
15.958 171.427
16.1382 65.0429
16.3185 60.2912
16.4988 56.7737
16.6792 55.6019
16.8596 56.7258
17.04 57.1238
17.2205 67.0693
17.401 74.3341
17.5815 60.5209
17.7622 62.5979
17.9428 75.5958
18.1237 137.169
18.3044 89.7621
18.4852 82.894
18.666 61.7803
18.8469 59.3228
19.0278 58.4104
19.2088 61.1409
19.3898 77.5379
19.5709 55.7228
19.752 54.4491
19.9332 57.6145
20.1144 70.5602
20.2957 63.9341
20.477 55.8354
20.6586 50.8717
20.84 49.9638
21.0215 49.7894
21.203 51.8233
21.3846 50.5302
21.5662 49.8705
21.7479 53.5776
21.9297 65.4154
22.1115 57.1351
22.2933 51.4778
22.4753 50.1717
22.6572 50.1802
22.8393 52.8865
23.0214 59.2057
23.2037 50.145
23.3859 50.8598
23.5682 57.3954
23.7505 50.0219
23.9329 46.3729
24.1154 45.4404
24.2979 44.5712
24.4805 43.8981
24.6631 43.7643
24.8458 43.3603
25.0286 43.8213
25.2114 45.7609
25.3943 45.8763
25.5773 42.0272
25.7605 41.449
25.9436 41.6875
26.1268 42.7218
26.31 41.0889
26.4933 41.675
26.6767 43.1025
26.8601 41.4004
27.0437 39.9148
27.2272 39.4067
27.4109 39.2526
27.5946 39.3036
27.7784 38.8273
27.9623 39.2055
28.1462 39.8398
28.3304 38.1493
28.5145 36.7796
28.6987 36.4757
28.8829 36.3718
29.0673 35.5377
29.2517 35.2606
29.4361 34.9597
29.6207 34.1032
29.8053 33.7458
29.99 33.4619
30.1748 33.1815
30.3597 33.0513
30.5447 32.9185
30.7297 32.9402
30.915 32.3594
31.1002 31.8121
31.2855 31.6155
31.4708 31.5013
31.6563 31.2448
31.8418 30.9205
32.0275 30.726
32.2132 30.0754
32.399 29.6049
32.5848 29.1896
32.7708 28.8434
32.9569 28.6906
33.143 28.4341
33.3293 28.1385
33.5158 27.7536
33.7022 27.2186
33.8887 26.9883
34.0753 26.7146
34.262 26.2652
34.4488 25.9797
34.6357 25.6839
34.8227 25.3493
35.0098 25.0791
35.1969 24.7126
35.3842 24.4993
35.5716 24.32
35.759 24.0353
35.9468 23.7043
36.1345 23.4194
36.3222 23.178
36.5101 22.9401
36.6981 22.6377
36.8861 22.4035
37.0743 22.0121
37.2626 21.752
37.451 21.4354
37.6395 21.2759
37.8281 21.0186
38.0168 20.647
38.2056 20.4626
38.3945 20.1689
38.5837 19.8704
38.7728 19.6763
38.9621 19.3999
39.1514 19.165
39.3409 18.8941
39.5304 18.624
39.7201 18.472
39.9099 18.2153
40.0999 17.9724
40.2899 17.7959
40.48 17.4553
40.6703 17.2849
40.8607 17.1683
41.0512 16.9055
41.242 16.6389
41.4327 16.496
41.6236 16.1877
41.8146 16.0497
42.0057 15.8047
42.1969 15.5344
42.3882 15.3858
42.5797 15.1659
42.7713 15.0113
42.963 14.753
43.1549 14.5617
43.3468 14.3258
43.5389 14.1806
43.7312 13.9705
43.9237 13.8013
44.1162 13.6057
44.3088 13.4205
44.5016 13.212
44.6945 13.0035
44.8875 12.8455
45.0806 12.6504
45.2739 12.5241
45.4673 12.3321
45.6609 12.116
45.8546 11.957
46.0484 11.804
46.2424 11.6115
46.4365 11.4654
46.631 11.2938
46.8254 11.1068
47.0199 10.9413
47.2146 10.81
47.4095 10.6025
47.6044 10.4876
47.7996 10.3517
47.9948 10.198
48.1902 10.0323
48.3858 9.91097
48.5815 9.78865
48.7774 9.61214
48.9734 9.49786
49.1696 9.3374
49.3661 9.17175
49.5626 9.03873
49.7592 8.90636
49.956 8.77939
50.153 8.63698
50.3501 8.47401
50.5474 8.37853
50.7448 8.25126
50.9424 8.12514
51.1402 8.00263
51.3381 7.88061
51.5362 7.74987
51.7344 7.60815
51.9328 7.49569
52.1316 7.33464
52.3304 7.21518
52.5293 7.13393
52.7284 6.99112
52.9276 6.90942
53.1271 6.79557
53.3267 6.65252
53.5265 6.50355
53.7264 6.45088
53.9266 6.29987
54.1269 6.16307
54.3274 6.06047
54.528 5.91623
54.7289 5.73413
54.9301 5.62311
55.1314 5.4784
55.3328 5.24726
55.5344 5.0761
55.7361 4.91844

File: Ni3Fe_FD0407.xy
TT I
1.27165 7.34821
1.45013 6.46871
1.62863 5.207
1.80712 5.05565
1.98562 5.35899
2.16411 5.46292
2.34263 5.66552
2.52115 6.31825
2.69965 7.36092
2.87818 8.84955
3.05672 11.0833
3.23527 14.6487
3.4138 19.3395
3.59237 25.1324
3.77094 26.6024
3.9495 30.3732
4.12809 35.5979
4.30669 266.625
4.4853 71.3221
4.6639 56.0035
4.84253 68.1452
5.02118 88.505
5.19981 427.218
5.37848 224.927
5.55716 104.898
5.73586 94.4468
5.91455 97.295
6.09328 3913.16
6.27201 87.3455
6.45075 68.9725
6.62952 64.7417
6.8083 59.9265
6.98711 57.2761
7.16591 56.979
7.34475 103.753
7.5236 56.0091
7.70247 57.5974
7.88135 59.0592
8.06026 63.7991
8.23919 70.9697
8.41812 87.5983
8.59709 1086.16
8.77609 104.369
8.9551 95.2193
9.13412 83.5943
9.31318 84.1547
9.49226 86.1516
9.67134 102.936
9.85047 102.192
10.0296 363.526
10.2088 512.232
10.388 107.552
10.5672 474.034
10.7465 88.818
10.9257 80.6967
11.105 73.3128
11.2844 73.0567
11.4637 66.3605
11.6431 65.2339
11.8225 63.6429
12.002 64.9324
12.1814 143.996
12.3609 74.489
12.5405 66.0592
12.72 72.5823
12.8996 72.745
13.0792 80.7206
13.2589 225.533
13.4386 138.627
13.6183 229.502
13.7981 106.53
13.9779 77.3849
14.1577 74.3671
14.3376 73.6614
14.5175 70.2438
14.6974 72.1482
14.8774 110.632
15.0574 166.822
15.2374 73.6532
15.4175 67.9863
15.5976 67.5391
15.7778 95.6968
15.958 171.379
16.1382 65.0304
16.3185 60.2571
16.4988 56.8028
16.6792 55.9894
16.8596 56.4278
17.04 57.1993
17.2205 67.088
17.401 74.3913
17.5815 60.5543
17.7622 62.5793
17.9428 75.6565
18.1237 137.272
18.3044 89.6297
18.4852 82.929
18.666 61.938
18.8469 59.2417
19.0278 58.4903
19.2088 61.0301
19.3898 77.4697
19.5709 55.6456
19.752 54.5002
19.9332 57.4802
20.1144 70.6511
20.2957 63.9128
20.477 55.9006
20.6586 50.8267
20.84 50.1117
21.0215 49.7562
21.203 51.8546
21.3846 50.2254
21.5662 49.7993
21.7479 53.6549
21.9297 65.5627
22.1115 57.1032
22.2933 51.4456
22.4753 50.1917
22.6572 49.9611
22.8393 52.7253
23.0214 58.9632
23.2037 50.1526
23.3859 50.8977
23.5682 57.2446
23.7505 50.0126
23.9329 46.217
24.1154 45.2559
24.2979 44.4959
24.4805 43.8872
24.6631 43.864
24.8458 43.3615
25.0286 43.7472
25.2114 45.7234
25.3943 45.6718
25.5773 42.0275
25.7605 41.4278
25.9436 41.8431
26.1268 42.7118
26.31 41.2068
26.4933 41.8036
26.6767 43.179
26.8601 41.4839
27.0437 39.9191
27.2272 39.4922
27.4109 39.3065
27.5946 39.2999
27.7784 38.897
27.9623 39.2176
28.1462 39.6797
28.3304 38.1394
28.5145 36.6713
28.6987 36.5372
28.8829 36.2519
29.0673 35.6555
29.2517 35.0971
29.4361 34.9442
29.6207 34.0215
29.8053 33.6608
29.99 33.2865
30.1748 33.1868
30.3597 32.9761
30.5447 32.9952
30.7297 32.9341
30.915 32.3851
31.1002 31.9258
31.2855 31.6881
31.4708 31.5563
31.6563 31.0861
31.8418 30.8858
32.0275 30.6006
32.2132 30.0457
32.399 29.5718
32.5848 29.1397
32.7708 28.8907
32.9569 28.6516
33.143 28.4017
33.3293 28.046
33.5158 27.7519
33.7022 27.2194
33.8887 26.9052
34.0753 26.6252
34.262 26.2559
34.4488 25.9471
34.6357 25.4957
34.8227 25.2574
35.0098 25.1177
35.1969 24.7454
35.3842 24.5214
35.5716 24.3419
35.759 24.0356
35.9468 23.6995
36.1345 23.4155
36.3222 23.166
36.5101 22.9611
36.6981 22.6199
36.8861 22.3305
37.0743 22.0905
37.2626 21.7691
37.451 21.5387
37.6395 21.3077
37.8281 20.9739
38.0168 20.6608
38.2056 20.4256
38.3945 20.082
38.5837 19.8899
38.7728 19.6689
38.9621 19.406
39.1514 19.1668
39.3409 18.8722
39.5304 18.6996
39.7201 18.4309
39.9099 18.2233
40.0999 18.0389
40.2899 17.7959
40.48 17.5078
40.6703 17.3211
40.8607 17.0886
41.0512 16.8883
41.242 16.6192
41.4327 16.4575
41.6236 16.1623
41.8146 16.0208
42.0057 15.7481
42.1969 15.5373
42.3882 15.3652
42.5797 15.1776
42.7713 14.98
42.963 14.7919
43.1549 14.5845
43.3468 14.3763
43.5389 14.1676
43.7312 13.9965
43.9237 13.7997
44.1162 13.5296
44.3088 13.4281
44.5016 13.2016
44.6945 13.044
44.8875 12.8723
45.0806 12.6667
45.2739 12.4813
45.4673 12.3315
45.6609 12.1106
45.8546 11.9843
46.0484 11.7553
46.2424 11.619
46.4365 11.4289
46.631 11.3039
46.8254 11.1023
47.0199 10.9619
47.2146 10.815
47.4095 10.6212
47.6044 10.4862
47.7996 10.321
47.9948 10.1645
48.1902 10.0395
48.3858 9.85956
48.5815 9.70802
48.7774 9.6171
48.9734 9.5098
49.1696 9.32981
49.3661 9.15233
49.5626 9.039
49.7592 8.90042
49.956 8.75371
50.153 8.64864
50.3501 8.50882
50.5474 8.3901
50.7448 8.22397
50.9424 8.10124
51.1402 8.00619
51.3381 7.87182
51.5362 7.74284
51.7344 7.59985
51.9328 7.47159
52.1316 7.3463
52.3304 7.22396
52.5293 7.10046
52.7284 7.00591
52.9276 6.86993
53.1271 6.77853
53.3267 6.69058
53.5265 6.52964
53.7264 6.43721
53.9266 6.33628
54.1269 6.18944
54.3274 6.06874
54.528 5.91939
54.7289 5.74519
54.9301 5.62551
55.1314 5.48561
55.3328 5.27809
55.5344 5.12282
55.7361 4.89398

File: Ni3Fe_FD0408.xy
TT I
1.27165 7.87793
1.45013 5.93284
1.62863 5.01297
1.80712 4.75609
1.98562 5.15572
2.16411 5.1545
2.34263 5.25614
2.52115 6.60659
2.69965 7.02228
2.87818 8.85821
3.05672 10.7967
3.23527 15.3169
3.4138 19.3537
3.59237 24.5287
3.77094 26.9122
3.9495 30.486
4.12809 35.2646
4.30669 268.207
4.4853 71.2634
4.6639 56.0159
4.84253 67.8037
5.02118 89.1238
5.19981 426.494
5.37848 224.67
5.55716 104.954
5.73586 94.2893
5.91455 97.1505
6.09328 3904.08
6.27201 87.2324
6.45075 69.5875
6.62952 64.5686
6.8083 60.5569
6.98711 57.1572
7.16591 56.9592
7.34475 103.836
7.5236 56.0
7.70247 57.5032
7.88135 58.9098
8.06026 63.5484
8.23919 71.08
8.41812 87.9328
8.59709 1084.18
8.77609 104.896
8.9551 95.1849
9.13412 83.8438
9.31318 84.7173
9.49226 86.1565
9.67134 102.781
9.85047 102.571
10.0296 363.325
10.2088 509.385
10.388 108.232
10.5672 472.365
10.7465 89.0964
10.9257 80.6929
11.105 73.8011
11.2844 72.9084
11.4637 66.4162
11.6431 65.0661
11.8225 63.9379
12.002 64.8717
12.1814 144.071
12.3609 74.4167
12.5405 66.1716
12.72 72.5037
12.8996 72.5511
13.0792 80.6225
13.2589 225.118
13.4386 138.398
13.6183 229.52
13.7981 106.311
13.9779 77.4723
14.1577 74.5135
14.3376 73.8096
14.5175 70.426
14.6974 72.006
14.8774 110.316
15.0574 166.208
15.2374 73.3255
15.4175 67.9329
15.5976 67.3478
15.7778 95.6362
15.958 171.498
16.1382 65.1764
16.3185 60.5406
16.4988 57.0261
16.6792 55.9191
16.8596 56.6334
17.04 57.1882
17.2205 67.0238
17.401 74.5129
17.5815 60.8643
17.7622 62.6713
17.9428 75.6844
18.1237 137.027
18.3044 89.3829
18.4852 82.7039
18.666 62.0957
18.8469 59.3902
19.0278 58.3205
19.2088 61.1243
19.3898 77.7735
19.5709 55.7886
19.752 54.5102
19.9332 57.4844
20.1144 70.8761
20.2957 64.1742
20.477 55.8902
20.6586 50.9072
20.84 50.0719
21.0215 49.697
21.203 51.8006
21.3846 50.3593
21.5662 49.9632
21.7479 53.5327
21.9297 65.6456
22.1115 56.9866
22.2933 51.4163
22.4753 50.2395
22.6572 50.0517
22.8393 52.7425
23.0214 58.9772
23.2037 50.0388
23.3859 50.7285
23.5682 57.2498
23.7505 50.0384
23.9329 46.3395
24.1154 45.1218
24.2979 44.5539
24.4805 43.8786
24.6631 43.929
24.8458 43.2327
25.0286 43.804
25.2114 45.6852
25.3943 45.7777
25.5773 41.8627
25.7605 41.5951
25.9436 41.7182
26.1268 42.6782
26.31 41.1481
26.4933 41.6934
26.6767 43.0654
26.8601 41.4835
27.0437 39.8383
27.2272 39.4335
27.4109 39.3073
27.5946 39.3717
27.7784 38.8292
27.9623 39.1859
28.1462 39.9164
28.3304 38.0988
28.5145 36.716
28.6987 36.3772
28.8829 36.0781
29.0673 35.454
29.2517 35.1137
29.4361 35.1015
29.6207 33.8551
29.8053 33.5998
29.99 33.3299
30.1748 33.1696
30.3597 33.1071
30.5447 32.8999
30.7297 32.9577
30.915 32.3247
31.1002 31.9467
31.2855 31.6305
31.4708 31.5637
31.6563 31.0959
31.8418 30.8417
32.0275 30.609
32.2132 30.1784
32.399 29.6498
32.5848 29.1236
32.7708 28.8811
32.9569 28.7462
33.143 28.4211
33.3293 28.1037
33.5158 27.6022
33.7022 27.2275
33.8887 26.8552
34.0753 26.6183
34.262 26.2632
34.4488 25.9794
34.6357 25.6604
34.8227 25.3391
35.0098 25.1077
35.1969 24.8263
35.3842 24.5376
35.5716 24.3405
35.759 24.0737
35.9468 23.6996
36.1345 23.3837
36.3222 23.2313
36.5101 23.0024
36.6981 22.6449
36.8861 22.3597
37.0743 21.9715
37.2626 21.8104
37.451 21.4676
37.6395 21.3597
37.8281 20.9448
38.0168 20.686
38.2056 20.4144
38.3945 20.156
38.5837 19.886
38.7728 19.6379
38.9621 19.3817
39.1514 19.1591
39.3409 18.924
39.5304 18.7037
39.7201 18.5205
39.9099 18.2277
40.0999 18.0242
40.2899 17.7515
40.48 17.5253
40.6703 17.3245
40.8607 17.1802
41.0512 16.9203
41.242 16.654
41.4327 16.4325
41.6236 16.2204
41.8146 16.0594
42.0057 15.845
42.1969 15.6132
42.3882 15.4323
42.5797 15.1736
42.7713 14.9234
42.963 14.7559
43.1549 14.5893
43.3468 14.324
43.5389 14.1353
43.7312 13.9189
43.9237 13.7693
44.1162 13.5513
44.3088 13.4086
44.5016 13.213
44.6945 13.04
44.8875 12.8334
45.0806 12.6774
45.2739 12.5023
45.4673 12.3303
45.6609 12.1699
45.8546 11.9418
46.0484 11.781
46.2424 11.5947
46.4365 11.5015
46.631 11.2731
46.8254 11.0781
47.0199 10.9647
47.2146 10.8209
47.4095 10.6258
47.6044 10.4584
47.7996 10.3608
47.9948 10.1677
48.1902 10.0552
48.3858 9.88595
48.5815 9.75663
48.7774 9.60906
48.9734 9.47136
49.1696 9.29375
49.3661 9.17832
49.5626 9.01089
49.7592 8.92351
49.956 8.78202
50.153 8.6461
50.3501 8.47956
50.5474 8.40455
50.7448 8.25194
50.9424 8.1042
51.1402 8.03797
51.3381 7.81524
51.5362 7.71965
51.7344 7.61398
51.9328 7.47853
52.1316 7.3467
52.3304 7.24078
52.5293 7.09081
52.7284 6.96197
52.9276 6.8875
53.1271 6.7811
53.3267 6.61696
53.5265 6.52349
53.7264 6.41878
53.9266 6.29029
54.1269 6.17484
54.3274 6.09126
54.528 5.8922
54.7289 5.79917
54.9301 5.58744
55.1314 5.48971
55.3328 5.20742
55.5344 5.13753
55.7361 4.94324

File: Ni3Fe_FD0409.xy
TT I
1.27165 7.8909
1.45013 6.30629
1.62863 5.26605
1.80712 5.19353
1.98562 5.20277
2.16411 5.06878
2.34263 5.38692
2.52115 6.04147
2.69965 7.48369
2.87818 8.47966
3.05672 11.3202
3.23527 15.3951
3.4138 19.1573
3.59237 24.5277
3.77094 26.2866
3.9495 30.6137
4.12809 35.9367
4.30669 266.602
4.4853 71.7172
4.6639 56.7623
4.84253 68.701
5.02118 89.1525
5.19981 434.687
5.37848 222.744
5.55716 104.95
5.73586 94.4238
5.91455 97.9477
6.09328 3945.28
6.27201 86.9117
6.45075 69.06
6.62952 64.5905
6.8083 60.681
6.98711 57.3613
7.16591 57.1041
7.34475 102.624
7.5236 56.4931
7.70247 57.7046
7.88135 59.5727
8.06026 63.5593
8.23919 71.1449
8.41812 88.3329
8.59709 1088.91
8.77609 104.751
8.9551 95.7904
9.13412 84.0634
9.31318 84.7307
9.49226 86.3362
9.67134 103.065
9.85047 102.561
10.0296 364.947
10.2088 493.647
10.388 108.263
10.5672 476.427
10.7465 89.145
10.9257 81.1466
11.105 73.9127
11.2844 72.7502
11.4637 66.5393
11.6431 65.3386
11.8225 64.148
12.002 65.3452
12.1814 144.648
12.3609 74.5439
12.5405 66.2299
12.72 72.3859
12.8996 72.733
13.0792 80.6172
13.2589 226.046
13.4386 137.343
13.6183 229.853
13.7981 105.599
13.9779 77.7882
14.1577 74.6005
14.3376 74.3102
14.5175 70.494
14.6974 72.2928
14.8774 111.026
15.0574 163.887
15.2374 73.8638
15.4175 68.0272
15.5976 67.5535
15.7778 95.6167
15.958 170.102
16.1382 64.9149
16.3185 60.7314
16.4988 57.0597
16.6792 56.1036
16.8596 56.7368
17.04 57.2479
17.2205 67.2869
17.401 74.019
17.5815 60.9027
17.7622 62.7413
17.9428 75.7865
18.1237 137.206
18.3044 89.2385
18.4852 82.2538
18.666 62.0604
18.8469 59.5473
19.0278 58.3354
19.2088 61.0606
19.3898 77.5686
19.5709 55.8469
19.752 54.5245
19.9332 57.5204
20.1144 70.7075
20.2957 64.1837
20.477 55.6571
20.6586 50.914
20.84 50.0364
21.0215 50.039
21.203 51.8233
21.3846 50.4096
21.5662 49.9354
21.7479 53.7098
21.9297 65.5019
22.1115 56.9498
22.2933 51.4652
22.4753 50.2243
22.6572 50.0594
22.8393 52.7405
23.0214 59.0493
23.2037 50.2051
23.3859 50.8865
23.5682 57.2297
23.7505 50.1758
23.9329 46.4767
24.1154 45.2961
24.2979 44.5242
24.4805 43.8812
24.6631 43.9015
24.8458 43.2065
25.0286 43.7263
25.2114 45.5765
25.3943 45.771
25.5773 42.1095
25.7605 41.4732
25.9436 41.8443
26.1268 42.7414
26.31 41.0094
26.4933 41.5738
26.6767 43.1436
26.8601 41.3243
27.0437 39.8525
27.2272 39.505
27.4109 39.1833
27.5946 39.2509
27.7784 38.776
27.9623 39.2854
28.1462 39.6896
28.3304 38.2167
28.5145 36.7609
28.6987 36.4379
28.8829 36.2445
29.0673 35.4008
29.2517 35.1568
29.4361 35.0147
29.6207 33.8877
29.8053 33.5621
29.99 33.328
30.1748 33.2799
30.3597 33.0963
30.5447 32.9027
30.7297 32.9346
30.915 32.3772
31.1002 31.9318
31.2855 31.4442
31.4708 31.5263
31.6563 31.1048
31.8418 30.7372
32.0275 30.6423
32.2132 30.0654
32.399 29.6526
32.5848 29.2432
32.7708 28.7776
32.9569 28.6535
33.143 28.4065
33.3293 28.0981
33.5158 27.6657
33.7022 27.2515
33.8887 26.9405
34.0753 26.6287
34.262 26.2848
34.4488 25.8567
34.6357 25.6075
34.8227 25.255
35.0098 25.0443
35.1969 24.8494
35.3842 24.5508
35.5716 24.4251
35.759 24.0542
35.9468 23.6421
36.1345 23.4684
36.3222 23.2167
36.5101 22.9579
36.6981 22.6872
36.8861 22.3753
37.0743 22.0338
37.2626 21.7854
37.451 21.415
37.6395 21.3194
37.8281 20.9558
38.0168 20.745
38.2056 20.4502
38.3945 20.1342
38.5837 19.8893
38.7728 19.6982
38.9621 19.4084
39.1514 19.2268
39.3409 18.8717
39.5304 18.6889
39.7201 18.4781
39.9099 18.2648
40.0999 17.9858
40.2899 17.7887
40.48 17.5834
40.6703 17.3897
40.8607 17.1398
41.0512 16.9148
41.242 16.6262
41.4327 16.4202
41.6236 16.1955
41.8146 16.0301
42.0057 15.7957
42.1969 15.5865
42.3882 15.3972
42.5797 15.1903
42.7713 14.9638
42.963 14.7728
43.1549 14.5641
43.3468 14.2813
43.5389 14.0879
43.7312 13.955
43.9237 13.7329
44.1162 13.5787
44.3088 13.3871
44.5016 13.2184
44.6945 12.9836
44.8875 12.8737
45.0806 12.6709
45.2739 12.4936
45.4673 12.2987
45.6609 12.1037
45.8546 11.9547
46.0484 11.7974
46.2424 11.609
46.4365 11.4417
46.631 11.2618
46.8254 11.134
47.0199 10.9534
47.2146 10.8127
47.4095 10.6015
47.6044 10.5159
47.7996 10.3281
47.9948 10.1945
48.1902 10.0361
48.3858 9.86489
48.5815 9.74777
48.7774 9.61651
48.9734 9.4699
49.1696 9.30127
49.3661 9.21271
49.5626 9.03321
49.7592 8.91289
49.956 8.78132
50.153 8.60797
50.3501 8.47357
50.5474 8.37451
50.7448 8.26019
50.9424 8.09466
51.1402 8.00681
51.3381 7.83789
51.5362 7.73697
51.7344 7.61233
51.9328 7.45838
52.1316 7.32599
52.3304 7.24805
52.5293 7.1093
52.7284 6.98161
52.9276 6.88022
53.1271 6.78521
53.3267 6.66567
53.5265 6.50136
53.7264 6.42206
53.9266 6.29078
54.1269 6.19312
54.3274 6.06207
54.528 5.96243
54.7289 5.77453
54.9301 5.63843
55.1314 5.44214
55.3328 5.2504
55.5344 5.13628
55.7361 4.93935