Folder: NiFe_MOF_catalyst_paper/XRD (part 82)

File: Ni3Fe_FD0438.xy
TT I
1.27165 7.42397
1.45013 5.951
1.62863 5.15504
1.80712 4.37922
1.98562 4.77998
2.16411 4.59159
2.34263 5.29502
2.52115 6.50634
2.69965 7.02014
2.87818 8.55869
3.05672 11.1386
3.23527 15.1189
3.4138 18.7045
3.59237 23.6933
3.77094 26.2504
3.9495 29.9641
4.12809 35.0652
4.30669 182.08
4.4853 62.5446
4.6639 56.0615
4.84253 67.9478
5.02118 89.5807
5.19981 457.77
5.37848 205.734
5.55716 104.007
5.73586 94.339
5.91455 98.0223
6.09328 4226.54
6.27201 84.3493
6.45075 68.5645
6.62952 63.4845
6.8083 59.2189
6.98711 56.3515
7.16591 55.8376
7.34475 84.9438
7.5236 55.5719
7.70247 56.982
7.88135 58.6562
8.06026 63.414
8.23919 70.6155
8.41812 87.1504
8.59709 1221.58
8.77609 101.721
8.9551 92.0899
9.13412 83.086
9.31318 83.9906
9.49226 86.1416
9.67134 98.5154
9.85047 101.916
10.0296 391.145
10.2088 431.83
10.388 107.039
10.5672 508.982
10.7465 87.982
10.9257 79.2341
11.105 72.4225
11.2844 71.0598
11.4637 65.7818
11.6431 64.5847
11.8225 63.498
12.002 64.8998
12.1814 153.477
12.3609 70.6799
12.5405 65.4422
12.72 70.3129
12.8996 72.2725
13.0792 80.7768
13.2589 244.222
13.4386 127.317
13.6183 248.744
13.7981 98.6861
13.9779 76.9082
14.1577 73.6076
14.3376 72.4295
14.5175 70.0437
14.6974 71.8199
14.8774 115.83
15.0574 152.978
15.2374 71.6793
15.4175 67.314
15.5976 66.8459
15.7778 99.3074
15.958 158.987
16.1382 63.4237
16.3185 59.329
16.4988 56.2995
16.6792 55.4355
16.8596 56.0925
17.04 56.9852
17.2205 67.9913
17.401 72.2926
17.5815 60.1439
17.7622 62.2991
17.9428 76.5707
18.1237 139.075
18.3044 91.4959
18.4852 78.7086
18.666 61.4361
18.8469 59.0581
19.0278 57.844
19.2088 60.4945
19.3898 77.2755
19.5709 55.1352
19.752 54.2512
19.9332 57.4762
20.1144 70.7736
20.2957 64.4184
20.477 54.5666
20.6586 50.4448
20.84 49.7087
21.0215 49.4524
21.203 51.5589
21.3846 49.7887
21.5662 49.8113
21.7479 53.7239
21.9297 65.5977
22.1115 56.679
22.2933 50.728
22.4753 49.7588
22.6572 49.7391
22.8393 52.8654
23.0214 58.4423
23.2037 49.6891
23.3859 50.7934
23.5682 57.4312
23.7505 49.1323
23.9329 46.0394
24.1154 44.9723
24.2979 44.177
24.4805 43.5952
24.6631 43.5164
24.8458 43.0121
25.0286 43.6689
25.2114 45.364
25.3943 45.3944
25.5773 41.6563
25.7605 41.1029
25.9436 41.6263
26.1268 42.4142
26.31 40.8583
26.4933 41.5299
26.6767 42.9707
26.8601 41.1166
27.0437 39.5287
27.2272 39.1541
27.4109 39.0007
27.5946 38.9781
27.7784 38.5597
27.9623 39.0509
28.1462 39.4349
28.3304 37.8281
28.5145 36.6214
28.6987 36.2619
28.8829 36.0207
29.0673 35.2923
29.2517 34.8718
29.4361 34.7317
29.6207 33.6177
29.8053 33.4651
29.99 33.158
30.1748 32.9288
30.3597 32.8421
30.5447 32.6731
30.7297 32.7635
30.915 32.1647
31.1002 31.6125
31.2855 31.3524
31.4708 31.3028
31.6563 30.9253
31.8418 30.6002
32.0275 30.4609
32.2132 30.0208
32.399 29.5154
32.5848 28.9679
32.7708 28.646
32.9569 28.4553
33.143 28.214
33.3293 27.9099
33.5158 27.4951
33.7022 27.1108
33.8887 26.8103
34.0753 26.467
34.262 26.1389
34.4488 25.715
34.6357 25.31
34.8227 25.0516
35.0098 24.9164
35.1969 24.6018
35.3842 24.3382
35.5716 24.1951
35.759 23.8763
35.9468 23.4881
36.1345 23.3166
36.3222 23.0931
36.5101 22.7699
36.6981 22.5094
36.8861 22.1158
37.0743 21.8862
37.2626 21.5786
37.451 21.357
37.6395 21.2152
37.8281 20.8462
38.0168 20.5825
38.2056 20.2537
38.3945 20.0215
38.5837 19.8283
38.7728 19.5734
38.9621 19.3293
39.1514 19.0654
39.3409 18.7808
39.5304 18.5716
39.7201 18.3733
39.9099 18.1187
40.0999 17.8723
40.2899 17.6462
40.48 17.4611
40.6703 17.2151
40.8607 16.9652
41.0512 16.8061
41.242 16.5085
41.4327 16.322
41.6236 16.139
41.8146 15.8834
42.0057 15.6583
42.1969 15.4819
42.3882 15.2978
42.5797 15.0601
42.7713 14.8896
42.963 14.6275
43.1549 14.4857
43.3468 14.255
43.5389 14.127
43.7312 13.8818
43.9237 13.7134
44.1162 13.4641
44.3088 13.2967
44.5016 13.1257
44.6945 12.9427
44.8875 12.7362
45.0806 12.568
45.2739 12.3781
45.4673 12.2349
45.6609 12.0591
45.8546 11.8849
46.0484 11.7139
46.2424 11.5174
46.4365 11.3964
46.631 11.1953
46.8254 11.0364
47.0199 10.8774
47.2146 10.7533
47.4095 10.5354
47.6044 10.4033
47.7996 10.2297
47.9948 10.1298
48.1902 9.9509
48.3858 9.81693
48.5815 9.66126
48.7774 9.5085
48.9734 9.38504
49.1696 9.27769
49.3661 9.1051
49.5626 8.93559
49.7592 8.86805
49.956 8.68045
50.153 8.56689
50.3501 8.46262
50.5474 8.29665
50.7448 8.18342
50.9424 8.06817
51.1402 7.9513
51.3381 7.77882
51.5362 7.68727
51.7344 7.56354
51.9328 7.46614
52.1316 7.29702
52.3304 7.20204
52.5293 7.09359
52.7284 6.97918
52.9276 6.82379
53.1271 6.74793
53.3267 6.57154
53.5265 6.50496
53.7264 6.36633
53.9266 6.2404
54.1269 6.14112
54.3274 6.04112
54.528 5.87735
54.7289 5.73445
54.9301 5.61897
55.1314 5.41521
55.3328 5.24831
55.5344 5.04736
55.7361 4.88594

File: Ni3Fe_FD0439.xy
TT I
1.27165 7.27345
1.45013 6.14836
1.62863 5.40059
1.80712 5.21834
1.98562 4.19739
2.16411 4.02275
2.34263 5.33231
2.52115 6.3899
2.69965 7.42063
2.87818 8.9169
3.05672 10.9908
3.23527 15.0261
3.4138 18.6624
3.59237 23.9701
3.77094 26.4443
3.9495 29.9246
4.12809 34.9622
4.30669 176.79
4.4853 62.2284
4.6639 56.5604
4.84253 68.6266
5.02118 89.4533
5.19981 463.502
5.37848 205.362
5.55716 104.58
5.73586 94.4637
5.91455 98.8978
6.09328 4343.39
6.27201 84.5494
6.45075 68.323
6.62952 63.4477
6.8083 59.3791
6.98711 56.6925
7.16591 56.0811
7.34475 84.1014
7.5236 55.1382
7.70247 56.8002
7.88135 58.7581
8.06026 63.3715
8.23919 70.6394
8.41812 87.2464
8.59709 1225.17
8.77609 102.187
8.9551 91.9176
9.13412 83.3136
9.31318 84.0395
9.49226 85.9439
9.67134 98.353
9.85047 101.943
10.0296 393.108
10.2088 429.082
10.388 107.503
10.5672 504.454
10.7465 87.9462
10.9257 79.3811
11.105 72.8568
11.2844 70.8672
11.4637 65.9512
11.6431 64.6578
11.8225 63.6283
12.002 64.9328
12.1814 154.279
12.3609 70.8103
12.5405 65.4047
12.72 70.4276
12.8996 72.4431
13.0792 81.1448
13.2589 245.338
13.4386 127.523
13.6183 248.938
13.7981 98.7109
13.9779 77.239
14.1577 73.4508
14.3376 72.5994
14.5175 70.2315
14.6974 71.8392
14.8774 116.29
15.0574 153.189
15.2374 71.7523
15.4175 67.6949
15.5976 67.251
15.7778 100.048
15.958 158.749
16.1382 63.6318
16.3185 59.2292
16.4988 56.5401
16.6792 55.3151
16.8596 56.1591
17.04 56.9165
17.2205 68.0559
17.401 72.4679
17.5815 60.3009
17.7622 62.6301
17.9428 76.6307
18.1237 139.186
18.3044 91.6969
18.4852 78.6694
18.666 61.4137
18.8469 59.0095
19.0278 57.8125
19.2088 60.8982
19.3898 77.3015
19.5709 55.3153
19.752 54.1084
19.9332 57.5799
20.1144 70.8706
20.2957 64.5256
20.477 54.5097
20.6586 50.6017
20.84 49.6327
21.0215 49.4537
21.203 51.6349
21.3846 49.9281
21.5662 49.8675
21.7479 53.9549
21.9297 65.433
22.1115 56.6336
22.2933 50.8101
22.4753 49.6746
22.6572 49.8269
22.8393 53.0944
23.0214 58.1963
23.2037 49.7217
23.3859 50.7388
23.5682 57.4924
23.7505 49.3212
23.9329 46.0974
24.1154 44.9056
24.2979 44.2707
24.4805 43.6858
24.6631 43.543
24.8458 42.8366
25.0286 43.5214
25.2114 45.5555
25.3943 45.4272
25.5773 41.653
25.7605 41.2985
25.9436 41.5763
26.1268 42.3773
26.31 40.7692
26.4933 41.4759
26.6767 42.884
26.8601 41.1134
27.0437 39.4292
27.2272 39.3313
27.4109 39.0358
27.5946 39.0944
27.7784 38.5307
27.9623 39.0454
28.1462 39.5022
28.3304 37.8704
28.5145 36.6337
28.6987 36.2624
28.8829 35.9724
29.0673 35.1808
29.2517 34.9192
29.4361 34.8402
29.6207 33.6904
29.8053 33.393
29.99 33.1109
30.1748 32.9813
30.3597 32.8321
30.5447 32.7601
30.7297 32.7863
30.915 32.0853
31.1002 31.6614
31.2855 31.439
31.4708 31.326
31.6563 30.9804
31.8418 30.7618
32.0275 30.3917
32.2132 29.9289
32.399 29.3937
32.5848 28.9062
32.7708 28.628
32.9569 28.5033
33.143 28.2571
33.3293 27.8996
33.5158 27.5647
33.7022 27.0677
33.8887 26.6796
34.0753 26.4547
34.262 26.0303
34.4488 25.7913
34.6357 25.4256
34.8227 25.1239
35.0098 24.8728
35.1969 24.539
35.3842 24.3212
35.5716 24.1991
35.759 23.8817
35.9468 23.4682
36.1345 23.2352
36.3222 23.0576
36.5101 22.8712
36.6981 22.3752
36.8861 22.211
37.0743 21.8114
37.2626 21.6723
37.451 21.2947
37.6395 21.1721
37.8281 20.7634
38.0168 20.5486
38.2056 20.3318
38.3945 20.0337
38.5837 19.831
38.7728 19.4706
38.9621 19.2712
39.1514 19.0063
39.3409 18.7897
39.5304 18.5417
39.7201 18.3582
39.9099 18.1583
40.0999 17.9049
40.2899 17.6533
40.48 17.3961
40.6703 17.1885
40.8607 17.0447
41.0512 16.7475
41.242 16.5036
41.4327 16.3544
41.6236 16.1388
41.8146 15.9335
42.0057 15.6473
42.1969 15.4633
42.3882 15.2791
42.5797 15.0918
42.7713 14.8863
42.963 14.6507
43.1549 14.4954
43.3468 14.2206
43.5389 14.1046
43.7312 13.8805
43.9237 13.6306
44.1162 13.4839
44.3088 13.3145
44.5016 13.1248
44.6945 12.9716
44.8875 12.7463
45.0806 12.5319
45.2739 12.4201
45.4673 12.1946
45.6609 12.0599
45.8546 11.8463
46.0484 11.7264
46.2424 11.5691
46.4365 11.3971
46.631 11.2341
46.8254 11.0162
47.0199 10.9165
47.2146 10.7392
47.4095 10.5921
47.6044 10.3913
47.7996 10.239
47.9948 10.1214
48.1902 9.97762
48.3858 9.83731
48.5815 9.6752
48.7774 9.54723
48.9734 9.38726
49.1696 9.26207
49.3661 9.12139
49.5626 8.99363
49.7592 8.81349
49.956 8.70925
50.153 8.54808
50.3501 8.43225
50.5474 8.30442
50.7448 8.20545
50.9424 8.05059
51.1402 7.91898
51.3381 7.78969
51.5362 7.69266
51.7344 7.55986
51.9328 7.42729
52.1316 7.27544
52.3304 7.16705
52.5293 7.06402
52.7284 6.93686
52.9276 6.80266
53.1271 6.72784
53.3267 6.58814
53.5265 6.48265
53.7264 6.38555
53.9266 6.26526
54.1269 6.12195
54.3274 6.07585
54.528 5.88157
54.7289 5.7454
54.9301 5.57942
55.1314 5.43746
55.3328 5.24083
55.5344 5.08238
55.7361 4.9069

File: Ni3Fe_FD0440.xy
TT I
1.27165 7.35923
1.45013 6.59384
1.62863 5.75
1.80712 5.02358
1.98562 4.51833
2.16411 4.83058
2.34263 4.83413
2.52115 5.95087
2.69965 7.84442
2.87818 8.51413
3.05672 11.0409
3.23527 15.1731
3.4138 18.9
3.59237 24.3653
3.77094 26.106
3.9495 30.4788
4.12809 35.419
4.30669 174.268
4.4853 61.6817
4.6639 56.229
4.84253 68.6094
5.02118 89.4263
5.19981 466.2
5.37848 205.893
5.55716 104.119
5.73586 94.5094
5.91455 98.3704
6.09328 4236.89
6.27201 84.3492
6.45075 68.4734
6.62952 63.3971
6.8083 59.1874
6.98711 56.2218
7.16591 55.9448
7.34475 84.1056
7.5236 55.3983
7.70247 56.9694
7.88135 58.7007
8.06026 63.601
8.23919 70.9418
8.41812 86.6991
8.59709 1219.17
8.77609 102.233
8.9551 91.6238
9.13412 83.1684
9.31318 84.0777
9.49226 85.7782
9.67134 98.01
9.85047 101.973
10.0296 393.022
10.2088 430.965
10.388 106.842
10.5672 499.127
10.7465 88.0408
10.9257 79.1481
11.105 72.7833
11.2844 70.731
11.4637 65.6727
11.6431 64.5317
11.8225 63.4068
12.002 64.9344
12.1814 153.327
12.3609 70.5123
12.5405 65.1831
12.72 70.1775
12.8996 72.418
13.0792 80.8661
13.2589 244.354
13.4386 127.525
13.6183 248.525
13.7981 98.6338
13.9779 76.8035
14.1577 73.333
14.3376 72.1669
14.5175 69.7824
14.6974 71.7065
14.8774 115.927
15.0574 152.914
15.2374 71.9479
15.4175 67.5732
15.5976 66.9381
15.7778 99.6138
15.958 158.975
16.1382 63.3895
16.3185 59.3983
16.4988 56.377
16.6792 55.5196
16.8596 56.0791
17.04 56.8389
17.2205 68.083
17.401 72.3598
17.5815 60.3067
17.7622 62.5756
17.9428 76.5471
18.1237 139.635
18.3044 91.3492
18.4852 78.652
18.666 61.4449
18.8469 58.9356
19.0278 57.7941
19.2088 60.7527
19.3898 77.0032
19.5709 55.093
19.752 54.2968
19.9332 57.4827
20.1144 70.7767
20.2957 64.455
20.477 54.5866
20.6586 50.4759
20.84 49.6594
21.0215 49.4753
21.203 51.765
21.3846 49.9416
21.5662 49.5671
21.7479 53.9049
21.9297 65.4142
22.1115 56.5356
22.2933 50.809
22.4753 49.6137
22.6572 49.8479
22.8393 52.9231
23.0214 58.3053
23.2037 49.5282
23.3859 50.7234
23.5682 57.5971
23.7505 49.0035
23.9329 45.8763
24.1154 44.801
24.2979 44.0678
24.4805 43.5912
24.6631 43.5269
24.8458 42.9711
25.0286 43.6104
25.2114 45.495
25.3943 45.2637
25.5773 41.6836
25.7605 41.102
25.9436 41.5214
26.1268 42.3394
26.31 40.7771
26.4933 41.5916
26.6767 42.8313
26.8601 41.2475
27.0437 39.5887
27.2272 39.2287
27.4109 39.1196
27.5946 39.1178
27.7784 38.5464
27.9623 38.9622
28.1462 39.5405
28.3304 37.8115
28.5145 36.5498
28.6987 36.2717
28.8829 35.9958
29.0673 35.3104
29.2517 34.908
29.4361 34.8688
29.6207 33.7278
29.8053 33.4498
29.99 33.1684
30.1748 32.9021
30.3597 32.7789
30.5447 32.7201
30.7297 32.7491
30.915 32.1826
31.1002 31.7071
31.2855 31.4964
31.4708 31.4148
31.6563 30.8237
31.8418 30.6521
32.0275 30.3903
32.2132 29.8131
32.399 29.358
32.5848 28.8784
32.7708 28.6238
32.9569 28.5479
33.143 28.2425
33.3293 27.7738
33.5158 27.5332
33.7022 27.003
33.8887 26.7714
34.0753 26.3385
34.262 26.1099
34.4488 25.7072
34.6357 25.3418
34.8227 25.0873
35.0098 24.9238
35.1969 24.6498
35.3842 24.3721
35.5716 24.2154
35.759 23.7968
35.9468 23.4982
36.1345 23.1909
36.3222 23.122
36.5101 22.8186
36.6981 22.5048
36.8861 22.1314
37.0743 21.8609
37.2626 21.594
37.451 21.3554
37.6395 21.1881
37.8281 20.8292
38.0168 20.5957
38.2056 20.2922
38.3945 20.0502
38.5837 19.7385
38.7728 19.471
38.9621 19.2782
39.1514 18.9983
39.3409 18.7896
39.5304 18.5833
39.7201 18.3601
39.9099 18.1569
40.0999 17.887
40.2899 17.6583
40.48 17.4512
40.6703 17.2106
40.8607 16.9982
41.0512 16.769
41.242 16.4818
41.4327 16.332
41.6236 16.0768
41.8146 15.9415
42.0057 15.6669
42.1969 15.4896
42.3882 15.3339
42.5797 15.0627
42.7713 14.8703
42.963 14.638
43.1549 14.4398
43.3468 14.2073
43.5389 13.9975
43.7312 13.8586
43.9237 13.6787
44.1162 13.4944
44.3088 13.3383
44.5016 13.113
44.6945 12.933
44.8875 12.6914
45.0806 12.5438
45.2739 12.4193
45.4673 12.1905
45.6609 12.0243
45.8546 11.9042
46.0484 11.711
46.2424 11.5286
46.4365 11.4039
46.631 11.1958
46.8254 11.0361
47.0199 10.8448
47.2146 10.7453
47.4095 10.5672
47.6044 10.3761
47.7996 10.2469
47.9948 10.065
48.1902 9.96298
48.3858 9.77748
48.5815 9.70774
48.7774 9.53541
48.9734 9.39995
49.1696 9.2665
49.3661 9.11303
49.5626 8.96189
49.7592 8.84695
49.956 8.69234
50.153 8.60334
50.3501 8.40367
50.5474 8.32687
50.7448 8.16511
50.9424 8.04747
51.1402 7.95526
51.3381 7.77357
51.5362 7.66452
51.7344 7.52179
51.9328 7.43327
52.1316 7.30261
52.3304 7.188
52.5293 7.06741
52.7284 6.96045
52.9276 6.81719
53.1271 6.71653
53.3267 6.59437
53.5265 6.47071
53.7264 6.35512
53.9266 6.2787
54.1269 6.11658
54.3274 6.03514
54.528 5.92215
54.7289 5.71112
54.9301 5.56533
55.1314 5.40137
55.3328 5.19501
55.5344 5.04345
55.7361 4.86778

File: Ni3Fe_FD0441.xy
TT I
1.27165 7.70569
1.45013 6.76743
1.62863 5.81992
1.80712 5.21016
1.98562 4.85067
2.16411 4.77039
2.34263 5.44858
2.52115 6.43204
2.69965 7.44689
2.87818 8.87561
3.05672 10.7067
3.23527 15.0381
3.4138 19.3689
3.59237 24.0656
3.77094 26.0772
3.9495 29.8231
4.12809 34.9556
4.30669 170.154
4.4853 61.7487
4.6639 56.095
4.84253 68.6207
5.02118 89.9375
5.19981 477.173
5.37848 203.776
5.55716 104.387
5.73586 94.2908
5.91455 98.7267
6.09328 4353.32
6.27201 84.9663
6.45075 68.3965
6.62952 63.5347
6.8083 59.2851
6.98711 56.2565
7.16591 55.7977
7.34475 82.9797
7.5236 55.3618
7.70247 56.8792
7.88135 58.8199
8.06026 63.2228
8.23919 70.9723
8.41812 87.0917
8.59709 1230.7
8.77609 102.204
8.9551 91.9093
9.13412 83.5062
9.31318 84.1317
9.49226 86.3892
9.67134 98.5078
9.85047 102.306
10.0296 398.003
10.2088 423.835
10.388 107.313
10.5672 506.298
10.7465 88.5141
10.9257 79.6243
11.105 72.9949
11.2844 70.9839
11.4637 66.0925
11.6431 64.7281
11.8225 63.5424
12.002 65.1799
12.1814 154.635
12.3609 70.4273
12.5405 65.771
12.72 70.2782
12.8996 72.6007
13.0792 81.2409
13.2589 247.304
13.4386 126.406
13.6183 249.589
13.7981 98.6392
13.9779 77.2123
14.1577 73.5985
14.3376 72.237
14.5175 70.356
14.6974 72.0016
14.8774 116.67
15.0574 152.162
15.2374 71.7145
15.4175 67.7396
15.5976 67.1992
15.7778 100.128
15.958 157.262
16.1382 63.1471
16.3185 59.4313
16.4988 56.5025
16.6792 55.3917
16.8596 55.9373
17.04 56.9452
17.2205 68.402
17.401 72.2066
17.5815 60.1691
17.7622 62.5673
17.9428 76.7545
18.1237 138.722
18.3044 91.9776
18.4852 78.315
18.666 61.3236
18.8469 59.0788
19.0278 57.9309
19.2088 60.937
19.3898 77.3961
19.5709 55.1737
19.752 54.4059
19.9332 57.6218
20.1144 70.8448
20.2957 64.4558
20.477 54.3698
20.6586 50.715
20.84 49.6113
21.0215 49.5994
21.203 51.6317
21.3846 49.8947
21.5662 49.7762
21.7479 54.1105
21.9297 65.5414
22.1115 56.7703
22.2933 50.6892
22.4753 49.7282
22.6572 49.9524
22.8393 52.9539
23.0214 58.2732
23.2037 49.7004
23.3859 50.7943
23.5682 57.4334
23.7505 49.1415
23.9329 46.0844
24.1154 44.8654
24.2979 44.3107
24.4805 43.8595
24.6631 43.4939
24.8458 42.959
25.0286 43.6918
25.2114 45.4296
25.3943 45.4188
25.5773 41.6965
25.7605 41.1348
25.9436 41.461
26.1268 42.4001
26.31 40.886
26.4933 41.5427
26.6767 42.9539
26.8601 41.1414
27.0437 39.5381
27.2272 39.2295
27.4109 39.0626
27.5946 39.1878
27.7784 38.7159
27.9623 39.1184
28.1462 39.4842
28.3304 37.7515
28.5145 36.5449
28.6987 36.3116
28.8829 35.8591
29.0673 35.2897
29.2517 34.9742
29.4361 34.7597
29.6207 33.7558
29.8053 33.505
29.99 33.1753
30.1748 32.93
30.3597 32.8649
30.5447 32.7417
30.7297 32.8587
30.915 32.1456
31.1002 31.7324
31.2855 31.5076
31.4708 31.2968
31.6563 30.8302
31.8418 30.5651
32.0275 30.4676
32.2132 29.8658
32.399 29.3997
32.5848 29.0039
32.7708 28.6516
32.9569 28.5538
33.143 28.2146
33.3293 27.8445
33.5158 27.4243
33.7022 27.1493
33.8887 26.7493
34.0753 26.4668
34.262 26.0551
34.4488 25.7036
34.6357 25.421
34.8227 25.0873
35.0098 24.8517
35.1969 24.5445
35.3842 24.3536
35.5716 24.1506
35.759 23.8521
35.9468 23.5128
36.1345 23.2533
36.3222 23.1083
36.5101 22.8487
36.6981 22.5418
36.8861 22.1954
37.0743 21.9119
37.2626 21.6062
37.451 21.3569
37.6395 21.1719
37.8281 20.8669
38.0168 20.5839
38.2056 20.3063
38.3945 19.9907
38.5837 19.7868
38.7728 19.6399
38.9621 19.3429
39.1514 19.0374
39.3409 18.7275
39.5304 18.5378
39.7201 18.2827
39.9099 18.161
40.0999 17.9244
40.2899 17.6628
40.48 17.4467
40.6703 17.2151
40.8607 17.0138
41.0512 16.8255
41.242 16.526
41.4327 16.375
41.6236 16.1255
41.8146 15.879
42.0057 15.6998
42.1969 15.4789
42.3882 15.3325
42.5797 15.0288
42.7713 14.8486
42.963 14.6533
43.1549 14.4892
43.3468 14.1892
43.5389 14.0917
43.7312 13.8921
43.9237 13.6418
44.1162 13.5016
44.3088 13.3088
44.5016 13.1182
44.6945 12.903
44.8875 12.7858
45.0806 12.6425
45.2739 12.4113
45.4673 12.2258
45.6609 12.0388
45.8546 11.8743
46.0484 11.7284
46.2424 11.5318
46.4365 11.3943
46.631 11.2353
46.8254 11.0505
47.0199 10.9231
47.2146 10.7344
47.4095 10.5241
47.6044 10.39
47.7996 10.2479
47.9948 10.092
48.1902 9.95536
48.3858 9.82468
48.5815 9.67548
48.7774 9.52401
48.9734 9.43359
49.1696 9.25927
49.3661 9.11444
49.5626 8.95431
49.7592 8.83348
49.956 8.69645
50.153 8.59347
50.3501 8.46759
50.5474 8.32381
50.7448 8.1863
50.9424 8.0759
51.1402 7.96807
51.3381 7.79535
51.5362 7.68849
51.7344 7.56078
51.9328 7.40314
52.1316 7.31292
52.3304 7.17204
52.5293 7.02792
52.7284 6.9726
52.9276 6.84487
53.1271 6.73125
53.3267 6.60918
53.5265 6.46037
53.7264 6.41453
53.9266 6.24171
54.1269 6.15574
54.3274 6.06299
54.528 5.90195
54.7289 5.74727
54.9301 5.63071
55.1314 5.42633
55.3328 5.25195
55.5344 5.08328
55.7361 4.91045

File: Ni3Fe_FD0443.xy
TT I
1.27165 7.25038
1.45013 6.32421
1.62863 5.03062
1.80712 5.01089
1.98562 4.83647
2.16411 4.64434
2.34263 4.50187
2.52115 6.45276
2.69965 7.72958
2.87818 8.34245
3.05672 11.0414
3.23527 15.0544
3.4138 18.8137
3.59237 23.7509
3.77094 25.9724
3.9495 30.1028
4.12809 34.858
4.30669 164.3
4.4853 61.1519
4.6639 56.2587
4.84253 68.5031
5.02118 90.0612
5.19981 481.088
5.37848 202.827
5.55716 104.595
5.73586 94.5737
5.91455 98.3342
6.09328 4298.34
6.27201 84.6066
6.45075 68.5528
6.62952 63.2927
6.8083 59.1896
6.98711 56.4571
7.16591 56.1571
7.34475 81.9067
7.5236 55.4673
7.70247 56.9535
7.88135 58.8646
8.06026 63.4351
8.23919 70.7713
8.41812 87.0451
8.59709 1227.32
8.77609 102.264
8.9551 91.6966
9.13412 83.2824
9.31318 84.3749
9.49226 86.1898
9.67134 97.9689
9.85047 101.826
10.0296 398.557
10.2088 422.435
10.388 107.459
10.5672 504.514
10.7465 87.9145
10.9257 78.9421
11.105 72.8561
11.2844 70.6304
11.4637 65.8713
11.6431 64.5991
11.8225 63.3023
12.002 65.1545
12.1814 154.563
12.3609 69.9228
12.5405 65.5818
12.72 70.2361
12.8996 72.2715
13.0792 81.1692
13.2589 247.502
13.4386 126.256
13.6183 249.714
13.7981 98.9601
13.9779 77.2202
14.1577 73.4692
14.3376 72.5347
14.5175 70.1442
14.6974 71.811
14.8774 116.98
15.0574 151.889
15.2374 71.678
15.4175 67.5415
15.5976 67.0515
15.7778 100.265
15.958 156.806
16.1382 63.292
16.3185 59.3691
16.4988 56.4952
16.6792 55.2321
16.8596 56.1827
17.04 57.0476
17.2205 68.3963
17.401 72.1253
17.5815 60.416
17.7622 62.3681
17.9428 76.8443
18.1237 138.647
18.3044 91.7856
18.4852 78.2253
18.666 61.5338
18.8469 59.1638
19.0278 57.8982
19.2088 60.9516
19.3898 77.125
19.5709 55.08
19.752 54.3404
19.9332 57.5777
20.1144 70.8728
20.2957 64.5056
20.477 54.441
20.6586 50.462
20.84 49.733
21.0215 49.5778
21.203 51.7446
21.3846 49.9039
21.5662 49.8275
21.7479 53.8013
21.9297 65.4563
22.1115 56.7522
22.2933 50.7677
22.4753 49.7339
22.6572 49.9206
22.8393 53.1442
23.0214 58.1746
23.2037 49.6101
23.3859 50.7914
23.5682 57.5795
23.7505 49.0634
23.9329 46.0578
24.1154 44.8098
24.2979 44.2559
24.4805 43.7447
24.6631 43.6048
24.8458 42.9996
25.0286 43.6802
25.2114 45.5556
25.3943 45.2968
25.5773 41.6775
25.7605 41.1226
25.9436 41.6635
26.1268 42.4468
26.31 40.8146
26.4933 41.4869
26.6767 42.8991
26.8601 41.1321
27.0437 39.6052
27.2272 39.1616
27.4109 39.2371
27.5946 39.0043
27.7784 38.5215
27.9623 39.0091
28.1462 39.4733
28.3304 37.886
28.5145 36.5602
28.6987 36.281
28.8829 36.0767
29.0673 35.2885
29.2517 34.8583
29.4361 34.7136
29.6207 33.7368
29.8053 33.469
29.99 33.1946
30.1748 33.0417
30.3597 32.8274
30.5447 32.7674
30.7297 32.7383
30.915 32.1757
31.1002 31.5833
31.2855 31.4016
31.4708 31.3818
31.6563 30.921
31.8418 30.6776
32.0275 30.3886
32.2132 29.913
32.399 29.4903
32.5848 28.9284
32.7708 28.5813
32.9569 28.4892
33.143 28.3097
33.3293 27.9179
33.5158 27.5344
33.7022 27.0841
33.8887 26.7203
34.0753 26.4621
34.262 26.1167
34.4488 25.6936
34.6357 25.3806
34.8227 25.0709
35.0098 24.9284
35.1969 24.5649
35.3842 24.3821
35.5716 24.1516
35.759 23.8328
35.9468 23.4992
36.1345 23.2349
36.3222 23.043
36.5101 22.7636
36.6981 22.5167
36.8861 22.162
37.0743 21.8707
37.2626 21.6546
37.451 21.3464
37.6395 21.14
37.8281 20.8128
38.0168 20.5214
38.2056 20.282
38.3945 20.0285
38.5837 19.778
38.7728 19.5079
38.9621 19.2664
39.1514 18.978
39.3409 18.6885
39.5304 18.5144
39.7201 18.3039
39.9099 18.1627
40.0999 17.913
40.2899 17.6895
40.48 17.3574
40.6703 17.1758
40.8607 17.0335
41.0512 16.825
41.242 16.5336
41.4327 16.2983
41.6236 16.0338
41.8146 15.9226
42.0057 15.7227
42.1969 15.4681
42.3882 15.2737
42.5797 15.076
42.7713 14.8525
42.963 14.6963
43.1549 14.4996
43.3468 14.2049
43.5389 14.0399
43.7312 13.8327
43.9237 13.7184
44.1162 13.545
44.3088 13.2778
44.5016 13.118
44.6945 12.948
44.8875 12.7641
45.0806 12.5711
45.2739 12.44
45.4673 12.2134
45.6609 12.0364
45.8546 11.859
46.0484 11.7065
46.2424 11.5053
46.4365 11.4058
46.631 11.2138
46.8254 11.029
47.0199 10.8809
47.2146 10.7299
47.4095 10.5529
47.6044 10.4102
47.7996 10.2346
47.9948 10.1201
48.1902 9.98994
48.3858 9.8239
48.5815 9.67735
48.7774 9.57693
48.9734 9.40497
49.1696 9.25781
49.3661 9.12167
49.5626 8.99197
49.7592 8.81895
49.956 8.69954
50.153 8.57116
50.3501 8.45021
50.5474 8.30909
50.7448 8.16877
50.9424 8.05761
51.1402 7.92944
51.3381 7.80533
51.5362 7.68393
51.7344 7.53956
51.9328 7.40689
52.1316 7.3029
52.3304 7.22545
52.5293 7.05392
52.7284 6.96412
52.9276 6.83872
53.1271 6.7161
53.3267 6.59332
53.5265 6.49253
53.7264 6.40968
53.9266 6.272
54.1269 6.09968
54.3274 6.05358
54.528 5.92604
54.7289 5.70531
54.9301 5.56131
55.1314 5.39443
55.3328 5.24449
55.5344 5.00353
55.7361 4.88971