Folder: NiFe_MOF_catalyst_paper/XRD (part 26)

File: Ni3Fe_FD0131.xy
TT I
1.27165 7.59718
1.45013 7.02144
1.62863 5.88628
1.80712 4.93176
1.98562 5.07898
2.16411 4.72803
2.34263 4.73371
2.52115 3.57084
2.69965 4.93578
2.87818 7.53387
3.05672 11.3138
3.23527 14.6229
3.4138 18.4559
3.59237 21.3298
3.77094 24.49
3.9495 28.4447
4.12809 32.9675
4.30669 37.4001
4.4853 44.7152
4.6639 53.376
4.84253 65.7296
5.02118 90.4865
5.19981 575.118
5.37848 499.046
5.55716 107.779
5.73586 95.0674
5.91455 106.107
6.09328 2558.41
6.27201 90.0643
6.45075 66.2382
6.62952 59.4337
6.8083 55.2915
6.98711 52.92
7.16591 52.1377
7.34475 51.8926
7.5236 56.134
7.70247 53.6678
7.88135 55.6616
8.06026 60.242
8.23919 67.7215
8.41812 83.5459
8.59709 851.128
8.77609 118.493
8.9551 84.5114
9.13412 80.7867
9.31318 87.5218
9.49226 83.1245
9.67134 87.6541
9.85047 97.9904
10.0296 553.957
10.2088 1045.56
10.388 104.243
10.5672 313.968
10.7465 91.1706
10.9257 75.1198
11.105 69.7146
11.2844 65.7177
11.4637 62.8073
11.6431 61.6057
11.8225 60.6457
12.002 65.4248
12.1814 114.204
12.3609 75.6215
12.5405 62.5598
12.72 64.7512
12.8996 69.0289
13.0792 78.6571
13.2589 198.758
13.4386 219.344
13.6183 186.139
13.7981 160.792
13.9779 75.3938
14.1577 74.2823
14.3376 68.7073
14.5175 67.9049
14.6974 69.2513
14.8774 120.556
15.0574 206.257
15.2374 68.621
15.4175 65.4658
15.5976 65.2159
15.7778 107.244
15.958 183.928
16.1382 61.6182
16.3185 56.8551
16.4988 54.7069
16.6792 53.6976
16.8596 53.8281
17.04 54.9527
17.2205 64.4126
17.401 80.6782
17.5815 58.5692
17.7622 60.9432
17.9428 83.7308
18.1237 111.256
18.3044 87.8867
18.4852 96.0893
18.666 60.5481
18.8469 57.9468
19.0278 56.2882
19.2088 61.5596
19.3898 67.6877
19.5709 56.3969
19.752 52.9488
19.9332 57.8294
20.1144 65.9
20.2957 60.4095
20.477 59.1886
20.6586 49.4249
20.84 48.7486
21.0215 48.7625
21.203 49.2096
21.3846 50.2902
21.5662 48.5622
21.7479 53.8401
21.9297 60.9677
22.1115 55.9547
22.2933 52.4134
22.4753 48.4977
22.6572 48.7537
22.8393 51.7199
23.0214 56.5213
23.2037 49.5568
23.3859 51.5997
23.5682 52.8155
23.7505 53.6658
23.9329 45.3351
24.1154 44.1577
24.2979 43.4474
24.4805 42.6408
24.6631 42.8809
24.8458 42.2888
25.0286 42.7205
25.2114 44.4309
25.3943 44.533
25.5773 41.5744
25.7605 40.5363
25.9436 40.7591
26.1268 41.305
26.31 40.8414
26.4933 40.6685
26.6767 41.825
26.8601 41.0855
27.0437 39.3558
27.2272 38.7504
27.4109 38.3405
27.5946 38.4466
27.7784 38.3902
27.9623 38.3488
28.1462 39.1317
28.3304 37.7837
28.5145 36.0338
28.6987 35.6208
28.8829 35.4166
29.0673 34.9381
29.2517 34.2605
29.4361 34.0286
29.6207 33.4051
29.8053 32.9788
29.99 32.6468
30.1748 32.3339
30.3597 32.3997
30.5447 32.2041
30.7297 32.0869
30.915 31.8574
31.1002 31.1786
31.2855 30.9979
31.4708 30.6629
31.6563 30.7562
31.8418 30.0861
32.0275 29.9896
32.2132 29.602
32.399 28.9569
32.5848 28.47
32.7708 28.2012
32.9569 28.0679
33.143 27.7801
33.3293 27.5343
33.5158 27.1766
33.7022 26.6526
33.8887 26.3142
34.0753 26.0535
34.262 25.6106
34.4488 25.3158
34.6357 24.9094
34.8227 24.7177
35.0098 24.4765
35.1969 24.1981
35.3842 23.9857
35.5716 23.8935
35.759 23.5159
35.9468 23.1356
36.1345 22.8694
36.3222 22.7677
36.5101 22.479
36.6981 22.1577
36.8861 21.8561
37.0743 21.5284
37.2626 21.2223
37.451 21.0509
37.6395 20.8184
37.8281 20.5408
38.0168 20.188
38.2056 20.0087
38.3945 19.5865
38.5837 19.4886
38.7728 19.2007
38.9621 18.9873
39.1514 18.7347
39.3409 18.4769
39.5304 18.2704
39.7201 18.0636
39.9099 17.8743
40.0999 17.6622
40.2899 17.3874
40.48 17.13
40.6703 16.8946
40.8607 16.753
41.0512 16.5428
41.242 16.263
41.4327 16.066
41.6236 15.8405
41.8146 15.6436
42.0057 15.4824
42.1969 15.2632
42.3882 15.0544
42.5797 14.8618
42.7713 14.653
42.963 14.4385
43.1549 14.2006
43.3468 13.9762
43.5389 13.8497
43.7312 13.6279
43.9237 13.461
44.1162 13.268
44.3088 13.0996
44.5016 12.8717
44.6945 12.7338
44.8875 12.5812
45.0806 12.3753
45.2739 12.1649
45.4673 12.0106
45.6609 11.7985
45.8546 11.6849
46.0484 11.5447
46.2424 11.3455
46.4365 11.226
46.631 11.0477
46.8254 10.8188
47.0199 10.6889
47.2146 10.533
47.4095 10.3735
47.6044 10.2192
47.7996 10.0797
47.9948 9.94411
48.1902 9.76843
48.3858 9.66228
48.5815 9.51178
48.7774 9.42762
48.9734 9.26485
49.1696 9.10504
49.3661 8.98811
49.5626 8.8309
49.7592 8.70828
49.956 8.60286
50.153 8.4082
50.3501 8.27918
50.5474 8.18182
50.7448 8.07021
50.9424 7.94808
51.1402 7.81654
51.3381 7.69648
51.5362 7.61223
51.7344 7.43275
51.9328 7.32764
52.1316 7.19054
52.3304 7.0713
52.5293 6.94598
52.7284 6.85472
52.9276 6.74514
53.1271 6.64941
53.3267 6.48445
53.5265 6.35294
53.7264 6.3058
53.9266 6.17608
54.1269 6.03142
54.3274 5.8793
54.528 5.77708
54.7289 5.61631
54.9301 5.39954
55.1314 5.2772
55.3328 5.05789
55.5344 4.86752
55.7361 4.72893

File: Ni3Fe_FD0132.xy
TT I
1.27165 8.0223
1.45013 5.71962
1.62863 5.92106
1.80712 5.41075
1.98562 5.31868
2.16411 4.62776
2.34263 4.43108
2.52115 4.32002
2.69965 5.46551
2.87818 7.98565
3.05672 11.0517
3.23527 14.9313
3.4138 18.323
3.59237 21.7243
3.77094 24.7904
3.9495 28.2505
4.12809 32.558
4.30669 37.248
4.4853 44.644
4.6639 53.5979
4.84253 65.9798
5.02118 90.7195
5.19981 573.142
5.37848 495.172
5.55716 107.717
5.73586 95.3124
5.91455 105.96
6.09328 2573.15
6.27201 90.0614
6.45075 65.9297
6.62952 59.2903
6.8083 55.3336
6.98711 52.9375
7.16591 51.9086
7.34475 51.6618
7.5236 55.8596
7.70247 53.5771
7.88135 55.6592
8.06026 60.2008
8.23919 67.6361
8.41812 83.6271
8.59709 853.224
8.77609 118.559
8.9551 84.6427
9.13412 81.0339
9.31318 87.4299
9.49226 82.7665
9.67134 87.9995
9.85047 98.0455
10.0296 553.38
10.2088 1028.81
10.388 103.815
10.5672 314.728
10.7465 90.9826
10.9257 75.1548
11.105 69.4925
11.2844 65.7976
11.4637 62.7511
11.6431 61.7014
11.8225 60.7885
12.002 65.5825
12.1814 114.439
12.3609 75.9443
12.5405 62.8644
12.72 64.7198
12.8996 69.217
13.0792 78.7527
13.2589 199.424
13.4386 220.372
13.6183 186.346
13.7981 160.262
13.9779 75.5743
14.1577 74.504
14.3376 68.6525
14.5175 67.8529
14.6974 69.2013
14.8774 120.389
15.0574 206.329
15.2374 68.4782
15.4175 65.5988
15.5976 65.2834
15.7778 106.919
15.958 184.451
16.1382 61.7738
16.3185 56.9178
16.4988 54.6869
16.6792 53.6334
16.8596 53.8562
17.04 55.019
17.2205 64.4887
17.401 80.979
17.5815 58.6565
17.7622 60.924
17.9428 83.7547
18.1237 111.414
18.3044 87.9687
18.4852 95.7481
18.666 60.5424
18.8469 57.8639
19.0278 56.2552
19.2088 61.4277
19.3898 67.8198
19.5709 56.3006
19.752 53.0607
19.9332 57.9117
20.1144 65.9183
20.2957 60.6241
20.477 59.2467
20.6586 49.5732
20.84 48.784
21.0215 48.6752
21.203 49.2301
21.3846 50.1691
21.5662 48.6528
21.7479 53.8575
21.9297 61.1182
22.1115 56.1191
22.2933 52.4172
22.4753 48.4752
22.6572 48.8608
22.8393 51.773
23.0214 56.448
23.2037 49.6311
23.3859 51.6311
23.5682 52.9147
23.7505 53.4994
23.9329 45.5389
24.1154 44.0791
24.2979 43.5087
24.4805 42.8332
24.6631 42.8856
24.8458 42.3175
25.0286 42.759
25.2114 44.199
25.3943 44.5404
25.5773 41.6417
25.7605 40.3611
25.9436 40.7857
26.1268 41.3613
26.31 40.8213
26.4933 40.5815
26.6767 41.7968
26.8601 41.0378
27.0437 39.2679
27.2272 38.7321
27.4109 38.2683
27.5946 38.4053
27.7784 38.39
27.9623 38.2791
28.1462 39.0629
28.3304 37.9397
28.5145 36.0644
28.6987 35.6746
28.8829 35.3217
29.0673 35.0181
29.2517 34.2848
29.4361 34.0823
29.6207 33.4402
29.8053 32.8471
29.99 32.5589
30.1748 32.3328
30.3597 32.3084
30.5447 32.0116
30.7297 32.1067
30.915 31.923
31.1002 31.2849
31.2855 30.8806
31.4708 30.7698
31.6563 30.6751
31.8418 30.1477
32.0275 30.0315
32.2132 29.5673
32.399 29.0469
32.5848 28.5948
32.7708 28.2807
32.9569 28.1612
33.143 27.7669
33.3293 27.5401
33.5158 27.1944
33.7022 26.6
33.8887 26.2715
34.0753 26.083
34.262 25.6026
34.4488 25.2749
34.6357 24.9804
34.8227 24.7636
35.0098 24.4922
35.1969 24.2066
35.3842 23.998
35.5716 23.8082
35.759 23.5283
35.9468 23.0957
36.1345 23.0203
36.3222 22.6608
36.5101 22.3766
36.6981 22.1417
36.8861 21.8292
37.0743 21.5523
37.2626 21.3254
37.451 20.9919
37.6395 20.912
37.8281 20.4868
38.0168 20.249
38.2056 20.0165
38.3945 19.6833
38.5837 19.4648
38.7728 19.2398
38.9621 18.9668
39.1514 18.7166
39.3409 18.4191
39.5304 18.3059
39.7201 18.0925
39.9099 17.8102
40.0999 17.6208
40.2899 17.3609
40.48 17.1335
40.6703 16.9693
40.8607 16.7886
41.0512 16.5287
41.242 16.2782
41.4327 16.0213
41.6236 15.7766
41.8146 15.7073
42.0057 15.3715
42.1969 15.2119
42.3882 15.0007
42.5797 14.8452
42.7713 14.664
42.963 14.4399
43.1549 14.1911
43.3468 14.0074
43.5389 13.8104
43.7312 13.6277
43.9237 13.4862
44.1162 13.2541
44.3088 13.068
44.5016 12.9003
44.6945 12.7373
44.8875 12.5248
45.0806 12.3694
45.2739 12.185
45.4673 11.998
45.6609 11.838
45.8546 11.7307
46.0484 11.5446
46.2424 11.3941
46.4365 11.2156
46.631 11.0139
46.8254 10.8487
47.0199 10.7364
47.2146 10.5778
47.4095 10.3467
47.6044 10.2152
47.7996 10.0663
47.9948 9.9237
48.1902 9.81532
48.3858 9.68358
48.5815 9.54319
48.7774 9.39657
48.9734 9.24443
49.1696 9.08951
49.3661 8.94563
49.5626 8.80267
49.7592 8.68471
49.956 8.61177
50.153 8.45194
50.3501 8.2986
50.5474 8.21037
50.7448 8.07513
50.9424 7.9831
51.1402 7.81202
51.3381 7.65095
51.5362 7.55597
51.7344 7.43426
51.9328 7.30029
52.1316 7.18855
52.3304 7.06556
52.5293 6.95205
52.7284 6.82819
52.9276 6.72621
53.1271 6.59196
53.3267 6.49936
53.5265 6.39835
53.7264 6.25749
53.9266 6.18057
54.1269 6.05642
54.3274 5.9439
54.528 5.78904
54.7289 5.57108
54.9301 5.43022
55.1314 5.32618
55.3328 5.04136
55.5344 4.9018
55.7361 4.72757

File: Ni3Fe_FD0133.xy
TT I
1.27165 7.8334
1.45013 7.13703
1.62863 5.82184
1.80712 5.26746
1.98562 5.30546
2.16411 4.54592
2.34263 4.19783
2.52115 4.01567
2.69965 5.14624
2.87818 8.20553
3.05672 11.096
3.23527 14.8741
3.4138 18.6229
3.59237 21.4463
3.77094 24.7609
3.9495 28.5309
4.12809 32.3881
4.30669 37.4046
4.4853 44.7697
4.6639 53.4193
4.84253 65.7453
5.02118 90.6999
5.19981 574.814
5.37848 479.478
5.55716 108.348
5.73586 95.4665
5.91455 105.917
6.09328 2591.52
6.27201 90.0439
6.45075 66.2289
6.62952 59.4847
6.8083 55.2373
6.98711 53.4378
7.16591 52.0987
7.34475 51.8372
7.5236 56.4047
7.70247 53.5976
7.88135 55.6365
8.06026 60.1716
8.23919 67.4806
8.41812 82.9698
8.59709 855.974
8.77609 118.102
8.9551 84.9653
9.13412 80.6416
9.31318 86.9007
9.49226 83.1335
9.67134 88.279
9.85047 98.2775
10.0296 553.425
10.2088 1014.71
10.388 104.154
10.5672 315.339
10.7465 90.9521
10.9257 75.4182
11.105 69.707
11.2844 65.8375
11.4637 62.958
11.6431 61.6643
11.8225 60.6867
12.002 65.4828
12.1814 114.489
12.3609 75.9541
12.5405 62.9966
12.72 64.5529
12.8996 69.1814
13.0792 78.938
13.2589 199.509
13.4386 219.994
13.6183 186.655
13.7981 159.982
13.9779 75.4844
14.1577 74.2527
14.3376 68.461
14.5175 67.8104
14.6974 69.294
14.8774 120.682
15.0574 205.977
15.2374 68.7361
15.4175 65.6784
15.5976 65.1616
15.7778 107.118
15.958 183.853
16.1382 61.4274
16.3185 56.9916
16.4988 54.5197
16.6792 53.5481
16.8596 53.7635
17.04 54.987
17.2205 64.5212
17.401 81.2892
17.5815 58.6378
17.7622 60.9472
17.9428 83.613
18.1237 111.515
18.3044 87.9504
18.4852 95.6981
18.666 60.3756
18.8469 57.755
19.0278 56.2327
19.2088 61.3853
19.3898 68.0182
19.5709 56.1532
19.752 52.8995
19.9332 57.968
20.1144 65.8294
20.2957 60.5347
20.477 59.2639
20.6586 49.4696
20.84 48.6804
21.0215 48.871
21.203 49.4305
21.3846 50.2965
21.5662 48.67
21.7479 53.7955
21.9297 61.0157
22.1115 56.1778
22.2933 52.3325
22.4753 48.5971
22.6572 48.8017
22.8393 51.761
23.0214 56.2893
23.2037 49.7
23.3859 51.4586
23.5682 52.9382
23.7505 53.4183
23.9329 45.2829
24.1154 44.0773
24.2979 43.3917
24.4805 42.6504
24.6631 42.92
24.8458 42.3326
25.0286 42.7426
25.2114 44.269
25.3943 44.5512
25.5773 41.5791
25.7605 40.6009
25.9436 40.7877
26.1268 41.3523
26.31 40.6667
26.4933 40.6535
26.6767 41.6755
26.8601 41.1333
27.0437 39.3929
27.2272 38.7173
27.4109 38.4375
27.5946 38.4516
27.7784 38.3743
27.9623 38.288
28.1462 39.0349
28.3304 37.7471
28.5145 36.0812
28.6987 35.7774
28.8829 35.4404
29.0673 34.9851
29.2517 34.3448
29.4361 33.9915
29.6207 33.3478
29.8053 32.9356
29.99 32.5775
30.1748 32.3134
30.3597 32.3937
30.5447 32.074
30.7297 32.2055
30.915 31.9984
31.1002 31.1001
31.2855 30.8835
31.4708 30.79
31.6563 30.7029
31.8418 30.1865
32.0275 30.0012
32.2132 29.5433
32.399 29.0753
32.5848 28.5392
32.7708 28.2048
32.9569 28.0305
33.143 27.8306
33.3293 27.5114
33.5158 27.226
33.7022 26.6001
33.8887 26.3264
34.0753 26.0171
34.262 25.681
34.4488 25.3611
34.6357 24.9567
34.8227 24.7042
35.0098 24.5139
35.1969 24.1859
35.3842 24.0001
35.5716 23.8367
35.759 23.5667
35.9468 23.1528
36.1345 22.9579
36.3222 22.7361
36.5101 22.4786
36.6981 22.1487
36.8861 21.8806
37.0743 21.4705
37.2626 21.2501
37.451 21.0142
37.6395 20.9115
37.8281 20.5225
38.0168 20.2173
38.2056 19.9618
38.3945 19.726
38.5837 19.4044
38.7728 19.2664
38.9621 19.0186
39.1514 18.6636
39.3409 18.5194
39.5304 18.2576
39.7201 18.0456
39.9099 17.8619
40.0999 17.6136
40.2899 17.3367
40.48 17.1393
40.6703 16.9648
40.8607 16.738
41.0512 16.5154
41.242 16.2882
41.4327 16.0728
41.6236 15.8141
41.8146 15.6229
42.0057 15.4244
42.1969 15.214
42.3882 15.0862
42.5797 14.7917
42.7713 14.6332
42.963 14.4332
43.1549 14.2185
43.3468 14.0327
43.5389 13.825
43.7312 13.6182
43.9237 13.4543
44.1162 13.2688
44.3088 13.0932
44.5016 12.9074
44.6945 12.7019
44.8875 12.5564
45.0806 12.3779
45.2739 12.1991
45.4673 12.0398
45.6609 11.84
45.8546 11.6965
46.0484 11.5545
46.2424 11.4078
46.4365 11.2218
46.631 11.0386
46.8254 10.8331
47.0199 10.7311
47.2146 10.5556
47.4095 10.3648
47.6044 10.2133
47.7996 10.0584
47.9948 9.9675
48.1902 9.82196
48.3858 9.64897
48.5815 9.52046
48.7774 9.39259
48.9734 9.25128
49.1696 9.11498
49.3661 8.9492
49.5626 8.83199
49.7592 8.68235
49.956 8.53674
50.153 8.45305
50.3501 8.29065
50.5474 8.19382
50.7448 8.08198
50.9424 7.96076
51.1402 7.80924
51.3381 7.68851
51.5362 7.56631
51.7344 7.4101
51.9328 7.30609
52.1316 7.16578
52.3304 7.10184
52.5293 6.97759
52.7284 6.83869
52.9276 6.74403
53.1271 6.64531
53.3267 6.49039
53.5265 6.40239
53.7264 6.29038
53.9266 6.20538
54.1269 6.03595
54.3274 5.879
54.528 5.76692
54.7289 5.57178
54.9301 5.37526
55.1314 5.29324
55.3328 5.00321
55.5344 4.83849
55.7361 4.73986

File: Ni3Fe_FD0134.xy
TT I
1.27165 7.84319
1.45013 6.90695
1.62863 5.74067
1.80712 5.49427
1.98562 5.55198
2.16411 4.73087
2.34263 4.02661
2.52115 4.31163
2.69965 6.00467
2.87818 8.1374
3.05672 10.9673
3.23527 15.1433
3.4138 18.9684
3.59237 22.0846
3.77094 25.0684
3.9495 28.3908
4.12809 32.8059
4.30669 37.2907
4.4853 44.6799
4.6639 53.2944
4.84253 65.7578
5.02118 90.9587
5.19981 566.21
5.37848 483.173
5.55716 107.81
5.73586 95.3544
5.91455 105.962
6.09328 2590.18
6.27201 89.8986
6.45075 66.3854
6.62952 59.2994
6.8083 55.2593
6.98711 52.8116
7.16591 51.9904
7.34475 51.7923
7.5236 56.1569
7.70247 53.3893
7.88135 55.8029
8.06026 59.9543
8.23919 67.2421
8.41812 83.3686
8.59709 857.994
8.77609 117.698
8.9551 85.0198
9.13412 80.9193
9.31318 87.3993
9.49226 82.7975
9.67134 87.9157
9.85047 97.9358
10.0296 552.145
10.2088 1024.27
10.388 104.066
10.5672 315.492
10.7465 90.8086
10.9257 75.2605
11.105 69.5914
11.2844 65.3764
11.4637 62.5634
11.6431 61.4099
11.8225 60.5943
12.002 65.6452
12.1814 114.183
12.3609 76.6178
12.5405 62.6483
12.72 64.4898
12.8996 69.2002
13.0792 78.6393
13.2589 199.654
13.4386 222.059
13.6183 187.005
13.7981 161.235
13.9779 75.4568
14.1577 74.2466
14.3376 68.4264
14.5175 67.8578
14.6974 68.947
14.8774 120.538
15.0574 205.731
15.2374 68.6929
15.4175 65.6968
15.5976 65.2123
15.7778 107.154
15.958 183.566
16.1382 61.6085
16.3185 56.7157
16.4988 54.58
16.6792 53.607
16.8596 53.8712
17.04 54.9362
17.2205 64.7598
17.401 81.2519
17.5815 58.4937
17.7622 60.8603
17.9428 83.615
18.1237 111.476
18.3044 87.7953
18.4852 95.961
18.666 60.4032
18.8469 57.9234
19.0278 56.134
19.2088 61.5111
19.3898 67.7887
19.5709 56.3096
19.752 52.8719
19.9332 57.7639
20.1144 66.1338
20.2957 60.6872
20.477 59.5159
20.6586 49.4042
20.84 48.6671
21.0215 48.7412
21.203 49.3578
21.3846 50.2814
21.5662 48.7473
21.7479 53.7263
21.9297 61.0611
22.1115 56.028
22.2933 52.3075
22.4753 48.5511
22.6572 48.7151
22.8393 51.5761
23.0214 56.6213
23.2037 49.5624
23.3859 51.5032
23.5682 53.013
23.7505 53.4592
23.9329 45.3704
24.1154 44.1908
24.2979 43.4303
24.4805 42.8229
24.6631 42.8099
24.8458 42.1273
25.0286 42.7961
25.2114 44.2752
25.3943 44.5491
25.5773 41.6398
25.7605 40.5691
25.9436 40.8422
26.1268 41.4053
26.31 40.7086
26.4933 40.6535
26.6767 41.7212
26.8601 41.1145
27.0437 39.3511
27.2272 38.7725
27.4109 38.2407
27.5946 38.5046
27.7784 38.3548
27.9623 38.2032
28.1462 39.089
28.3304 37.853
28.5145 36.0594
28.6987 35.766
28.8829 35.2948
29.0673 34.8941
29.2517 34.3819
29.4361 34.0447
29.6207 33.4197
29.8053 32.8927
29.99 32.5465
30.1748 32.3739
30.3597 32.39
30.5447 32.1475
30.7297 32.0631
30.915 31.9905
31.1002 31.2657
31.2855 30.9583
31.4708 30.7407
31.6563 30.749
31.8418 30.2643
32.0275 29.986
32.2132 29.5585
32.399 28.9935
32.5848 28.4583
32.7708 28.2746
32.9569 28.1036
33.143 27.7615
33.3293 27.4244
33.5158 27.1957
33.7022 26.6032
33.8887 26.3703
34.0753 26.1151
34.262 25.6375
34.4488 25.2922
34.6357 25.0133
34.8227 24.6992
35.0098 24.5223
35.1969 24.2153
35.3842 23.9938
35.5716 23.8103
35.759 23.4987
35.9468 23.2313
36.1345 22.9861
36.3222 22.686
36.5101 22.4843
36.6981 22.2229
36.8861 21.8882
37.0743 21.5951
37.2626 21.2429
37.451 20.9832
37.6395 20.878
37.8281 20.5828
38.0168 20.2198
38.2056 20.0379
38.3945 19.7136
38.5837 19.4372
38.7728 19.2106
38.9621 18.9464
39.1514 18.7526
39.3409 18.5259
39.5304 18.257
39.7201 18.0099
39.9099 17.8483
40.0999 17.6467
40.2899 17.387
40.48 17.1341
40.6703 16.9169
40.8607 16.7547
41.0512 16.5613
41.242 16.336
41.4327 16.1142
41.6236 15.7936
41.8146 15.6798
42.0057 15.4801
42.1969 15.2151
42.3882 15.0556
42.5797 14.8509
42.7713 14.6555
42.963 14.418
43.1549 14.2267
43.3468 14.0494
43.5389 13.8531
43.7312 13.6493
43.9237 13.485
44.1162 13.2969
44.3088 13.0552
44.5016 12.9172
44.6945 12.7449
44.8875 12.5661
45.0806 12.3698
45.2739 12.2139
45.4673 12.0005
45.6609 11.8988
45.8546 11.6859
46.0484 11.5133
46.2424 11.4011
46.4365 11.2017
46.631 10.9935
46.8254 10.8565
47.0199 10.7005
47.2146 10.5753
47.4095 10.4001
47.6044 10.2444
47.7996 10.1039
47.9948 9.96267
48.1902 9.81581
48.3858 9.66408
48.5815 9.51803
48.7774 9.40317
48.9734 9.28527
49.1696 9.13086
49.3661 8.97412
49.5626 8.80987
49.7592 8.67268
49.956 8.60339
50.153 8.42791
50.3501 8.2912
50.5474 8.17592
50.7448 8.0682
50.9424 7.95407
51.1402 7.80056
51.3381 7.66242
51.5362 7.60127
51.7344 7.45621
51.9328 7.28545
52.1316 7.15929
52.3304 7.07626
52.5293 6.96206
52.7284 6.83133
52.9276 6.74235
53.1271 6.63123
53.3267 6.57011
53.5265 6.36484
53.7264 6.30001
53.9266 6.19179
54.1269 6.07858
54.3274 5.90909
54.528 5.72905
54.7289 5.59342
54.9301 5.4138
55.1314 5.24405
55.3328 5.04965
55.5344 4.84117
55.7361 4.67242

File: Ni3Fe_FD0135.xy
TT I
1.27165 8.64269
1.45013 7.20133
1.62863 5.44816
1.80712 5.14817
1.98562 5.05386
2.16411 4.5626
2.34263 4.08808
2.52115 4.19854
2.69965 4.64705
2.87818 7.9067
3.05672 10.8537
3.23527 15.1899
3.4138 18.3197
3.59237 21.6889
3.77094 24.6542
3.9495 28.285
4.12809 32.6193
4.30669 37.3452
4.4853 44.4158
4.6639 53.476
4.84253 66.0217
5.02118 90.8385
5.19981 567.971
5.37848 476.962
5.55716 107.5
5.73586 95.1293
5.91455 105.485
6.09328 2605.43
6.27201 89.6893
6.45075 66.313
6.62952 59.2705
6.8083 55.2756
6.98711 52.9043
7.16591 51.9972
7.34475 51.5315
7.5236 56.0927
7.70247 53.4562
7.88135 55.6445
8.06026 59.9991
8.23919 67.8146
8.41812 83.1364
8.59709 860.698
8.77609 117.752
8.9551 84.7707
9.13412 80.9079
9.31318 87.2839
9.49226 82.7609
9.67134 88.0819
9.85047 98.073
10.0296 551.879
10.2088 1015.94
10.388 103.818
10.5672 317.001
10.7465 90.8847
10.9257 75.1869
11.105 69.7051
11.2844 65.7732
11.4637 63.1556
11.6431 61.6969
11.8225 60.7112
12.002 65.5556
12.1814 114.743
12.3609 76.2225
12.5405 62.7411
12.72 64.5708
12.8996 68.9359
13.0792 78.8996
13.2589 199.844
13.4386 220.31
13.6183 187.223
13.7981 159.782
13.9779 75.4891
14.1577 74.1898
14.3376 68.5598
14.5175 67.8295
14.6974 69.1236
14.8774 120.396
15.0574 204.653
15.2374 68.6274
15.4175 65.7199
15.5976 65.1286
15.7778 107.184
15.958 183.289
16.1382 61.7256
16.3185 56.9868
16.4988 54.7472
16.6792 53.7426
16.8596 53.9115
17.04 54.8862
17.2205 64.5353
17.401 80.9601
17.5815 58.5542
17.7622 60.7391
17.9428 83.5736
18.1237 111.904
18.3044 87.9232
18.4852 95.5927
18.666 60.5473
18.8469 57.8796
19.0278 56.3772
19.2088 61.4894
19.3898 68.007
19.5709 56.2913
19.752 53.1494
19.9332 57.9974
20.1144 66.0338
20.2957 60.5792
20.477 59.3915
20.6586 49.4333
20.84 48.7423
21.0215 48.6561
21.203 49.2603
21.3846 50.2364
21.5662 48.6964
21.7479 53.7614
21.9297 61.143
22.1115 55.8839
22.2933 52.25
22.4753 48.6634
22.6572 48.8915
22.8393 51.704
23.0214 56.386
23.2037 49.6512
23.3859 51.4466
23.5682 52.919
23.7505 53.4626
23.9329 45.3406
24.1154 44.0507
24.2979 43.4159
24.4805 42.7405
24.6631 42.9181
24.8458 42.2042
25.0286 42.7094
25.2114 44.3747
25.3943 44.4248
25.5773 41.6924
25.7605 40.5991
25.9436 40.7607
26.1268 41.3445
26.31 40.8533
26.4933 40.6211
26.6767 41.7765
26.8601 41.0953
27.0437 39.4306
27.2272 38.764
27.4109 38.3463
27.5946 38.5283
27.7784 38.3477
27.9623 38.3543
28.1462 39.1446
28.3304 37.8825
28.5145 36.07
28.6987 35.7414
28.8829 35.3042
29.0673 35.039
29.2517 34.4616
29.4361 34.1342
29.6207 33.4297
29.8053 32.8526
29.99 32.5357
30.1748 32.4141
30.3597 32.4053
30.5447 32.2014
30.7297 32.1449
30.915 31.9083
31.1002 31.3247
31.2855 30.9349
31.4708 30.7471
31.6563 30.7727
31.8418 30.2325
32.0275 30.0855
32.2132 29.5441
32.399 29.0531
32.5848 28.5891
32.7708 28.2018
32.9569 28.0408
33.143 27.7947
33.3293 27.4949
33.5158 27.1411
33.7022 26.6636
33.8887 26.4334
34.0753 26.0865
34.262 25.6433
34.4488 25.2912
34.6357 24.9768
34.8227 24.729
35.0098 24.5296
35.1969 24.2179
35.3842 23.9767
35.5716 23.719
35.759 23.5298
35.9468 23.1876
36.1345 22.9588
36.3222 22.8308
36.5101 22.4896
36.6981 22.1589
36.8861 21.9571
37.0743 21.5234
37.2626 21.2977
37.451 21.0314
37.6395 20.9002
37.8281 20.5381
38.0168 20.2574
38.2056 19.9903
38.3945 19.7327
38.5837 19.4501
38.7728 19.2228
38.9621 19.0137
39.1514 18.7031
39.3409 18.5397
39.5304 18.2796
39.7201 18.098
39.9099 17.8604
40.0999 17.6164
40.2899 17.4005
40.48 17.1305
40.6703 16.9738
40.8607 16.7723
41.0512 16.5783
41.242 16.2595
41.4327 16.0975
41.6236 15.8511
41.8146 15.6577
42.0057 15.4931
42.1969 15.2001
42.3882 15.0572
42.5797 14.8567
42.7713 14.6025
42.963 14.4315
43.1549 14.2784
43.3468 14.0223
43.5389 13.8609
43.7312 13.605
43.9237 13.4837
44.1162 13.3113
44.3088 13.1074
44.5016 12.9258
44.6945 12.7276
44.8875 12.5622
45.0806 12.4083
45.2739 12.2469
45.4673 12.0267
45.6609 11.8751
45.8546 11.7094
46.0484 11.5832
46.2424 11.3718
46.4365 11.2317
46.631 11.05
46.8254 10.8728
47.0199 10.7234
47.2146 10.5854
47.4095 10.3812
47.6044 10.2513
47.7996 10.081
47.9948 9.94363
48.1902 9.79502
48.3858 9.66824
48.5815 9.50934
48.7774 9.41982
48.9734 9.25929
49.1696 9.07627
49.3661 8.97071
49.5626 8.84046
49.7592 8.71451
49.956 8.62154
50.153 8.45314
50.3501 8.33323
50.5474 8.20683
50.7448 8.05926
50.9424 7.94572
51.1402 7.8518
51.3381 7.6884
51.5362 7.55272
51.7344 7.44213
51.9328 7.326
52.1316 7.19928
52.3304 7.08761
52.5293 6.96752
52.7284 6.81545
52.9276 6.72418
53.1271 6.67446
53.3267 6.50325
53.5265 6.40084
53.7264 6.26998
53.9266 6.17621
54.1269 6.0404
54.3274 5.96907
54.528 5.75367
54.7289 5.58308
54.9301 5.44195
55.1314 5.2646
55.3328 5.02743
55.5344 4.88868
55.7361 4.72023