Folder: NiFe_MOF_catalyst_paper/XRD (part 174)

File: Ni3Fe_FD0944.xy
TT I
1.27165 7.12394
1.45013 6.32861
1.62863 4.78305
1.80712 4.11923
1.98562 5.04536
2.16411 4.97462
2.34263 5.62884
2.52115 6.52958
2.69965 8.41438
2.87818 8.99343
3.05672 11.0975
3.23527 15.2271
3.4138 18.3628
3.59237 23.1181
3.77094 25.7776
3.9495 29.2909
4.12809 33.9729
4.30669 84.3668
4.4853 51.5321
4.6639 55.0035
4.84253 67.9536
5.02118 85.584
5.19981 371.612
5.37848 198.429
5.55716 100.883
5.73586 91.876
5.91455 94.219
6.09328 4642.74
6.27201 78.5254
6.45075 70.1365
6.62952 62.6519
6.8083 59.3553
6.98711 55.0201
7.16591 55.925
7.34475 63.1493
7.5236 53.5652
7.70247 56.9508
7.88135 56.5942
8.06026 61.9847
8.23919 68.4561
8.41812 82.123
8.59709 1207.1
8.77609 95.8507
8.9551 89.0111
9.13412 82.3592
9.31318 84.6669
9.49226 83.7714
9.67134 94.5012
9.85047 101.298
10.0296 330.807
10.2088 328.931
10.388 103.465
10.5672 548.813
10.7465 84.9769
10.9257 77.0019
11.105 70.3876
11.2844 67.0246
11.4637 63.9518
11.6431 62.5824
11.8225 61.9447
12.002 63.6258
12.1814 160.877
12.3609 65.1058
12.5405 64.2597
12.72 66.5917
12.8996 70.422
13.0792 79.3351
13.2589 247.582
13.4386 113.876
13.6183 260.43
13.7981 91.1987
13.9779 74.722
14.1577 70.533
14.3376 68.8659
14.5175 67.652
14.6974 69.669
14.8774 111.097
15.0574 135.432
15.2374 68.1492
15.4175 65.4711
15.5976 65.0254
15.7778 94.4499
15.958 143.712
16.1382 60.2459
16.3185 56.844
16.4988 54.4041
16.6792 53.6046
16.8596 54.0647
17.04 55.243
17.2205 66.408
17.401 67.5706
17.5815 58.2447
17.7622 60.4931
17.9428 72.1837
18.1237 140.961
18.3044 90.8842
18.4852 72.7566
18.666 59.3654
18.8469 57.0258
19.0278 55.8368
19.2088 58.0937
19.3898 74.9077
19.5709 52.9849
19.752 52.4584
19.9332 55.3476
20.1144 69.3585
20.2957 64.1714
20.477 51.7463
20.6586 48.8953
20.84 48.1704
21.0215 47.7482
21.203 50.3058
21.3846 48.0309
21.5662 48.2075
21.7479 52.01
21.9297 64.0826
22.1115 55.5197
22.2933 48.7003
22.4753 47.7434
22.6572 48.0424
22.8393 51.3525
23.0214 55.8776
23.2037 47.8964
23.3859 49.0171
23.5682 57.0845
23.7505 46.9375
23.9329 44.3296
24.1154 43.3869
24.2979 42.7093
24.4805 42.1931
24.6631 42.1852
24.8458 41.5336
25.0286 42.1944
25.2114 43.9526
25.3943 43.7028
25.5773 40.1817
25.7605 39.668
25.9436 40.3086
26.1268 41.0631
26.31 39.4093
26.4933 39.9603
26.6767 41.515
26.8601 39.8697
27.0437 38.1359
27.2272 37.9833
27.4109 37.7886
27.5946 37.6922
27.7784 37.1328
27.9623 37.9719
28.1462 38.0716
28.3304 36.4662
28.5145 35.4037
28.6987 35.0153
28.8829 34.8446
29.0673 34.1442
29.2517 33.7305
29.4361 33.6404
29.6207 32.4983
29.8053 32.445
29.99 32.041
30.1748 31.9411
30.3597 31.7248
30.5447 31.6222
30.7297 31.6943
30.915 31.0379
31.1002 30.5904
31.2855 30.3888
31.4708 30.3144
31.6563 29.881
31.8418 29.6734
32.0275 29.4802
32.2132 28.8037
32.399 28.4902
32.5848 28.1128
32.7708 27.6656
32.9569 27.5291
33.143 27.3223
33.3293 26.946
33.5158 26.6311
33.7022 26.1259
33.8887 25.921
34.0753 25.5065
34.262 25.199
34.4488 24.8791
34.6357 24.5564
34.8227 24.296
35.0098 24.1238
35.1969 23.7784
35.3842 23.5926
35.5716 23.3571
35.759 23.0458
35.9468 22.7297
36.1345 22.4764
36.3222 22.3089
36.5101 22.0366
36.6981 21.7864
36.8861 21.4936
37.0743 21.0834
37.2626 20.9109
37.451 20.6304
37.6395 20.5129
37.8281 20.1399
38.0168 19.8072
38.2056 19.6028
38.3945 19.35
38.5837 19.1221
38.7728 18.8804
38.9621 18.6586
39.1514 18.4038
39.3409 18.1842
39.5304 17.9226
39.7201 17.7545
39.9099 17.5259
40.0999 17.2717
40.2899 17.0448
40.48 16.7862
40.6703 16.6112
40.8607 16.4766
41.0512 16.1987
41.242 15.9988
41.4327 15.7661
41.6236 15.5918
41.8146 15.4152
42.0057 15.1708
42.1969 15.0054
42.3882 14.7836
42.5797 14.6136
42.7713 14.3239
42.963 14.218
43.1549 13.9735
43.3468 13.803
43.5389 13.5879
43.7312 13.4413
43.9237 13.2265
44.1162 13.0529
44.3088 12.8775
44.5016 12.6185
44.6945 12.5034
44.8875 12.3765
45.0806 12.1471
45.2739 11.9813
45.4673 11.8344
45.6609 11.6563
45.8546 11.5322
46.0484 11.3503
46.2424 11.1728
46.4365 11.0162
46.631 10.8492
46.8254 10.659
47.0199 10.54
47.2146 10.384
47.4095 10.2238
47.6044 10.0686
47.7996 9.9436
47.9948 9.74913
48.1902 9.62168
48.3858 9.49998
48.5815 9.34815
48.7774 9.23458
48.9734 9.07499
49.1696 8.9333
49.3661 8.82579
49.5626 8.6819
49.7592 8.52372
49.956 8.41986
50.153 8.32387
50.3501 8.15555
50.5474 8.0227
50.7448 7.92597
50.9424 7.78071
51.1402 7.69273
51.3381 7.53855
51.5362 7.43582
51.7344 7.28245
51.9328 7.17407
52.1316 7.02657
52.3304 6.92982
52.5293 6.81901
52.7284 6.69734
52.9276 6.58483
53.1271 6.48067
53.3267 6.39896
53.5265 6.30838
53.7264 6.19168
53.9266 6.09491
54.1269 5.91413
54.3274 5.8352
54.528 5.70392
54.7289 5.57617
54.9301 5.41088
55.1314 5.21286
55.3328 5.08549
55.5344 4.92079
55.7361 4.72464

File: Ni3Fe_FD0945.xy
TT I
1.27165 7.52332
1.45013 6.00156
1.62863 5.21271
1.80712 5.01444
1.98562 4.87555
2.16411 5.18143
2.34263 5.92649
2.52115 7.37478
2.69965 8.25163
2.87818 9.17288
3.05672 11.3568
3.23527 15.4198
3.4138 18.6864
3.59237 23.1906
3.77094 25.3355
3.9495 29.3108
4.12809 33.8361
4.30669 84.4904
4.4853 51.7592
4.6639 54.6114
4.84253 68.2725
5.02118 85.8794
5.19981 371.044
5.37848 199.315
5.55716 101.127
5.73586 91.8537
5.91455 93.9586
6.09328 4611.45
6.27201 78.5876
6.45075 69.8955
6.62952 62.6206
6.8083 59.1936
6.98711 54.8139
7.16591 55.8379
7.34475 62.9951
7.5236 53.521
7.70247 56.622
7.88135 56.4214
8.06026 61.7958
8.23919 68.5022
8.41812 82.187
8.59709 1203.94
8.77609 95.6063
8.9551 89.0495
9.13412 82.1086
9.31318 84.5574
9.49226 84.1785
9.67134 94.4142
9.85047 100.923
10.0296 330.453
10.2088 331.152
10.388 103.337
10.5672 548.676
10.7465 84.619
10.9257 76.7532
11.105 70.2922
11.2844 67.1436
11.4637 63.6235
11.6431 62.4959
11.8225 61.8881
12.002 63.521
12.1814 160.121
12.3609 65.082
12.5405 64.2641
12.72 66.8411
12.8996 70.7274
13.0792 79.2501
13.2589 245.978
13.4386 114.68
13.6183 259.131
13.7981 91.3602
13.9779 74.5157
14.1577 70.6407
14.3376 68.7407
14.5175 67.6885
14.6974 69.7247
14.8774 110.96
15.0574 136.305
15.2374 68.1065
15.4175 65.2344
15.5976 64.8496
15.7778 94.2523
15.958 144.587
16.1382 60.2166
16.3185 56.7048
16.4988 54.5322
16.6792 53.3906
16.8596 53.7978
17.04 55.0927
17.2205 66.3638
17.401 67.491
17.5815 58.2104
17.7622 60.3433
17.9428 72.4076
18.1237 141.014
18.3044 90.687
18.4852 72.7932
18.666 59.2064
18.8469 57.066
19.0278 55.8755
19.2088 58.134
19.3898 74.9804
19.5709 53.1849
19.752 52.2086
19.9332 55.1602
20.1144 69.4572
20.2957 64.5041
20.477 51.8536
20.6586 48.8421
20.84 48.1398
21.0215 47.5704
21.203 50.1632
21.3846 48.0636
21.5662 48.1942
21.7479 51.9744
21.9297 64.244
22.1115 55.486
22.2933 48.7154
22.4753 47.8753
22.6572 48.1129
22.8393 51.3414
23.0214 55.9599
23.2037 47.8432
23.3859 49.064
23.5682 57.1626
23.7505 47.058
23.9329 44.4922
24.1154 43.285
24.2979 42.7218
24.4805 42.2939
24.6631 42.1685
24.8458 41.6571
25.0286 42.2848
25.2114 44.0668
25.3943 43.8372
25.5773 40.1079
25.7605 39.5941
25.9436 40.2397
26.1268 41.0976
26.31 39.3786
26.4933 40.1595
26.6767 41.578
26.8601 39.6823
27.0437 38.1807
27.2272 37.8961
27.4109 37.7551
27.5946 37.8655
27.7784 37.243
27.9623 37.8838
28.1462 38.061
28.3304 36.3922
28.5145 35.3265
28.6987 35.0219
28.8829 34.9476
29.0673 34.0385
29.2517 33.7218
29.4361 33.5301
29.6207 32.5838
29.8053 32.3523
29.99 31.9732
30.1748 31.8859
30.3597 31.6787
30.5447 31.7378
30.7297 31.779
30.915 31.1029
31.1002 30.6101
31.2855 30.2874
31.4708 30.3266
31.6563 29.8369
31.8418 29.6013
32.0275 29.4118
32.2132 28.8895
32.399 28.3559
32.5848 28.0504
32.7708 27.7426
32.9569 27.4484
33.143 27.3288
33.3293 26.8742
33.5158 26.5727
33.7022 26.1513
33.8887 25.8635
34.0753 25.5398
34.262 25.1982
34.4488 24.7827
34.6357 24.547
34.8227 24.2172
35.0098 24.1473
35.1969 23.8202
35.3842 23.6206
35.5716 23.3128
35.759 23.048
35.9468 22.6939
36.1345 22.5245
36.3222 22.2792
36.5101 22.0143
36.6981 21.7144
36.8861 21.457
37.0743 21.1382
37.2626 20.9054
37.451 20.6051
37.6395 20.4768
37.8281 20.0846
38.0168 19.8686
38.2056 19.6166
38.3945 19.3543
38.5837 19.0939
38.7728 18.8473
38.9621 18.6194
39.1514 18.4083
39.3409 18.1791
39.5304 17.9536
39.7201 17.7631
39.9099 17.5651
40.0999 17.3051
40.2899 17.0153
40.48 16.7589
40.6703 16.6476
40.8607 16.4758
41.0512 16.2278
41.242 15.9366
41.4327 15.7741
41.6236 15.5535
41.8146 15.3834
42.0057 15.1324
42.1969 14.9428
42.3882 14.8077
42.5797 14.5303
42.7713 14.3814
42.963 14.1627
43.1549 13.9938
43.3468 13.7512
43.5389 13.6437
43.7312 13.3618
43.9237 13.1609
44.1162 13.0453
44.3088 12.8361
44.5016 12.6921
44.6945 12.5204
44.8875 12.2914
45.0806 12.1697
45.2739 11.9897
45.4673 11.8033
45.6609 11.6642
45.8546 11.5137
46.0484 11.3621
46.2424 11.1828
46.4365 11.0371
46.631 10.8568
46.8254 10.6672
47.0199 10.527
47.2146 10.3745
47.4095 10.2475
47.6044 10.0614
47.7996 9.87619
47.9948 9.77353
48.1902 9.64014
48.3858 9.49873
48.5815 9.35651
48.7774 9.22125
48.9734 9.0729
49.1696 8.91896
49.3661 8.79177
49.5626 8.65846
49.7592 8.54436
49.956 8.40451
50.153 8.29453
50.3501 8.19489
50.5474 8.02109
50.7448 7.94606
50.9424 7.82553
51.1402 7.68309
51.3381 7.54091
51.5362 7.42905
51.7344 7.31514
51.9328 7.1644
52.1316 7.07077
52.3304 6.97627
52.5293 6.85428
52.7284 6.7372
52.9276 6.62357
53.1271 6.56362
53.3267 6.35426
53.5265 6.27037
53.7264 6.18675
53.9266 6.07984
54.1269 5.94018
54.3274 5.84886
54.528 5.71948
54.7289 5.57301
54.9301 5.42164
55.1314 5.26744
55.3328 5.00035
55.5344 4.88077
55.7361 4.74736

File: Ni3Fe_FD0946.xy
TT I
1.27165 7.26963
1.45013 6.50933
1.62863 5.26992
1.80712 4.86797
1.98562 4.57939
2.16411 4.37915
2.34263 5.26592
2.52115 7.75233
2.69965 8.54753
2.87818 9.26505
3.05672 11.0982
3.23527 14.906
3.4138 18.6399
3.59237 23.2353
3.77094 25.3742
3.9495 29.1546
4.12809 33.8614
4.30669 83.569
4.4853 51.3558
4.6639 54.9674
4.84253 68.0131
5.02118 86.1575
5.19981 371.074
5.37848 199.062
5.55716 101.295
5.73586 92.2814
5.91455 94.4747
6.09328 4610.96
6.27201 78.591
6.45075 70.2725
6.62952 62.6989
6.8083 59.4399
6.98711 54.5241
7.16591 56.2073
7.34475 62.5574
7.5236 53.1107
7.70247 56.5991
7.88135 56.9082
8.06026 62.0426
8.23919 68.5035
8.41812 82.2116
8.59709 1204.04
8.77609 95.3651
8.9551 88.6787
9.13412 82.6036
9.31318 84.7661
9.49226 83.7206
9.67134 94.1876
9.85047 100.987
10.0296 331.237
10.2088 327.914
10.388 103.462
10.5672 551.766
10.7465 84.8632
10.9257 76.8892
11.105 70.2772
11.2844 67.2644
11.4637 64.0633
11.6431 62.2123
11.8225 62.0041
12.002 63.4805
12.1814 160.87
12.3609 65.2823
12.5405 64.2915
12.72 66.8349
12.8996 70.8541
13.0792 79.5609
13.2589 247.462
13.4386 114.348
13.6183 259.746
13.7981 91.2338
13.9779 74.9152
14.1577 70.9292
14.3376 68.9783
14.5175 67.7906
14.6974 69.6784
14.8774 111.015
15.0574 135.383
15.2374 68.3572
15.4175 65.3278
15.5976 64.8581
15.7778 94.2637
15.958 143.913
16.1382 60.1495
16.3185 56.8883
16.4988 54.4747
16.6792 53.5331
16.8596 54.0371
17.04 55.1645
17.2205 66.2027
17.401 67.7838
17.5815 58.31
17.7622 60.4088
17.9428 72.4824
18.1237 141.065
18.3044 90.7546
18.4852 72.8953
18.666 59.2132
18.8469 57.19
19.0278 55.7449
19.2088 58.3441
19.3898 75.0575
19.5709 52.9981
19.752 52.4277
19.9332 55.1963
20.1144 69.4576
20.2957 64.3721
20.477 51.677
20.6586 48.7906
20.84 47.8931
21.0215 47.7635
21.203 50.062
21.3846 48.0383
21.5662 48.1939
21.7479 51.8487
21.9297 64.2053
22.1115 55.4957
22.2933 48.6411
22.4753 47.8185
22.6572 48.1221
22.8393 51.3354
23.0214 55.9885
23.2037 47.9624
23.3859 48.8776
23.5682 57.0239
23.7505 46.8695
23.9329 44.3348
24.1154 43.2639
24.2979 42.7656
24.4805 42.193
24.6631 42.0098
24.8458 41.4501
25.0286 42.1102
25.2114 43.9546
25.3943 43.7502
25.5773 40.1381
25.7605 39.7175
25.9436 40.1331
26.1268 41.1244
26.31 39.3881
26.4933 40.1656
26.6767 41.4807
26.8601 39.6802
27.0437 38.1539
27.2272 37.8852
27.4109 37.8594
27.5946 37.7961
27.7784 37.1886
27.9623 37.9498
28.1462 38.126
28.3304 36.4058
28.5145 35.4166
28.6987 35.0553
28.8829 34.8113
29.0673 34.0559
29.2517 33.7622
29.4361 33.508
29.6207 32.5155
29.8053 32.3299
29.99 32.0182
30.1748 31.9305
30.3597 31.7739
30.5447 31.6298
30.7297 31.7999
30.915 31.1636
31.1002 30.6492
31.2855 30.297
31.4708 30.2105
31.6563 29.912
31.8418 29.667
32.0275 29.4319
32.2132 28.8374
32.399 28.4901
32.5848 28.0127
32.7708 27.8156
32.9569 27.5025
33.143 27.2578
33.3293 26.876
33.5158 26.5247
33.7022 26.095
33.8887 25.9399
34.0753 25.5537
34.262 25.1807
34.4488 24.8134
34.6357 24.5562
34.8227 24.2704
35.0098 24.1087
35.1969 23.7676
35.3842 23.6368
35.5716 23.4082
35.759 23.0465
35.9468 22.8154
36.1345 22.5144
36.3222 22.2305
36.5101 22.0065
36.6981 21.7848
36.8861 21.4034
37.0743 21.1337
37.2626 20.9233
37.451 20.6623
37.6395 20.5165
37.8281 20.206
38.0168 19.9206
38.2056 19.6169
38.3945 19.3113
38.5837 19.1022
38.7728 18.9057
38.9621 18.6002
39.1514 18.3778
39.3409 18.1793
39.5304 17.8981
39.7201 17.7455
39.9099 17.5429
40.0999 17.2617
40.2899 17.113
40.48 16.8221
40.6703 16.6398
40.8607 16.4256
41.0512 16.2484
41.242 15.9474
41.4327 15.7515
41.6236 15.6058
41.8146 15.4026
42.0057 15.1218
42.1969 14.9627
42.3882 14.7749
42.5797 14.5564
42.7713 14.3767
42.963 14.1607
43.1549 13.9757
43.3468 13.7506
43.5389 13.5787
43.7312 13.399
43.9237 13.2582
44.1162 13.0666
44.3088 12.8619
44.5016 12.6802
44.6945 12.5136
44.8875 12.3277
45.0806 12.1391
45.2739 12.0226
45.4673 11.8349
45.6609 11.6512
45.8546 11.5254
46.0484 11.359
46.2424 11.1468
46.4365 10.9849
46.631 10.843
46.8254 10.6634
47.0199 10.5338
47.2146 10.3703
47.4095 10.1908
47.6044 10.0684
47.7996 9.93269
47.9948 9.76232
48.1902 9.62483
48.3858 9.46801
48.5815 9.39672
48.7774 9.19959
48.9734 9.08787
49.1696 8.94725
49.3661 8.77799
49.5626 8.63101
49.7592 8.54064
49.956 8.44744
50.153 8.31011
50.3501 8.14542
50.5474 8.03603
50.7448 7.91628
50.9424 7.78001
51.1402 7.66879
51.3381 7.52967
51.5362 7.40211
51.7344 7.27394
51.9328 7.20184
52.1316 7.0239
52.3304 6.95649
52.5293 6.82854
52.7284 6.72627
52.9276 6.63736
53.1271 6.50626
53.3267 6.42054
53.5265 6.30171
53.7264 6.16077
53.9266 6.10663
54.1269 5.92567
54.3274 5.83655
54.528 5.68311
54.7289 5.50134
54.9301 5.42374
55.1314 5.28831
55.3328 5.07194
55.5344 4.85067
55.7361 4.76978

File: Ni3Fe_FD0947.xy
TT I
1.27165 7.39304
1.45013 5.91307
1.62863 5.46539
1.80712 4.805
1.98562 4.92476
2.16411 4.69474
2.34263 5.07986
2.52115 7.74875
2.69965 8.69141
2.87818 9.60172
3.05672 11.2062
3.23527 15.405
3.4138 18.7916
3.59237 22.9572
3.77094 25.6422
3.9495 29.3341
4.12809 34.2142
4.30669 84.718
4.4853 51.8125
4.6639 55.4912
4.84253 68.1495
5.02118 87.4176
5.19981 339.954
5.37848 197.576
5.55716 101.539
5.73586 92.2737
5.91455 93.7504
6.09328 4602.46
6.27201 78.5549
6.45075 69.8241
6.62952 62.5497
6.8083 59.4058
6.98711 55.1188
7.16591 56.4221
7.34475 63.0775
7.5236 53.4408
7.70247 56.4145
7.88135 56.9797
8.06026 62.1643
8.23919 68.5442
8.41812 82.5818
8.59709 1205.02
8.77609 96.3886
8.9551 89.0532
9.13412 82.3277
9.31318 84.9538
9.49226 83.8505
9.67134 94.6111
9.85047 101.227
10.0296 332.673
10.2088 345.545
10.388 103.259
10.5672 545.061
10.7465 85.1944
10.9257 77.144
11.105 70.6209
11.2844 67.148
11.4637 63.9186
11.6431 62.5937
11.8225 62.036
12.002 63.3798
12.1814 158.544
12.3609 65.4415
12.5405 64.2741
12.72 66.8693
12.8996 70.8227
13.0792 78.9861
13.2589 246.215
13.4386 115.801
13.6183 258.419
13.7981 93.1741
13.9779 74.8731
14.1577 70.8059
14.3376 69.2715
14.5175 67.8792
14.6974 69.5345
14.8774 111.135
15.0574 138.863
15.2374 68.527
15.4175 65.5083
15.5976 64.7665
15.7778 94.7912
15.958 145.674
16.1382 60.3786
16.3185 56.8916
16.4988 54.5668
16.6792 53.8085
16.8596 53.9934
17.04 55.0462
17.2205 66.1272
17.401 68.4853
17.5815 58.3793
17.7622 60.0783
17.9428 72.4561
18.1237 137.503
18.3044 90.7781
18.4852 73.73
18.666 59.3971
18.8469 57.1941
19.0278 55.7092
19.2088 58.2677
19.3898 74.3514
19.5709 53.0827
19.752 52.2819
19.9332 55.1642
20.1144 69.3213
20.2957 63.8362
20.477 51.9761
20.6586 48.8767
20.84 48.1647
21.0215 47.8816
21.203 50.2606
21.3846 48.1124
21.5662 48.1859
21.7479 52.0122
21.9297 63.5023
22.1115 55.3046
22.2933 48.7192
22.4753 47.8456
22.6572 47.9874
22.8393 51.2014
23.0214 56.0175
23.2037 47.9981
23.3859 49.003
23.5682 56.5495
23.7505 47.1427
23.9329 44.4253
24.1154 43.508
24.2979 42.8003
24.4805 42.2597
24.6631 42.1886
24.8458 41.4101
25.0286 42.2237
25.2114 43.8441
25.3943 43.6694
25.5773 40.2812
25.7605 39.6744
25.9436 40.2413
26.1268 41.0632
26.31 39.4318
26.4933 40.0381
26.6767 41.5117
26.8601 39.7697
27.0437 38.2925
27.2272 37.9961
27.4109 37.8324
27.5946 37.7372
27.7784 37.2728
27.9623 37.8064
28.1462 38.1319
28.3304 36.4811
28.5145 35.3504
28.6987 34.9852
28.8829 34.8638
29.0673 34.1941
29.2517 33.8756
29.4361 33.5831
29.6207 32.5443
29.8053 32.304
29.99 32.0249
30.1748 31.9134
30.3597 31.8047
30.5447 31.5931
30.7297 31.6034
30.915 31.0808
31.1002 30.6937
31.2855 30.4163
31.4708 30.3202
31.6563 29.7618
31.8418 29.5477
32.0275 29.4027
32.2132 28.8767
32.399 28.4104
32.5848 28.0077
32.7708 27.7482
32.9569 27.5483
33.143 27.3504
33.3293 26.9594
33.5158 26.5749
33.7022 26.1666
33.8887 25.9156
34.0753 25.5361
34.262 25.2543
34.4488 24.9527
34.6357 24.5554
34.8227 24.3
35.0098 24.1715
35.1969 23.8384
35.3842 23.6135
35.5716 23.3379
35.759 23.0177
35.9468 22.7734
36.1345 22.5311
36.3222 22.3068
36.5101 22.028
36.6981 21.7164
36.8861 21.4193
37.0743 21.1343
37.2626 20.8982
37.451 20.5994
37.6395 20.4667
37.8281 20.117
38.0168 19.8216
38.2056 19.5959
38.3945 19.3295
38.5837 19.0865
38.7728 18.8262
38.9621 18.6211
39.1514 18.3604
39.3409 18.0535
39.5304 17.9247
39.7201 17.7467
39.9099 17.4767
40.0999 17.2832
40.2899 17.0217
40.48 16.853
40.6703 16.637
40.8607 16.4609
41.0512 16.2392
41.242 15.9801
41.4327 15.7981
41.6236 15.5501
41.8146 15.3576
42.0057 15.1377
42.1969 14.9586
42.3882 14.8359
42.5797 14.5197
42.7713 14.3991
42.963 14.1544
43.1549 13.949
43.3468 13.7656
43.5389 13.6389
43.7312 13.4459
43.9237 13.2175
44.1162 13.0659
44.3088 12.872
44.5016 12.6712
44.6945 12.4994
44.8875 12.3642
45.0806 12.1641
45.2739 11.9767
45.4673 11.8278
45.6609 11.6209
45.8546 11.5026
46.0484 11.3347
46.2424 11.1673
46.4365 10.991
46.631 10.8246
46.8254 10.6714
47.0199 10.5723
47.2146 10.3859
47.4095 10.2166
47.6044 10.0882
47.7996 9.93372
47.9948 9.75785
48.1902 9.62424
48.3858 9.48679
48.5815 9.36429
48.7774 9.19555
48.9734 9.06473
49.1696 8.95717
49.3661 8.81332
49.5626 8.65443
49.7592 8.58334
49.956 8.41695
50.153 8.2786
50.3501 8.17995
50.5474 8.00191
50.7448 7.90772
50.9424 7.79409
51.1402 7.67157
51.3381 7.54067
51.5362 7.44513
51.7344 7.29716
51.9328 7.18099
52.1316 7.05723
52.3304 6.95637
52.5293 6.83247
52.7284 6.72671
52.9276 6.58309
53.1271 6.51264
53.3267 6.36645
53.5265 6.31947
53.7264 6.14124
53.9266 6.06463
54.1269 5.98664
54.3274 5.87326
54.528 5.70645
54.7289 5.55845
54.9301 5.38797
55.1314 5.2451
55.3328 5.07528
55.5344 4.84704
55.7361 4.70078

File: Ni3Fe_FD0948.xy
TT I
1.27165 7.36419
1.45013 5.95134
1.62863 5.39887
1.80712 4.65454
1.98562 4.68292
2.16411 5.07991
2.34263 5.04258
2.52115 6.5458
2.69965 7.8377
2.87818 8.5601
3.05672 11.3031
3.23527 15.2414
3.4138 18.4779
3.59237 22.9126
3.77094 25.6335
3.9495 29.9061
4.12809 33.5347
4.30669 98.2294
4.4853 53.1706
4.6639 54.8991
4.84253 67.4825
5.02118 87.7701
5.19981 326.542
5.37848 192.879
5.55716 101.539
5.73586 91.8258
5.91455 93.581
6.09328 4541.72
6.27201 79.1999
6.45075 69.1225
6.62952 62.2426
6.8083 58.7166
6.98711 54.848
7.16591 56.9394
7.34475 65.6851
7.5236 53.5909
7.70247 56.5573
7.88135 57.1433
8.06026 61.8477
8.23919 68.4215
8.41812 82.6127
8.59709 1184.43
8.77609 96.774
8.9551 88.6887
9.13412 82.2282
9.31318 83.9397
9.49226 83.9046
9.67134 94.2616
9.85047 100.209
10.0296 330.89
10.2088 361.762
10.388 102.708
10.5672 532.157
10.7465 85.1301
10.9257 77.1492
11.105 70.5842
11.2844 67.5359
11.4637 64.2236
11.6431 62.5937
11.8225 61.8192
12.002 63.0932
12.1814 157.848
12.3609 66.0151
12.5405 64.2277
12.72 66.897
12.8996 70.4987
13.0792 78.5145
13.2589 244.43
13.4386 118.003
13.6183 256.611
13.7981 94.2082
13.9779 74.6784
14.1577 70.7537
14.3376 69.3043
14.5175 67.8622
14.6974 69.293
14.8774 110.759
15.0574 141.972
15.2374 68.3353
15.4175 65.3783
15.5976 64.7191
15.7778 94.3396
15.958 147.535
16.1382 60.3527
16.3185 56.988
16.4988 54.5249
16.6792 53.4466
16.8596 54.0074
17.04 55.0388
17.2205 66.3984
17.401 68.9801
17.5815 58.443
17.7622 60.0396
17.9428 72.1579
18.1237 136.541
18.3044 90.3029
18.4852 74.4623
18.666 59.3024
18.8469 57.1556
19.0278 55.8134
19.2088 58.1725
19.3898 74.0473
19.5709 53.2625
19.752 52.5503
19.9332 55.2064
20.1144 69.0053
20.2957 63.7549
20.477 52.2444
20.6586 48.9721
20.84 48.0528
21.0215 47.7343
21.203 50.2771
21.3846 48.0962
21.5662 48.2528
21.7479 51.7865
21.9297 63.4938
22.1115 55.3454
22.2933 48.8493
22.4753 47.8386
22.6572 48.0111
22.8393 51.2154
23.0214 55.9357
23.2037 47.9697
23.3859 48.9157
23.5682 56.4745
23.7505 47.3962
23.9329 44.4005
24.1154 43.3191
24.2979 42.6253
24.4805 42.2703
24.6631 41.9648
24.8458 41.5241
25.0286 42.0919
25.2114 43.94
25.3943 43.7123
25.5773 40.2387
25.7605 39.6684
25.9436 40.2468
26.1268 41.0715
26.31 39.3438
26.4933 40.0357
26.6767 41.5128
26.8601 39.7188
27.0437 38.1749
27.2272 37.8684
27.4109 37.7506
27.5946 37.7031
27.7784 37.1508
27.9623 37.7719
28.1462 38.1869
28.3304 36.5521
28.5145 35.4044
28.6987 35.1025
28.8829 34.7304
29.0673 34.159
29.2517 33.8535
29.4361 33.5197
29.6207 32.5818
29.8053 32.2813
29.99 32.0589
30.1748 31.9672
30.3597 31.713
30.5447 31.6722
30.7297 31.6356
30.915 31.0079
31.1002 30.6176
31.2855 30.2319
31.4708 30.3142
31.6563 29.9106
31.8418 29.773
32.0275 29.4661
32.2132 28.8974
32.399 28.4142
32.5848 28.0145
32.7708 27.6872
32.9569 27.5173
33.143 27.3279
33.3293 26.9863
33.5158 26.5657
33.7022 26.1554
33.8887 25.8339
34.0753 25.5492
34.262 25.2485
34.4488 24.9163
34.6357 24.5384
34.8227 24.2706
35.0098 24.1089
35.1969 23.8251
35.3842 23.4832
35.5716 23.3677
35.759 23.1125
35.9468 22.7381
36.1345 22.5102
36.3222 22.2978
36.5101 22.0405
36.6981 21.6896
36.8861 21.3984
37.0743 21.1626
37.2626 20.8587
37.451 20.6232
37.6395 20.4825
37.8281 20.0982
38.0168 19.8822
38.2056 19.5756
38.3945 19.292
38.5837 19.1042
38.7728 18.8791
38.9621 18.6805
39.1514 18.4095
39.3409 18.1256
39.5304 17.8699
39.7201 17.7388
39.9099 17.4934
40.0999 17.3252
40.2899 17.099
40.48 16.8357
40.6703 16.667
40.8607 16.4248
41.0512 16.219
41.242 15.9609
41.4327 15.7672
41.6236 15.5183
41.8146 15.3966
42.0057 15.1593
42.1969 14.937
42.3882 14.8031
42.5797 14.6057
42.7713 14.3383
42.963 14.1715
43.1549 13.9845
43.3468 13.7438
43.5389 13.5901
43.7312 13.3561
43.9237 13.2203
44.1162 13.0572
44.3088 12.8858
44.5016 12.6602
44.6945 12.4687
44.8875 12.3309
45.0806 12.0976
45.2739 11.9495
45.4673 11.8547
45.6609 11.627
45.8546 11.476
46.0484 11.3161
46.2424 11.1203
46.4365 11.0158
46.631 10.8652
46.8254 10.6884
47.0199 10.5309
47.2146 10.37
47.4095 10.2312
47.6044 10.0787
47.7996 9.93158
47.9948 9.74124
48.1902 9.61753
48.3858 9.45422
48.5815 9.35357
48.7774 9.24013
48.9734 9.07808
49.1696 8.96746
49.3661 8.82441
49.5626 8.63415
49.7592 8.57143
49.956 8.40811
50.153 8.28574
50.3501 8.17172
50.5474 8.01594
50.7448 7.9217
50.9424 7.78378
51.1402 7.68295
51.3381 7.56927
51.5362 7.39561
51.7344 7.24786
51.9328 7.1728
52.1316 7.06012
52.3304 6.99762
52.5293 6.84451
52.7284 6.72125
52.9276 6.61227
53.1271 6.55266
53.3267 6.38552
53.5265 6.29164
53.7264 6.17461
53.9266 6.07454
54.1269 5.96507
54.3274 5.83139
54.528 5.70982
54.7289 5.49289
54.9301 5.40722
55.1314 5.21195
55.3328 5.02667
55.5344 4.92332
55.7361 4.74021