Folder: NiFe_MOF_catalyst_paper/XRD (part 136)

File: Ni3Fe_FD0735.xy
TT I
1.27165 7.45874
1.45013 5.41604
1.62863 5.57411
1.80712 4.33952
1.98562 5.17306
2.16411 5.22368
2.34263 5.32407
2.52115 6.31844
2.69965 8.52106
2.87818 8.73872
3.05672 11.013
3.23527 15.0733
3.4138 18.9434
3.59237 24.3785
3.77094 26.2222
3.9495 29.9243
4.12809 34.9105
4.30669 207.326
4.4853 64.6477
4.6639 55.387
4.84253 67.0829
5.02118 86.9601
5.19981 322.817
5.37848 183.922
5.55716 101.263
5.73586 91.8932
5.91455 93.0726
6.09328 4550.75
6.27201 82.4973
6.45075 67.3823
6.62952 62.549
6.8083 58.1685
6.98711 55.5395
7.16591 54.7425
7.34475 88.7704
7.5236 54.9074
7.70247 55.7483
7.88135 57.6798
8.06026 62.5643
8.23919 69.5361
8.41812 84.8675
8.59709 1174.45
8.77609 98.8701
8.9551 90.8023
9.13412 81.5844
9.31318 82.3465
9.49226 83.9106
9.67134 97.8536
9.85047 98.9784
10.0296 327.546
10.2088 407.858
10.388 103.866
10.5672 516.727
10.7465 86.4103
10.9257 78.093
11.105 71.9204
11.2844 70.0147
11.4637 64.7292
11.6431 63.761
11.8225 62.2119
12.002 63.2868
12.1814 154.282
12.3609 70.2351
12.5405 64.3343
12.72 69.5851
12.8996 70.671
13.0792 78.278
13.2589 237.633
13.4386 126.041
13.6183 248.181
13.7981 97.6312
13.9779 75.9114
14.1577 72.1121
14.3376 70.913
14.5175 68.6139
14.6974 70.0077
14.8774 109.438
15.0574 148.348
15.2374 70.8072
15.4175 66.3779
15.5976 65.4767
15.7778 93.713
15.958 155.797
16.1382 62.2384
16.3185 58.4216
16.4988 55.3262
16.6792 54.2667
16.8596 55.1303
17.04 55.6956
17.2205 66.3967
17.401 70.407
17.5815 58.9603
17.7622 61.1738
17.9428 72.5575
18.1237 138.6
18.3044 90.7963
18.4852 77.0681
18.666 60.1558
18.8469 57.8844
19.0278 56.8258
19.2088 59.1563
19.3898 75.5822
19.5709 53.9395
19.752 53.1072
19.9332 56.0501
20.1144 69.2535
20.2957 63.8849
20.477 53.5584
20.6586 49.4776
20.84 48.7401
21.0215 48.3514
21.203 50.8865
21.3846 48.8566
21.5662 48.4269
21.7479 52.2908
21.9297 64.2835
22.1115 56.0058
22.2933 49.6172
22.4753 48.7615
22.6572 48.5963
22.8393 51.7278
23.0214 57.0839
23.2037 48.6651
23.3859 49.5998
23.5682 56.8936
23.7505 48.1613
23.9329 45.135
24.1154 44.0516
24.2979 43.3105
24.4805 42.8598
24.6631 42.6539
24.8458 42.2176
25.0286 42.7733
25.2114 44.4748
25.3943 44.3591
25.5773 40.7202
25.7605 40.2164
25.9436 40.7443
26.1268 41.3449
26.31 39.9723
26.4933 40.5233
26.6767 41.9787
26.8601 40.3449
27.0437 38.7318
27.2272 38.4248
27.4109 38.2739
27.5946 38.1865
27.7784 37.7046
27.9623 38.167
28.1462 38.7043
28.3304 37.0175
28.5145 35.8142
28.6987 35.5301
28.8829 35.2242
29.0673 34.5282
29.2517 34.2357
29.4361 33.995
29.6207 33.0878
29.8053 32.7572
29.99 32.5519
30.1748 32.3373
30.3597 32.1978
30.5447 32.1257
30.7297 32.0048
30.915 31.5008
31.1002 31.0482
31.2855 30.8178
31.4708 30.6189
31.6563 30.1767
31.8418 30.0147
32.0275 29.8062
32.2132 29.2909
32.399 28.8616
32.5848 28.461
32.7708 28.0278
32.9569 27.866
33.143 27.6948
33.3293 27.3174
33.5158 26.9633
33.7022 26.5373
33.8887 26.2021
34.0753 25.9365
34.262 25.4825
34.4488 25.1989
34.6357 24.8736
34.8227 24.5984
35.0098 24.3931
35.1969 24.1094
35.3842 23.9683
35.5716 23.6416
35.759 23.3948
35.9468 23.0157
36.1345 22.8146
36.3222 22.6135
36.5101 22.3759
36.6981 22.0626
36.8861 21.7313
37.0743 21.4626
37.2626 21.1662
37.451 20.9153
37.6395 20.7651
37.8281 20.3851
38.0168 20.2085
38.2056 19.8618
38.3945 19.5906
38.5837 19.3526
38.7728 19.1794
38.9621 18.9015
39.1514 18.6557
39.3409 18.3424
39.5304 18.1702
39.7201 18.0632
39.9099 17.7869
40.0999 17.5917
40.2899 17.2905
40.48 17.0367
40.6703 16.8641
40.8607 16.6468
41.0512 16.4954
41.242 16.2393
41.4327 16.0141
41.6236 15.7581
41.8146 15.6431
42.0057 15.361
42.1969 15.2417
42.3882 15.0232
42.5797 14.777
42.7713 14.5863
42.963 14.3718
43.1549 14.2301
43.3468 13.935
43.5389 13.7827
43.7312 13.5593
43.9237 13.4478
44.1162 13.2275
44.3088 13.0294
44.5016 12.8559
44.6945 12.7027
44.8875 12.4997
45.0806 12.3209
45.2739 12.1482
45.4673 12.0101
45.6609 11.7921
45.8546 11.6683
46.0484 11.481
46.2424 11.3379
46.4365 11.149
46.631 10.9946
46.8254 10.8575
47.0199 10.6827
47.2146 10.5501
47.4095 10.3609
47.6044 10.2078
47.7996 10.0504
47.9948 9.9019
48.1902 9.78826
48.3858 9.64067
48.5815 9.51827
48.7774 9.36182
48.9734 9.21033
49.1696 9.06855
49.3661 8.91128
49.5626 8.79074
49.7592 8.66833
49.956 8.53709
50.153 8.39067
50.3501 8.28545
50.5474 8.14816
50.7448 8.04366
50.9424 7.88235
51.1402 7.78581
51.3381 7.6825
51.5362 7.52904
51.7344 7.43408
51.9328 7.30042
52.1316 7.1368
52.3304 7.03662
52.5293 6.92141
52.7284 6.82966
52.9276 6.70467
53.1271 6.62778
53.3267 6.48798
53.5265 6.37357
53.7264 6.2747
53.9266 6.15693
54.1269 6.00773
54.3274 5.90348
54.528 5.76946
54.7289 5.64495
54.9301 5.4329
55.1314 5.34608
55.3328 5.12612
55.5344 4.95945
55.7361 4.81738

File: Ni3Fe_FD0736.xy
TT I
1.27165 7.09752
1.45013 5.65841
1.62863 5.66749
1.80712 4.60169
1.98562 4.76885
2.16411 5.35759
2.34263 5.18971
2.52115 6.69212
2.69965 7.85696
2.87818 8.68459
3.05672 10.8012
3.23527 15.0219
3.4138 18.8431
3.59237 23.5701
3.77094 26.0444
3.9495 29.6182
4.12809 34.7709
4.30669 210.33
4.4853 64.3436
4.6639 55.215
4.84253 66.3807
5.02118 86.1862
5.19981 321.567
5.37848 184.491
5.55716 101.969
5.73586 91.6092
5.91455 93.0522
6.09328 4625.65
6.27201 82.3558
6.45075 67.0686
6.62952 62.8122
6.8083 58.7642
6.98711 55.725
7.16591 55.0628
7.34475 89.1614
7.5236 54.738
7.70247 56.1854
7.88135 57.8402
8.06026 62.3889
8.23919 69.2241
8.41812 84.5202
8.59709 1158.79
8.77609 98.8312
8.9551 91.1369
9.13412 81.9264
9.31318 82.5428
9.49226 84.2063
9.67134 97.8615
9.85047 99.3694
10.0296 325.426
10.2088 410.497
10.388 103.834
10.5672 515.093
10.7465 86.0578
10.9257 78.1686
11.105 71.6138
11.2844 70.2125
11.4637 64.6679
11.6431 63.6171
11.8225 62.239
12.002 63.4183
12.1814 153.162
12.3609 70.2149
12.5405 64.213
12.72 69.645
12.8996 70.5155
13.0792 78.4138
13.2589 237.436
13.4386 126.755
13.6183 248.568
13.7981 97.5025
13.9779 75.623
14.1577 72.1648
14.3376 71.1963
14.5175 68.726
14.6974 69.8544
14.8774 109.277
15.0574 149.383
15.2374 70.8941
15.4175 66.0745
15.5976 65.3209
15.7778 93.5099
15.958 155.806
16.1382 62.4838
16.3185 58.69
16.4988 55.4408
16.6792 54.0958
16.8596 55.1916
17.04 55.4483
17.2205 66.685
17.401 70.5224
17.5815 58.8184
17.7622 61.0204
17.9428 72.7285
18.1237 138.238
18.3044 90.5618
18.4852 77.1729
18.666 60.0934
18.8469 57.6255
19.0278 56.5504
19.2088 59.1638
19.3898 75.8003
19.5709 53.9261
19.752 53.0586
19.9332 55.817
20.1144 69.3354
20.2957 63.7307
20.477 53.6032
20.6586 49.5649
20.84 48.5397
21.0215 48.4963
21.203 50.7502
21.3846 48.6026
21.5662 48.5659
21.7479 52.2801
21.9297 64.2262
22.1115 55.8338
22.2933 49.7143
22.4753 48.6198
22.6572 48.6118
22.8393 51.7339
23.0214 56.8608
23.2037 48.6163
23.3859 49.4024
23.5682 56.8421
23.7505 48.2454
23.9329 45.1146
24.1154 43.932
24.2979 43.2313
24.4805 42.7601
24.6631 42.8603
24.8458 41.9397
25.0286 42.6787
25.2114 44.2968
25.3943 44.3165
25.5773 40.8077
25.7605 40.2824
25.9436 40.6849
26.1268 41.402
26.31 39.9298
26.4933 40.5613
26.6767 41.9499
26.8601 40.2193
27.0437 38.6924
27.2272 38.3702
27.4109 38.1681
27.5946 38.1502
27.7784 37.6338
27.9623 38.2896
28.1462 38.6422
28.3304 37.0981
28.5145 35.7083
28.6987 35.4668
28.8829 35.307
29.0673 34.5243
29.2517 34.1902
29.4361 34.05
29.6207 33.0871
29.8053 32.7848
29.99 32.5427
30.1748 32.3451
30.3597 32.0503
30.5447 32.0429
30.7297 32.0521
30.915 31.4845
31.1002 30.9977
31.2855 30.7853
31.4708 30.7146
31.6563 30.2157
31.8418 30.1197
32.0275 29.7959
32.2132 29.2205
32.399 28.8189
32.5848 28.4215
32.7708 28.1325
32.9569 27.9506
33.143 27.6064
33.3293 27.3637
33.5158 26.9485
33.7022 26.418
33.8887 26.225
34.0753 25.798
34.262 25.6061
34.4488 25.213
34.6357 24.859
34.8227 24.5344
35.0098 24.4606
35.1969 24.116
35.3842 23.9266
35.5716 23.624
35.759 23.4005
35.9468 22.931
36.1345 22.8188
36.3222 22.5532
36.5101 22.3595
36.6981 22.0991
36.8861 21.7526
37.0743 21.3875
37.2626 21.1954
37.451 20.9438
37.6395 20.7416
37.8281 20.3563
38.0168 20.12
38.2056 19.9164
38.3945 19.6435
38.5837 19.343
38.7728 19.1687
38.9621 18.8839
39.1514 18.6061
39.3409 18.4056
39.5304 18.1794
39.7201 17.9682
39.9099 17.761
40.0999 17.5382
40.2899 17.3095
40.48 17.0796
40.6703 16.8027
40.8607 16.6815
41.0512 16.4554
41.242 16.2108
41.4327 16.0314
41.6236 15.7767
41.8146 15.6181
42.0057 15.3675
42.1969 15.1832
42.3882 14.9707
42.5797 14.7621
42.7713 14.557
42.963 14.3699
43.1549 14.1746
43.3468 13.9321
43.5389 13.7885
43.7312 13.6088
43.9237 13.3966
44.1162 13.2545
44.3088 13.0552
44.5016 12.8439
44.6945 12.6615
44.8875 12.5085
45.0806 12.3243
45.2739 12.1255
45.4673 11.9663
45.6609 11.7904
45.8546 11.6454
46.0484 11.4738
46.2424 11.3045
46.4365 11.1814
46.631 10.9913
46.8254 10.8295
47.0199 10.7071
47.2146 10.5223
47.4095 10.4106
47.6044 10.1864
47.7996 10.0811
47.9948 9.88056
48.1902 9.75441
48.3858 9.62188
48.5815 9.52467
48.7774 9.33563
48.9734 9.20189
49.1696 9.06469
49.3661 8.96655
49.5626 8.80751
49.7592 8.65314
49.956 8.5545
50.153 8.40383
50.3501 8.28615
50.5474 8.13291
50.7448 8.03632
50.9424 7.93616
51.1402 7.78597
51.3381 7.67393
51.5362 7.56695
51.7344 7.42026
51.9328 7.25046
52.1316 7.13868
52.3304 7.04723
52.5293 6.91276
52.7284 6.81516
52.9276 6.68457
53.1271 6.61893
53.3267 6.46737
53.5265 6.35756
53.7264 6.2666
53.9266 6.14863
54.1269 6.06136
54.3274 5.9522
54.528 5.76921
54.7289 5.61168
54.9301 5.45644
55.1314 5.34088
55.3328 5.10468
55.5344 4.96624
55.7361 4.82868

File: Ni3Fe_FD0737.xy
TT I
1.27165 7.75009
1.45013 6.25571
1.62863 5.50137
1.80712 4.68016
1.98562 4.61506
2.16411 5.10164
2.34263 5.19897
2.52115 7.54042
2.69965 8.60477
2.87818 8.14211
3.05672 10.7299
3.23527 15.1151
3.4138 19.1741
3.59237 23.9791
3.77094 26.1464
3.9495 29.9254
4.12809 34.8595
4.30669 213.332
4.4853 64.9485
4.6639 55.4704
4.84253 66.6832
5.02118 85.8871
5.19981 321.29
5.37848 184.373
5.55716 101.826
5.73586 91.8382
5.91455 92.842
6.09328 4615.27
6.27201 82.6156
6.45075 67.3406
6.62952 62.7498
6.8083 58.3912
6.98711 55.5484
7.16591 55.1776
7.34475 89.7103
7.5236 54.7354
7.70247 55.9023
7.88135 57.5602
8.06026 61.9227
8.23919 69.137
8.41812 84.7721
8.59709 1155.41
8.77609 98.8638
8.9551 91.3565
9.13412 80.8029
9.31318 81.8894
9.49226 84.1838
9.67134 97.8686
9.85047 99.4292
10.0296 325.934
10.2088 409.927
10.388 104.025
10.5672 513.869
10.7465 86.1819
10.9257 78.1843
11.105 71.4501
11.2844 70.1084
11.4637 64.8456
11.6431 63.5609
11.8225 61.9264
12.002 63.1188
12.1814 152.441
12.3609 70.2395
12.5405 64.2139
12.72 69.7186
12.8996 70.3211
13.0792 78.3408
13.2589 237.063
13.4386 126.327
13.6183 248.573
13.7981 97.6585
13.9779 75.5229
14.1577 72.0095
14.3376 71.1681
14.5175 68.3874
14.6974 70.1358
14.8774 108.947
15.0574 149.639
15.2374 70.7064
15.4175 65.9743
15.5976 65.4388
15.7778 93.5471
15.958 155.992
16.1382 62.2988
16.3185 58.3542
16.4988 55.4554
16.6792 54.2698
16.8596 54.995
17.04 55.5219
17.2205 66.4142
17.401 70.5247
17.5815 58.8158
17.7622 60.847
17.9428 72.7372
18.1237 138.23
18.3044 90.4013
18.4852 77.117
18.666 59.9405
18.8469 57.7599
19.0278 56.5006
19.2088 58.8402
19.3898 75.7766
19.5709 53.9505
19.752 53.1515
19.9332 55.8283
20.1144 69.4041
20.2957 63.9307
20.477 53.5377
20.6586 49.6261
20.84 48.5332
21.0215 48.4473
21.203 50.6046
21.3846 48.7862
21.5662 48.4253
21.7479 52.364
21.9297 64.2688
22.1115 55.8156
22.2933 49.777
22.4753 48.7066
22.6572 48.7775
22.8393 51.6224
23.0214 56.7918
23.2037 48.4124
23.3859 49.2953
23.5682 56.8818
23.7505 48.215
23.9329 45.0576
24.1154 44.0102
24.2979 43.2581
24.4805 42.6659
24.6631 42.7728
24.8458 42.0162
25.0286 42.6076
25.2114 44.487
25.3943 44.3503
25.5773 40.7836
25.7605 40.2735
25.9436 40.6958
26.1268 41.5906
26.31 39.9797
26.4933 40.5416
26.6767 41.955
26.8601 40.2278
27.0437 38.6938
27.2272 38.2958
27.4109 38.1319
27.5946 38.2316
27.7784 37.6545
27.9623 38.1762
28.1462 38.6286
28.3304 36.9767
28.5145 35.7935
28.6987 35.4609
28.8829 35.3139
29.0673 34.5565
29.2517 34.2006
29.4361 33.9839
29.6207 32.9575
29.8053 32.8842
29.99 32.3986
30.1748 32.2279
30.3597 32.0423
30.5447 32.0786
30.7297 32.1199
30.915 31.4785
31.1002 30.996
31.2855 30.7938
31.4708 30.6929
31.6563 30.3125
31.8418 30.1375
32.0275 29.6626
32.2132 29.1676
32.399 28.7935
32.5848 28.335
32.7708 28.0874
32.9569 27.9538
33.143 27.6969
33.3293 27.3302
33.5158 26.8714
33.7022 26.5317
33.8887 26.1671
34.0753 25.8367
34.262 25.5382
34.4488 25.1923
34.6357 24.7942
34.8227 24.6397
35.0098 24.4284
35.1969 24.0394
35.3842 23.8428
35.5716 23.5989
35.759 23.3862
35.9468 22.983
36.1345 22.7945
36.3222 22.5777
36.5101 22.3541
36.6981 22.0517
36.8861 21.779
37.0743 21.4162
37.2626 21.2679
37.451 20.8257
37.6395 20.7821
37.8281 20.4171
38.0168 20.1507
38.2056 19.8785
38.3945 19.6628
38.5837 19.401
38.7728 19.178
38.9621 18.9319
39.1514 18.6357
39.3409 18.4168
39.5304 18.1754
39.7201 17.9484
39.9099 17.7236
40.0999 17.4713
40.2899 17.2965
40.48 17.0372
40.6703 16.8706
40.8607 16.68
41.0512 16.4432
41.242 16.1453
41.4327 15.9554
41.6236 15.7537
41.8146 15.5753
42.0057 15.3686
42.1969 15.1476
42.3882 14.9749
42.5797 14.7617
42.7713 14.5458
42.963 14.3717
43.1549 14.1878
43.3468 13.9832
43.5389 13.7852
43.7312 13.5909
43.9237 13.4321
44.1162 13.2351
44.3088 13.0272
44.5016 12.8666
44.6945 12.667
44.8875 12.4876
45.0806 12.3302
45.2739 12.1592
45.4673 11.9926
45.6609 11.7938
45.8546 11.6509
46.0484 11.4841
46.2424 11.3085
46.4365 11.2085
46.631 10.944
46.8254 10.7991
47.0199 10.6125
47.2146 10.528
47.4095 10.3554
47.6044 10.2112
47.7996 10.053
47.9948 9.90956
48.1902 9.78737
48.3858 9.6052
48.5815 9.51254
48.7774 9.33065
48.9734 9.22166
49.1696 9.09853
49.3661 8.92992
49.5626 8.78897
49.7592 8.64758
49.956 8.56256
50.153 8.40516
50.3501 8.28283
50.5474 8.13188
50.7448 8.0512
50.9424 7.92496
51.1402 7.78719
51.3381 7.63535
51.5362 7.55582
51.7344 7.42668
51.9328 7.26553
52.1316 7.19859
52.3304 7.03608
52.5293 6.9222
52.7284 6.8078
52.9276 6.65335
53.1271 6.60624
53.3267 6.46845
53.5265 6.36106
53.7264 6.23149
53.9266 6.15511
54.1269 6.02474
54.3274 5.90927
54.528 5.79038
54.7289 5.61488
54.9301 5.4504
55.1314 5.34175
55.3328 5.17985
55.5344 4.96519
55.7361 4.80958

File: Ni3Fe_FD0738.xy
TT I
1.27165 7.04133
1.45013 5.54754
1.62863 4.91124
1.80712 4.70529
1.98562 4.37425
2.16411 4.79805
2.34263 5.40347
2.52115 7.13196
2.69965 8.12171
2.87818 8.72765
3.05672 11.2582
3.23527 15.0915
3.4138 19.0777
3.59237 24.1371
3.77094 26.3454
3.9495 30.121
4.12809 34.8244
4.30669 215.038
4.4853 64.8397
4.6639 55.209
4.84253 67.0067
5.02118 86.0167
5.19981 319.854
5.37848 184.174
5.55716 101.349
5.73586 91.5017
5.91455 92.5418
6.09328 4577.03
6.27201 82.3979
6.45075 67.1245
6.62952 62.696
6.8083 58.2832
6.98711 55.5981
7.16591 54.9423
7.34475 89.9906
7.5236 54.5405
7.70247 56.065
7.88135 57.571
8.06026 61.7962
8.23919 69.1751
8.41812 84.2824
8.59709 1155.04
8.77609 98.6361
8.9551 91.0205
9.13412 81.7126
9.31318 82.0953
9.49226 84.158
9.67134 97.4153
9.85047 99.1821
10.0296 324.089
10.2088 411.354
10.388 103.565
10.5672 514.24
10.7465 86.2831
10.9257 78.3085
11.105 71.3711
11.2844 70.0522
11.4637 64.6713
11.6431 63.5143
11.8225 62.2631
12.002 63.1523
12.1814 152.182
12.3609 70.3709
12.5405 64.2844
12.72 69.512
12.8996 70.6412
13.0792 78.1855
13.2589 235.598
13.4386 126.82
13.6183 247.784
13.7981 97.8998
13.9779 75.2609
14.1577 72.0568
14.3376 71.1565
14.5175 68.4437
14.6974 69.978
14.8774 108.689
15.0574 149.702
15.2374 70.7378
15.4175 66.1359
15.5976 65.3531
15.7778 93.4427
15.958 155.988
16.1382 62.3723
16.3185 58.4374
16.4988 55.4759
16.6792 54.3263
16.8596 54.8786
17.04 55.4458
17.2205 66.2499
17.401 70.5978
17.5815 59.0323
17.7622 60.6795
17.9428 72.6201
18.1237 138.407
18.3044 90.4712
18.4852 77.0917
18.666 60.2313
18.8469 57.6721
19.0278 56.5704
19.2088 59.0436
19.3898 75.859
19.5709 53.924
19.752 53.0074
19.9332 55.7383
20.1144 69.4813
20.2957 63.8158
20.477 53.5986
20.6586 49.4389
20.84 48.6963
21.0215 48.2489
21.203 50.845
21.3846 48.7231
21.5662 48.4935
21.7479 52.2953
21.9297 64.1249
22.1115 55.6726
22.2933 49.509
22.4753 48.6114
22.6572 48.4601
22.8393 51.6757
23.0214 56.8221
23.2037 48.5248
23.3859 49.35
23.5682 56.6741
23.7505 48.1645
23.9329 45.0976
24.1154 43.9198
24.2979 43.2167
24.4805 42.722
24.6631 42.5353
24.8458 42.0379
25.0286 42.6889
25.2114 44.408
25.3943 44.4319
25.5773 40.7502
25.7605 40.2905
25.9436 40.6859
26.1268 41.4606
26.31 39.965
26.4933 40.5007
26.6767 41.9316
26.8601 40.1957
27.0437 38.7152
27.2272 38.3054
27.4109 38.2594
27.5946 38.1132
27.7784 37.6357
27.9623 38.1299
28.1462 38.7176
28.3304 37.0326
28.5145 35.8237
28.6987 35.4229
28.8829 35.2255
29.0673 34.4843
29.2517 34.2606
29.4361 33.986
29.6207 32.8807
29.8053 32.7725
29.99 32.4433
30.1748 32.1994
30.3597 32.0684
30.5447 31.9672
30.7297 32.0334
30.915 31.4936
31.1002 30.9369
31.2855 30.7761
31.4708 30.6222
31.6563 30.2704
31.8418 30.0634
32.0275 29.7824
32.2132 29.193
32.399 28.8476
32.5848 28.3709
32.7708 28.0608
32.9569 27.847
33.143 27.6878
33.3293 27.2298
33.5158 26.8997
33.7022 26.4736
33.8887 26.2636
34.0753 25.8983
34.262 25.5589
34.4488 25.1989
34.6357 24.8188
34.8227 24.5916
35.0098 24.3307
35.1969 24.0956
35.3842 23.8357
35.5716 23.6868
35.759 23.3372
35.9468 23.0272
36.1345 22.8688
36.3222 22.5089
36.5101 22.3698
36.6981 22.0064
36.8861 21.7561
37.0743 21.3849
37.2626 21.2062
37.451 20.8967
37.6395 20.6576
37.8281 20.4015
38.0168 20.1109
38.2056 19.9144
38.3945 19.5605
38.5837 19.4074
38.7728 19.1133
38.9621 18.8673
39.1514 18.6411
39.3409 18.3536
39.5304 18.1712
39.7201 17.9761
39.9099 17.7262
40.0999 17.507
40.2899 17.2716
40.48 17.0438
40.6703 16.8021
40.8607 16.6709
41.0512 16.4912
41.242 16.1711
41.4327 16.0198
41.6236 15.7748
41.8146 15.5838
42.0057 15.3462
42.1969 15.2012
42.3882 14.9759
42.5797 14.7214
42.7713 14.5904
42.963 14.3876
43.1549 14.1906
43.3468 13.9187
43.5389 13.7947
43.7312 13.572
43.9237 13.361
44.1162 13.1706
44.3088 13.0619
44.5016 12.8535
44.6945 12.6945
44.8875 12.5182
45.0806 12.2634
45.2739 12.1822
45.4673 11.9869
45.6609 11.7812
45.8546 11.6473
46.0484 11.4743
46.2424 11.3144
46.4365 11.1734
46.631 11.0122
46.8254 10.8225
47.0199 10.6705
47.2146 10.496
47.4095 10.3329
47.6044 10.1952
47.7996 10.0503
47.9948 9.90428
48.1902 9.73222
48.3858 9.62729
48.5815 9.49896
48.7774 9.3621
48.9734 9.2217
49.1696 9.05373
49.3661 8.93629
49.5626 8.78778
49.7592 8.66632
49.956 8.50708
50.153 8.41227
50.3501 8.24054
50.5474 8.12114
50.7448 8.03673
50.9424 7.91208
51.1402 7.80233
51.3381 7.66777
51.5362 7.5121
51.7344 7.4036
51.9328 7.25657
52.1316 7.1355
52.3304 7.0258
52.5293 6.89872
52.7284 6.81775
52.9276 6.7151
53.1271 6.57407
53.3267 6.50084
53.5265 6.36711
53.7264 6.25239
53.9266 6.14888
54.1269 5.99697
54.3274 5.90257
54.528 5.77006
54.7289 5.59208
54.9301 5.44004
55.1314 5.33193
55.3328 5.11586
55.5344 4.98926
55.7361 4.80292

File: Ni3Fe_FD0739.xy
TT I
1.27165 7.32818
1.45013 5.72702
1.62863 4.75343
1.80712 5.11821
1.98562 4.88944
2.16411 4.91687
2.34263 5.60354
2.52115 6.94498
2.69965 8.27733
2.87818 8.45917
3.05672 10.7754
3.23527 15.114
3.4138 19.2969
3.59237 24.0497
3.77094 26.1345
3.9495 29.4986
4.12809 34.919
4.30669 217.146
4.4853 65.5328
4.6639 55.4169
4.84253 67.1159
5.02118 86.2955
5.19981 319.3
5.37848 184.679
5.55716 101.506
5.73586 91.0582
5.91455 92.9037
6.09328 4566.87
6.27201 82.711
6.45075 67.032
6.62952 62.3202
6.8083 58.4098
6.98711 55.6365
7.16591 55.4104
7.34475 91.1197
7.5236 54.3604
7.70247 55.9248
7.88135 57.6879
8.06026 61.8022
8.23919 69.2179
8.41812 84.8923
8.59709 1158.45
8.77609 98.773
8.9551 90.9294
9.13412 81.2982
9.31318 81.8847
9.49226 84.0079
9.67134 98.1501
9.85047 99.056
10.0296 322.986
10.2088 413.029
10.388 103.632
10.5672 520.91
10.7465 86.0677
10.9257 78.0636
11.105 71.5009
11.2844 70.1618
11.4637 64.6631
11.6431 63.4476
11.8225 62.3756
12.002 62.9077
12.1814 151.703
12.3609 70.6425
12.5405 64.0198
12.72 69.555
12.8996 70.3934
13.0792 78.1017
13.2589 235.265
13.4386 126.719
13.6183 246.711
13.7981 98.2748
13.9779 75.2133
14.1577 71.9327
14.3376 71.4562
14.5175 68.3151
14.6974 70.0272
14.8774 108.332
15.0574 150.499
15.2374 70.8121
15.4175 65.772
15.5976 65.2828
15.7778 92.9211
15.958 156.247
16.1382 62.5596
16.3185 58.4251
16.4988 55.241
16.6792 54.3961
16.8596 55.1047
17.04 55.228
17.2205 66.1881
17.401 70.4511
17.5815 58.8305
17.7622 60.9239
17.9428 72.3942
18.1237 138.086
18.3044 90.3973
18.4852 77.2678
18.666 60.0132
18.8469 57.63
19.0278 56.5078
19.2088 59.2754
19.3898 75.9459
19.5709 54.0182
19.752 52.9486
19.9332 55.7468
20.1144 69.3998
20.2957 63.6406
20.477 53.5757
20.6586 49.3237
20.84 48.6602
21.0215 48.2564
21.203 50.6082
21.3846 48.6452
21.5662 48.4296
21.7479 52.2333
21.9297 64.3311
22.1115 55.78
22.2933 49.6839
22.4753 48.8193
22.6572 48.5312
22.8393 51.4705
23.0214 57.0058
23.2037 48.6457
23.3859 49.3141
23.5682 56.884
23.7505 48.1835
23.9329 44.9728
24.1154 44.0106
24.2979 43.1767
24.4805 42.713
24.6631 42.5565
24.8458 42.1721
25.0286 42.6577
25.2114 44.3729
25.3943 44.4236
25.5773 40.764
25.7605 40.2336
25.9436 40.7101
26.1268 41.3826
26.31 39.8628
26.4933 40.5363
26.6767 41.7303
26.8601 40.2953
27.0437 38.619
27.2272 38.339
27.4109 38.1693
27.5946 38.2212
27.7784 37.5727
27.9623 38.4028
28.1462 38.6372
28.3304 37.0678
28.5145 35.7486
28.6987 35.473
28.8829 35.3014
29.0673 34.5295
29.2517 34.1499
29.4361 33.9325
29.6207 32.9967
29.8053 32.7429
29.99 32.4623
30.1748 32.3139
30.3597 32.1261
30.5447 31.9033
30.7297 32.0018
30.915 31.5098
31.1002 30.9578
31.2855 30.7087
31.4708 30.6758
31.6563 30.31
31.8418 29.9166
32.0275 29.7442
32.2132 29.1907
32.399 28.7506
32.5848 28.2915
32.7708 27.9631
32.9569 27.9044
33.143 27.6866
33.3293 27.2919
33.5158 26.9542
33.7022 26.4737
33.8887 26.244
34.0753 25.8865
34.262 25.5154
34.4488 25.2227
34.6357 24.8383
34.8227 24.5504
35.0098 24.414
35.1969 24.1189
35.3842 23.9207
35.5716 23.678
35.759 23.4055
35.9468 23.0316
36.1345 22.7995
36.3222 22.5151
36.5101 22.3188
36.6981 22.0284
36.8861 21.697
37.0743 21.3908
37.2626 21.13
37.451 20.9051
37.6395 20.7698
37.8281 20.332
38.0168 20.0969
38.2056 19.8698
38.3945 19.624
38.5837 19.3507
38.7728 19.1322
38.9621 18.9106
39.1514 18.6375
39.3409 18.3834
39.5304 18.1683
39.7201 17.9287
39.9099 17.727
40.0999 17.522
40.2899 17.3188
40.48 17.0568
40.6703 16.8937
40.8607 16.6298
41.0512 16.4415
41.242 16.1863
41.4327 15.993
41.6236 15.8067
41.8146 15.6075
42.0057 15.3272
42.1969 15.1263
42.3882 14.9255
42.5797 14.7799
42.7713 14.5873
42.963 14.307
43.1549 14.1693
43.3468 13.9754
43.5389 13.7847
43.7312 13.5889
43.9237 13.3673
44.1162 13.2421
44.3088 12.9993
44.5016 12.8483
44.6945 12.6771
44.8875 12.5108
45.0806 12.3118
45.2739 12.1396
45.4673 11.9793
45.6609 11.8442
45.8546 11.6316
46.0484 11.5045
46.2424 11.3271
46.4365 11.1855
46.631 11.0166
46.8254 10.8293
47.0199 10.6595
47.2146 10.5497
47.4095 10.3641
47.6044 10.1725
47.7996 10.0632
47.9948 9.89361
48.1902 9.73519
48.3858 9.62306
48.5815 9.51132
48.7774 9.32811
48.9734 9.21507
49.1696 9.07336
49.3661 8.89308
49.5626 8.77032
49.7592 8.66638
49.956 8.53492
50.153 8.40807
50.3501 8.2716
50.5474 8.1358
50.7448 8.01757
50.9424 7.89838
51.1402 7.76904
51.3381 7.64682
51.5362 7.53931
51.7344 7.41401
51.9328 7.24896
52.1316 7.11283
52.3304 7.03454
52.5293 6.90104
52.7284 6.82495
52.9276 6.70425
53.1271 6.5897
53.3267 6.48153
53.5265 6.35103
53.7264 6.23124
53.9266 6.12019
54.1269 6.04247
54.3274 5.935
54.528 5.79335
54.7289 5.56979
54.9301 5.44386
55.1314 5.34978
55.3328 5.15257
55.5344 4.94131
55.7361 4.78956