Folder: NiFe_MOF_catalyst_paper/XRD (part 156)

File: Ni3Fe_FD0845.xy
TT I
1.27165 7.05701
1.45013 5.88624
1.62863 5.66227
1.80712 5.31214
1.98562 4.78551
2.16411 5.32949
2.34263 5.56567
2.52115 7.10032
2.69965 9.11124
2.87818 9.50771
3.05672 11.3247
3.23527 15.4579
3.4138 19.0229
3.59237 23.6454
3.77094 25.7708
3.9495 29.3049
4.12809 34.8796
4.30669 187.574
4.4853 62.2853
4.6639 54.6715
4.84253 66.5389
5.02118 85.6339
5.19981 310.034
5.37848 177.106
5.55716 101.308
5.73586 91.2601
5.91455 91.8679
6.09328 4368.18
6.27201 81.2946
6.45075 66.6167
6.62952 62.1585
6.8083 57.9497
6.98711 55.3265
7.16591 54.4465
7.34475 84.5764
7.5236 54.0107
7.70247 55.4785
7.88135 57.1807
8.06026 61.441
8.23919 68.3373
8.41812 83.4569
8.59709 1172.17
8.77609 97.3906
8.9551 89.6663
9.13412 81.1623
9.31318 81.8139
9.49226 83.7222
9.67134 96.2458
9.85047 98.6547
10.0296 319.856
10.2088 401.837
10.388 102.575
10.5672 530.043
10.7465 85.8144
10.9257 77.3012
11.105 70.8475
11.2844 69.4016
11.4637 64.1012
11.6431 62.9007
11.8225 61.8911
12.002 62.5038
12.1814 155.929
12.3609 69.3025
12.5405 63.9434
12.72 68.742
12.8996 70.0533
13.0792 77.7578
13.2589 240.257
13.4386 121.498
13.6183 251.845
13.7981 95.8543
13.9779 74.816
14.1577 71.4976
14.3376 70.6444
14.5175 68.0324
14.6974 69.3922
14.8774 108.535
15.0574 147.079
15.2374 69.9231
15.4175 65.5654
15.5976 64.8408
15.7778 93.0251
15.958 151.415
16.1382 61.6507
16.3185 57.6894
16.4988 54.9735
16.6792 53.7305
16.8596 54.4452
17.04 55.1158
17.2205 66.0296
17.401 69.6912
17.5815 58.3519
17.7622 60.467
17.9428 71.8939
18.1237 137.587
18.3044 90.7536
18.4852 76.0742
18.666 59.824
18.8469 57.4314
19.0278 56.1563
19.2088 58.7828
19.3898 75.6619
19.5709 53.5911
19.752 52.6058
19.9332 55.5555
20.1144 69.2384
20.2957 63.969
20.477 53.0372
20.6586 49.0643
20.84 48.307
21.0215 48.1553
21.203 50.3272
21.3846 48.3145
21.5662 48.2382
21.7479 51.9355
21.9297 63.5971
22.1115 55.4547
22.2933 49.246
22.4753 48.3961
22.6572 48.2111
22.8393 51.2273
23.0214 56.7474
23.2037 48.1216
23.3859 48.9893
23.5682 56.4629
23.7505 47.6453
23.9329 44.7198
24.1154 43.4806
24.2979 42.8679
24.4805 42.4785
24.6631 42.3298
24.8458 41.7733
25.0286 42.3706
25.2114 44.1376
25.3943 44.0546
25.5773 40.453
25.7605 39.8677
25.9436 40.2097
26.1268 41.2754
26.31 39.7849
26.4933 40.1943
26.6767 41.7538
26.8601 40.0012
27.0437 38.3688
27.2272 38.0475
27.4109 37.867
27.5946 37.8539
27.7784 37.4529
27.9623 38.0417
28.1462 38.2458
28.3304 36.6734
28.5145 35.6663
28.6987 35.1616
28.8829 35.03
29.0673 34.1667
29.2517 33.9425
29.4361 33.7957
29.6207 32.8704
29.8053 32.4525
29.99 32.2435
30.1748 32.0486
30.3597 31.9811
30.5447 31.7453
30.7297 31.8374
30.915 31.2141
31.1002 30.7669
31.2855 30.4118
31.4708 30.4359
31.6563 29.9914
31.8418 29.7831
32.0275 29.6285
32.2132 29.1046
32.399 28.5673
32.5848 28.1845
32.7708 27.8442
32.9569 27.6714
33.143 27.4404
33.3293 27.0849
33.5158 26.7592
33.7022 26.3158
33.8887 26.012
34.0753 25.6836
34.262 25.296
34.4488 25.054
34.6357 24.7771
34.8227 24.3649
35.0098 24.2126
35.1969 23.8954
35.3842 23.7636
35.5716 23.5578
35.759 23.206
35.9468 22.8842
36.1345 22.5902
36.3222 22.4375
36.5101 22.1697
36.6981 21.8133
36.8861 21.5351
37.0743 21.189
37.2626 21.0433
37.451 20.6942
37.6395 20.5816
37.8281 20.2491
38.0168 19.9618
38.2056 19.7031
38.3945 19.469
38.5837 19.2827
38.7728 19.0058
38.9621 18.7147
39.1514 18.4986
39.3409 18.2549
39.5304 18.0666
39.7201 17.8169
39.9099 17.6512
40.0999 17.4446
40.2899 17.1538
40.48 16.9019
40.6703 16.7532
40.8607 16.5667
41.0512 16.3002
41.242 16.099
41.4327 15.8354
41.6236 15.6612
41.8146 15.4801
42.0057 15.2886
42.1969 15.0035
42.3882 14.8564
42.5797 14.6895
42.7713 14.4776
42.963 14.265
43.1549 14.131
43.3468 13.8553
43.5389 13.6948
43.7312 13.5049
43.9237 13.3175
44.1162 13.0799
44.3088 12.9567
44.5016 12.7153
44.6945 12.6303
44.8875 12.4244
45.0806 12.2529
45.2739 12.0071
45.4673 11.8975
45.6609 11.74
45.8546 11.6025
46.0484 11.4021
46.2424 11.2579
46.4365 11.0984
46.631 10.9337
46.8254 10.7327
47.0199 10.5948
47.2146 10.4321
47.4095 10.2602
47.6044 10.1319
47.7996 9.97988
47.9948 9.82755
48.1902 9.64279
48.3858 9.57308
48.5815 9.41188
48.7774 9.27662
48.9734 9.1361
49.1696 9.00842
49.3661 8.83396
49.5626 8.74391
49.7592 8.60225
49.956 8.48089
50.153 8.34985
50.3501 8.19776
50.5474 8.10283
50.7448 7.9554
50.9424 7.83207
51.1402 7.71346
51.3381 7.57422
51.5362 7.44019
51.7344 7.36948
51.9328 7.20421
52.1316 7.09832
52.3304 6.98484
52.5293 6.88173
52.7284 6.77663
52.9276 6.61614
53.1271 6.56833
53.3267 6.44754
53.5265 6.33267
53.7264 6.22297
53.9266 6.13547
54.1269 5.95106
54.3274 5.87307
54.528 5.75256
54.7289 5.60529
54.9301 5.4012
55.1314 5.29771
55.3328 5.11254
55.5344 4.93274
55.7361 4.78242

File: Ni3Fe_FD0846.xy
TT I
1.27165 7.26982
1.45013 5.96915
1.62863 5.55547
1.80712 5.17979
1.98562 4.52663
2.16411 4.96489
2.34263 5.52272
2.52115 7.65414
2.69965 8.51944
2.87818 9.13756
3.05672 11.1071
3.23527 14.9586
3.4138 18.9785
3.59237 23.6944
3.77094 26.0584
3.9495 29.4631
4.12809 34.647
4.30669 190.881
4.4853 61.9235
4.6639 54.8818
4.84253 66.5055
5.02118 85.5666
5.19981 304.991
5.37848 177.509
5.55716 100.649
5.73586 90.8554
5.91455 92.1327
6.09328 4399.99
6.27201 81.3405
6.45075 66.8267
6.62952 62.0132
6.8083 57.693
6.98711 55.0366
7.16591 54.6499
7.34475 85.4669
7.5236 54.1453
7.70247 55.5819
7.88135 57.14
8.06026 61.2871
8.23919 69.0435
8.41812 83.8235
8.59709 1172.52
8.77609 97.4121
8.9551 89.856
9.13412 81.005
9.31318 81.3466
9.49226 83.7466
9.67134 96.061
9.85047 98.506
10.0296 317.98
10.2088 398.828
10.388 103.156
10.5672 529.729
10.7465 85.4281
10.9257 77.1082
11.105 70.836
11.2844 69.1758
11.4637 63.913
11.6431 62.953
11.8225 61.3919
12.002 62.7094
12.1814 154.08
12.3609 69.1907
12.5405 63.7296
12.72 68.5421
12.8996 70.0211
13.0792 77.6377
13.2589 240.429
13.4386 121.871
13.6183 250.752
13.7981 96.131
13.9779 74.6743
14.1577 71.4503
14.3376 70.4281
14.5175 67.834
14.6974 69.4242
14.8774 107.991
15.0574 147.692
15.2374 69.8818
15.4175 65.4523
15.5976 65.0203
15.7778 92.9318
15.958 151.724
16.1382 61.6705
16.3185 57.8821
16.4988 54.8293
16.6792 53.8282
16.8596 54.3759
17.04 54.8257
17.2205 65.8625
17.401 69.693
17.5815 58.3574
17.7622 60.3623
17.9428 71.9215
18.1237 137.951
18.3044 90.8589
18.4852 76.0133
18.666 59.4581
18.8469 57.384
19.0278 56.1532
19.2088 58.6199
19.3898 75.7935
19.5709 53.5121
19.752 52.5005
19.9332 55.3364
20.1144 68.9477
20.2957 64.0917
20.477 53.0329
20.6586 49.0471
20.84 48.3665
21.0215 48.0027
21.203 50.2863
21.3846 48.3544
21.5662 48.2651
21.7479 51.7459
21.9297 63.6608
22.1115 55.3619
22.2933 49.2375
22.4753 48.2164
22.6572 48.3271
22.8393 51.3699
23.0214 56.4644
23.2037 48.1242
23.3859 49.1098
23.5682 56.7329
23.7505 47.7711
23.9329 44.7458
24.1154 43.7756
24.2979 42.7759
24.4805 42.3785
24.6631 42.4247
24.8458 41.6672
25.0286 42.3683
25.2114 44.1699
25.3943 44.1156
25.5773 40.3697
25.7605 39.8878
25.9436 40.2878
26.1268 41.0198
26.31 39.6156
26.4933 40.3567
26.6767 41.5895
26.8601 40.0112
27.0437 38.426
27.2272 38.142
27.4109 37.8889
27.5946 37.8908
27.7784 37.4163
27.9623 37.932
28.1462 38.3512
28.3304 36.7975
28.5145 35.6018
28.6987 35.3196
28.8829 35.1072
29.0673 34.2392
29.2517 33.9622
29.4361 33.7747
29.6207 32.7584
29.8053 32.4999
29.99 32.3083
30.1748 32.073
30.3597 31.8515
30.5447 31.7642
30.7297 31.8439
30.915 31.2263
31.1002 30.6561
31.2855 30.4609
31.4708 30.4199
31.6563 30.037
31.8418 29.7684
32.0275 29.6309
32.2132 29.0958
32.399 28.6413
32.5848 28.2484
32.7708 27.8341
32.9569 27.6955
33.143 27.4211
33.3293 27.1099
33.5158 26.7566
33.7022 26.3239
33.8887 26.0153
34.0753 25.6957
34.262 25.3668
34.4488 25.0277
34.6357 24.7157
34.8227 24.4041
35.0098 24.1977
35.1969 23.9132
35.3842 23.7425
35.5716 23.5068
35.759 23.2164
35.9468 22.936
36.1345 22.5728
36.3222 22.4023
36.5101 22.0925
36.6981 21.8357
36.8861 21.6512
37.0743 21.2425
37.2626 20.9812
37.451 20.7351
37.6395 20.6181
37.8281 20.3174
38.0168 20.0443
38.2056 19.6525
38.3945 19.4127
38.5837 19.2247
38.7728 19.0466
38.9621 18.7606
39.1514 18.3966
39.3409 18.3203
39.5304 18.0647
39.7201 17.8762
39.9099 17.6016
40.0999 17.3889
40.2899 17.1189
40.48 16.8578
40.6703 16.7633
40.8607 16.5448
41.0512 16.2928
41.242 16.0327
41.4327 15.9073
41.6236 15.6743
41.8146 15.4806
42.0057 15.2551
42.1969 15.0353
42.3882 14.8937
42.5797 14.6307
42.7713 14.4839
42.963 14.2415
43.1549 14.0756
43.3468 13.828
43.5389 13.6475
43.7312 13.4477
43.9237 13.3132
44.1162 13.1157
44.3088 12.9371
44.5016 12.7165
44.6945 12.5898
44.8875 12.3653
45.0806 12.2294
45.2739 12.078
45.4673 11.8954
45.6609 11.7438
45.8546 11.559
46.0484 11.4053
46.2424 11.1911
46.4365 11.0834
46.631 10.892
46.8254 10.7494
47.0199 10.5971
47.2146 10.4263
47.4095 10.2807
47.6044 10.1456
47.7996 9.99763
47.9948 9.83279
48.1902 9.70117
48.3858 9.55916
48.5815 9.44247
48.7774 9.28928
48.9734 9.13099
49.1696 9.00624
49.3661 8.85089
49.5626 8.75283
49.7592 8.59006
49.956 8.45624
50.153 8.36011
50.3501 8.19606
50.5474 8.07446
50.7448 7.95966
50.9424 7.85282
51.1402 7.75139
51.3381 7.57273
51.5362 7.47412
51.7344 7.37657
51.9328 7.25386
52.1316 7.09094
52.3304 7.01907
52.5293 6.86382
52.7284 6.74888
52.9276 6.63766
53.1271 6.567
53.3267 6.38353
53.5265 6.34692
53.7264 6.22219
53.9266 6.09007
54.1269 5.98546
54.3274 5.89223
54.528 5.73903
54.7289 5.60823
54.9301 5.42683
55.1314 5.31091
55.3328 5.10064
55.5344 4.91761
55.7361 4.74969

File: Ni3Fe_FD0847.xy
TT I
1.27165 7.12335
1.45013 6.23175
1.62863 4.97504
1.80712 4.94694
1.98562 4.54815
2.16411 5.57322
2.34263 5.99925
2.52115 6.47398
2.69965 8.52087
2.87818 8.78379
3.05672 10.8645
3.23527 15.3845
3.4138 18.7582
3.59237 23.6376
3.77094 25.8662
3.9495 29.7109
4.12809 34.4211
4.30669 193.802
4.4853 62.9528
4.6639 54.4666
4.84253 66.5811
5.02118 85.5389
5.19981 303.417
5.37848 176.251
5.55716 100.885
5.73586 90.8815
5.91455 92.0443
6.09328 4404.22
6.27201 80.8583
6.45075 66.455
6.62952 62.186
6.8083 57.7935
6.98711 54.9988
7.16591 55.1233
7.34475 85.5809
7.5236 53.9402
7.70247 55.6917
7.88135 57.1805
8.06026 61.7969
8.23919 68.5124
8.41812 83.9688
8.59709 1165.74
8.77609 97.4392
8.9551 90.0796
9.13412 81.1268
9.31318 81.7699
9.49226 83.4676
9.67134 96.6032
9.85047 98.7119
10.0296 317.94
10.2088 395.82
10.388 103.034
10.5672 533.902
10.7465 85.4138
10.9257 77.3266
11.105 70.9317
11.2844 69.2666
11.4637 64.0263
11.6431 62.7848
11.8225 61.65
12.002 62.4891
12.1814 154.663
12.3609 68.8551
12.5405 63.6418
12.72 68.781
12.8996 69.879
13.0792 77.8687
13.2589 238.485
13.4386 121.222
13.6183 251.738
13.7981 96.122
13.9779 74.9311
14.1577 71.4581
14.3376 70.418
14.5175 67.8866
14.6974 69.7644
14.8774 107.744
15.0574 147.025
15.2374 70.0612
15.4175 65.5932
15.5976 64.9982
15.7778 92.7939
15.958 150.642
16.1382 61.6657
16.3185 57.9274
16.4988 54.9802
16.6792 53.919
16.8596 54.607
17.04 55.2059
17.2205 65.835
17.401 70.136
17.5815 58.5252
17.7622 60.4857
17.9428 71.7803
18.1237 137.447
18.3044 90.8223
18.4852 75.8597
18.666 59.4113
18.8469 57.2935
19.0278 56.0982
19.2088 58.5828
19.3898 75.736
19.5709 53.351
19.752 52.6413
19.9332 55.3283
20.1144 68.9575
20.2957 63.9789
20.477 52.9527
20.6586 48.9966
20.84 48.3218
21.0215 47.9764
21.203 50.3874
21.3846 48.3832
21.5662 48.0754
21.7479 51.8015
21.9297 63.482
22.1115 55.3682
22.2933 49.1401
22.4753 48.2187
22.6572 48.1031
22.8393 51.328
23.0214 56.5998
23.2037 48.1525
23.3859 48.9433
23.5682 56.4404
23.7505 47.8201
23.9329 44.7163
24.1154 43.5493
24.2979 42.9385
24.4805 42.3794
24.6631 42.1479
24.8458 41.6883
25.0286 42.3777
25.2114 44.119
25.3943 44.0419
25.5773 40.4059
25.7605 40.119
25.9436 40.3907
26.1268 41.1577
26.31 39.5768
26.4933 40.2466
26.6767 41.6591
26.8601 39.9654
27.0437 38.2996
27.2272 38.0887
27.4109 37.9234
27.5946 37.9007
27.7784 37.379
27.9623 37.9288
28.1462 38.2862
28.3304 36.6839
28.5145 35.4566
28.6987 35.2484
28.8829 34.9788
29.0673 34.2483
29.2517 34.0418
29.4361 33.7259
29.6207 32.8068
29.8053 32.4809
29.99 32.2215
30.1748 32.0966
30.3597 31.8052
30.5447 31.7761
30.7297 31.7906
30.915 31.2109
31.1002 30.7816
31.2855 30.4775
31.4708 30.5108
31.6563 29.9527
31.8418 29.756
32.0275 29.5813
32.2132 29.0514
32.399 28.627
32.5848 28.1718
32.7708 27.7345
32.9569 27.6716
33.143 27.4661
33.3293 27.107
33.5158 26.7437
33.7022 26.3365
33.8887 26.0503
34.0753 25.7349
34.262 25.3531
34.4488 25.0602
34.6357 24.7026
34.8227 24.4856
35.0098 24.1497
35.1969 23.9658
35.3842 23.7525
35.5716 23.5105
35.759 23.2914
35.9468 22.8687
36.1345 22.7067
36.3222 22.3607
36.5101 22.213
36.6981 21.8121
36.8861 21.509
37.0743 21.3001
37.2626 21.0362
37.451 20.7802
37.6395 20.663
37.8281 20.2201
38.0168 19.9786
38.2056 19.6994
38.3945 19.5402
38.5837 19.2455
38.7728 19.0083
38.9621 18.7102
39.1514 18.5042
39.3409 18.3128
39.5304 18.0232
39.7201 17.8989
39.9099 17.6288
40.0999 17.3519
40.2899 17.1715
40.48 16.9019
40.6703 16.7024
40.8607 16.5274
41.0512 16.332
41.242 16.0494
41.4327 15.9067
41.6236 15.6552
41.8146 15.4627
42.0057 15.2362
42.1969 15.0382
42.3882 14.9092
42.5797 14.6418
42.7713 14.5097
42.963 14.2154
43.1549 14.0609
43.3468 13.8339
43.5389 13.7007
43.7312 13.4775
43.9237 13.3261
44.1162 13.0728
44.3088 12.9555
44.5016 12.7438
44.6945 12.5243
44.8875 12.4234
45.0806 12.2675
45.2739 12.1021
45.4673 11.9123
45.6609 11.7333
45.8546 11.5754
46.0484 11.4119
46.2424 11.2276
46.4365 11.1019
46.631 10.9385
46.8254 10.7455
47.0199 10.5625
47.2146 10.4685
47.4095 10.3057
47.6044 10.1213
47.7996 9.99063
47.9948 9.87714
48.1902 9.70138
48.3858 9.56571
48.5815 9.40131
48.7774 9.25783
48.9734 9.12758
49.1696 8.99852
49.3661 8.83261
49.5626 8.74697
49.7592 8.61786
49.956 8.48069
50.153 8.34343
50.3501 8.21947
50.5474 8.07128
50.7448 7.96704
50.9424 7.83694
51.1402 7.7229
51.3381 7.62364
51.5362 7.47749
51.7344 7.33855
51.9328 7.22986
52.1316 7.07448
52.3304 6.99203
52.5293 6.87006
52.7284 6.7784
52.9276 6.63264
53.1271 6.55954
53.3267 6.38149
53.5265 6.29338
53.7264 6.22525
53.9266 6.1163
54.1269 5.98229
54.3274 5.88326
54.528 5.72508
54.7289 5.62662
54.9301 5.40206
55.1314 5.34538
55.3328 5.05824
55.5344 4.96286
55.7361 4.82084

File: Ni3Fe_FD0848.xy
TT I
1.27165 7.11605
1.45013 6.25019
1.62863 5.4338
1.80712 4.92515
1.98562 4.69297
2.16411 5.214
2.34263 5.38374
2.52115 7.48777
2.69965 8.36753
2.87818 9.01178
3.05672 11.0826
3.23527 15.3883
3.4138 18.5908
3.59237 23.9208
3.77094 26.0483
3.9495 29.5612
4.12809 34.3604
4.30669 196.336
4.4853 62.7432
4.6639 54.7385
4.84253 66.8739
5.02118 85.122
5.19981 301.598
5.37848 176.772
5.55716 100.538
5.73586 91.0465
5.91455 91.4784
6.09328 4402.21
6.27201 80.9613
6.45075 66.2868
6.62952 62.2449
6.8083 57.9816
6.98711 55.1162
7.16591 54.2901
7.34475 86.443
7.5236 53.9617
7.70247 55.5481
7.88135 57.2333
8.06026 61.3888
8.23919 68.6323
8.41812 83.4253
8.59709 1159.01
8.77609 97.1818
8.9551 89.9451
9.13412 80.7938
9.31318 81.1745
9.49226 83.2774
9.67134 96.5233
9.85047 98.4938
10.0296 316.807
10.2088 396.007
10.388 102.492
10.5672 532.672
10.7465 85.3716
10.9257 77.3084
11.105 70.9655
11.2844 69.4782
11.4637 63.9443
11.6431 63.1193
11.8225 61.6361
12.002 62.7161
12.1814 154.398
12.3609 69.1345
12.5405 63.8403
12.72 68.736
12.8996 69.7864
13.0792 77.5671
13.2589 237.299
13.4386 121.499
13.6183 251.608
13.7981 96.079
13.9779 74.7374
14.1577 71.6904
14.3376 70.3333
14.5175 67.8946
14.6974 69.2825
14.8774 107.545
15.0574 147.695
15.2374 69.8506
15.4175 65.4871
15.5976 64.7008
15.7778 92.7506
15.958 151.025
16.1382 61.5179
16.3185 57.6213
16.4988 54.7852
16.6792 53.9612
16.8596 54.3609
17.04 54.9826
17.2205 65.8338
17.401 70.0448
17.5815 58.3108
17.7622 60.1998
17.9428 71.7611
18.1237 137.368
18.3044 90.3786
18.4852 75.9671
18.666 59.5315
18.8469 57.3673
19.0278 56.1059
19.2088 58.3699
19.3898 75.8368
19.5709 53.5579
19.752 52.4871
19.9332 55.2861
20.1144 68.9224
20.2957 63.7797
20.477 52.9172
20.6586 49.0332
20.84 48.2289
21.0215 47.9028
21.203 50.3346
21.3846 48.4708
21.5662 48.1637
21.7479 51.6907
21.9297 63.4076
22.1115 55.7013
22.2933 49.349
22.4753 48.3161
22.6572 48.0904
22.8393 51.1932
23.0214 56.3736
23.2037 48.0843
23.3859 48.781
23.5682 56.4338
23.7505 47.7674
23.9329 44.5889
24.1154 43.7373
24.2979 42.7412
24.4805 42.3397
24.6631 42.2906
24.8458 41.7062
25.0286 42.327
25.2114 44.0599
25.3943 44.1065
25.5773 40.4071
25.7605 40.0922
25.9436 40.3519
26.1268 41.1379
26.31 39.5993
26.4933 40.2721
26.6767 41.5805
26.8601 39.8685
27.0437 38.4826
27.2272 38.0757
27.4109 37.9295
27.5946 37.949
27.7784 37.4207
27.9623 37.9127
28.1462 38.3337
28.3304 36.6966
28.5145 35.5049
28.6987 35.1362
28.8829 35.0046
29.0673 34.1551
29.2517 33.8916
29.4361 33.6804
29.6207 32.7296
29.8053 32.4566
29.99 32.2729
30.1748 32.0241
30.3597 31.9283
30.5447 31.8446
30.7297 31.8035
30.915 31.2158
31.1002 30.7915
31.2855 30.5067
31.4708 30.4223
31.6563 30.066
31.8418 29.7843
32.0275 29.6305
32.2132 29.0447
32.399 28.5533
32.5848 28.1532
32.7708 27.8347
32.9569 27.6753
33.143 27.3339
33.3293 27.0756
33.5158 26.6695
33.7022 26.1778
33.8887 26.0647
34.0753 25.5822
34.262 25.3008
34.4488 25.0751
34.6357 24.6372
34.8227 24.3653
35.0098 24.1491
35.1969 23.8937
35.3842 23.6563
35.5716 23.5036
35.759 23.2096
35.9468 22.8161
36.1345 22.6222
36.3222 22.4249
36.5101 22.1328
36.6981 21.8691
36.8861 21.5692
37.0743 21.2397
37.2626 21.0221
37.451 20.791
37.6395 20.5521
37.8281 20.2987
38.0168 19.9267
38.2056 19.7008
38.3945 19.4404
38.5837 19.2333
38.7728 19.0555
38.9621 18.7342
39.1514 18.5302
39.3409 18.2465
39.5304 18.069
39.7201 17.85
39.9099 17.6328
40.0999 17.3338
40.2899 17.1688
40.48 16.9029
40.6703 16.7108
40.8607 16.4962
41.0512 16.2899
41.242 16.0909
41.4327 15.8776
41.6236 15.6885
41.8146 15.4892
42.0057 15.1656
42.1969 15.0603
42.3882 14.8667
42.5797 14.6822
42.7713 14.4136
42.963 14.2677
43.1549 14.0938
43.3468 13.8119
43.5389 13.6834
43.7312 13.4809
43.9237 13.3149
44.1162 13.1344
44.3088 12.9606
44.5016 12.7409
44.6945 12.572
44.8875 12.3417
45.0806 12.2549
45.2739 12.075
45.4673 11.8897
45.6609 11.7142
45.8546 11.5794
46.0484 11.3929
46.2424 11.2556
46.4365 11.096
46.631 10.9374
46.8254 10.7261
47.0199 10.6054
47.2146 10.4619
47.4095 10.2869
47.6044 10.1788
47.7996 9.99506
47.9948 9.86549
48.1902 9.69793
48.3858 9.57037
48.5815 9.44412
48.7774 9.30435
48.9734 9.11236
49.1696 8.98555
49.3661 8.85807
49.5626 8.71376
49.7592 8.58094
49.956 8.46222
50.153 8.35528
50.3501 8.20662
50.5474 8.05717
50.7448 7.95899
50.9424 7.82176
51.1402 7.72613
51.3381 7.58201
51.5362 7.46653
51.7344 7.37015
51.9328 7.2251
52.1316 7.04613
52.3304 6.98993
52.5293 6.87632
52.7284 6.73798
52.9276 6.66026
53.1271 6.52065
53.3267 6.40668
53.5265 6.28203
53.7264 6.21265
53.9266 6.0919
54.1269 5.98273
54.3274 5.89884
54.528 5.76563
54.7289 5.57257
54.9301 5.41935
55.1314 5.29056
55.3328 5.10796
55.5344 4.91338
55.7361 4.78946

File: Ni3Fe_FD0849.xy
TT I
1.27165 7.4485
1.45013 5.6951
1.62863 5.12855
1.80712 4.97091
1.98562 5.12392
2.16411 4.86852
2.34263 5.77423
2.52115 7.62449
2.69965 8.27135
2.87818 8.70384
3.05672 11.4937
3.23527 14.9628
3.4138 18.7022
3.59237 23.5663
3.77094 25.9326
3.9495 29.5203
4.12809 34.4678
4.30669 198.031
4.4853 63.1656
4.6639 54.2488
4.84253 66.567
5.02118 85.1429
5.19981 301.232
5.37848 177.428
5.55716 100.286
5.73586 90.757
5.91455 91.8624
6.09328 4421.84
6.27201 81.4202
6.45075 66.6414
6.62952 61.9745
6.8083 57.9361
6.98711 55.5941
7.16591 54.8916
7.34475 86.3494
7.5236 54.25
7.70247 55.568
7.88135 57.2998
8.06026 61.7008
8.23919 68.2528
8.41812 83.9844
8.59709 1156.89
8.77609 97.4956
8.9551 90.0097
9.13412 81.0908
9.31318 81.8042
9.49226 83.5344
9.67134 96.6806
9.85047 98.2866
10.0296 315.2
10.2088 395.973
10.388 102.624
10.5672 533.943
10.7465 85.2882
10.9257 77.5544
11.105 70.9083
11.2844 69.4304
11.4637 64.2425
11.6431 62.8861
11.8225 61.7317
12.002 62.764
12.1814 154.041
12.3609 69.2085
12.5405 63.6677
12.72 68.8486
12.8996 70.0651
13.0792 77.5879
13.2589 236.271
13.4386 121.569
13.6183 252.123
13.7981 96.0434
13.9779 74.9294
14.1577 71.319
14.3376 70.47
14.5175 67.9805
14.6974 69.1335
14.8774 107.481
15.0574 147.34
15.2374 69.8097
15.4175 65.7467
15.5976 64.8214
15.7778 92.4483
15.958 151.321
16.1382 61.8578
16.3185 57.8508
16.4988 54.8978
16.6792 53.8786
16.8596 54.5831
17.04 54.9203
17.2205 65.8008
17.401 69.9712
17.5815 58.4181
17.7622 60.4322
17.9428 71.8577
18.1237 137.748
18.3044 90.588
18.4852 76.187
18.666 59.6341
18.8469 57.1645
19.0278 56.181
19.2088 58.4035
19.3898 75.5851
19.5709 53.5162
19.752 52.5461
19.9332 55.3541
20.1144 69.0376
20.2957 63.6721
20.477 53.0833
20.6586 49.0635
20.84 48.3365
21.0215 47.8457
21.203 50.27
21.3846 48.4837
21.5662 48.3541
21.7479 51.5854
21.9297 63.652
22.1115 55.5722
22.2933 49.1052
22.4753 48.2814
22.6572 48.1608
22.8393 51.4586
23.0214 56.4107
23.2037 48.1823
23.3859 49.1455
23.5682 56.73
23.7505 47.7912
23.9329 44.7175
24.1154 43.7833
24.2979 42.9978
24.4805 42.4081
24.6631 42.2854
24.8458 41.5996
25.0286 42.2956
25.2114 44.1048
25.3943 44.0614
25.5773 40.3671
25.7605 39.8171
25.9436 40.3486
26.1268 41.2358
26.31 39.5747
26.4933 40.2813
26.6767 41.4506
26.8601 39.9698
27.0437 38.452
27.2272 37.8778
27.4109 38.037
27.5946 37.8801
27.7784 37.5113
27.9623 37.9704
28.1462 38.422
28.3304 36.6641
28.5145 35.5331
28.6987 35.1737
28.8829 35.0327
29.0673 34.2223
29.2517 33.9872
29.4361 33.7045
29.6207 32.8761
29.8053 32.4943
29.99 32.1671
30.1748 32.0461
30.3597 31.8569
30.5447 31.8292
30.7297 31.7798
30.915 31.2902
31.1002 30.8369
31.2855 30.5089
31.4708 30.4247
31.6563 29.9121
31.8418 29.8045
32.0275 29.5844
32.2132 28.9847
32.399 28.5605
32.5848 28.103
32.7708 27.7306
32.9569 27.7216
33.143 27.5049
33.3293 27.1272
33.5158 26.7313
33.7022 26.2902
33.8887 26.014
34.0753 25.6727
34.262 25.3249
34.4488 24.9913
34.6357 24.6484
34.8227 24.3528
35.0098 24.1244
35.1969 23.8897
35.3842 23.7423
35.5716 23.4438
35.759 23.1984
35.9468 22.8223
36.1345 22.654
36.3222 22.4208
36.5101 22.1591
36.6981 21.857
36.8861 21.5229
37.0743 21.2723
37.2626 20.9706
37.451 20.7317
37.6395 20.5774
37.8281 20.2158
38.0168 19.9387
38.2056 19.75
38.3945 19.4394
38.5837 19.1937
38.7728 18.9686
38.9621 18.7453
39.1514 18.554
39.3409 18.2593
39.5304 18.0477
39.7201 17.8418
39.9099 17.6465
40.0999 17.3361
40.2899 17.143
40.48 16.9352
40.6703 16.7594
40.8607 16.5029
41.0512 16.2811
41.242 16.0886
41.4327 15.8682
41.6236 15.6525
41.8146 15.4918
42.0057 15.2304
42.1969 15.0037
42.3882 14.9092
42.5797 14.6435
42.7713 14.487
42.963 14.2745
43.1549 14.0583
43.3468 13.8355
43.5389 13.6854
43.7312 13.4716
43.9237 13.3033
44.1162 13.1074
44.3088 12.9029
44.5016 12.7846
44.6945 12.6299
44.8875 12.3984
45.0806 12.2403
45.2739 12.0999
45.4673 11.9045
45.6609 11.7141
45.8546 11.5777
46.0484 11.4042
46.2424 11.2433
46.4365 11.1279
46.631 10.9289
46.8254 10.7523
47.0199 10.5781
47.2146 10.4359
47.4095 10.2574
47.6044 10.1117
47.7996 9.99066
47.9948 9.83404
48.1902 9.71119
48.3858 9.57779
48.5815 9.40914
48.7774 9.23197
48.9734 9.12637
49.1696 8.9993
49.3661 8.87318
49.5626 8.70595
49.7592 8.62274
49.956 8.48342
50.153 8.35749
50.3501 8.20921
50.5474 8.06632
50.7448 7.94469
50.9424 7.85415
51.1402 7.75956
51.3381 7.57349
51.5362 7.46458
51.7344 7.37588
51.9328 7.22297
52.1316 7.0746
52.3304 7.01124
52.5293 6.82967
52.7284 6.73998
52.9276 6.63457
53.1271 6.55546
53.3267 6.40032
53.5265 6.29018
53.7264 6.23642
53.9266 6.09254
54.1269 5.99333
54.3274 5.8866
54.528 5.73986
54.7289 5.56215
54.9301 5.38954
55.1314 5.27707
55.3328 5.10181
55.5344 4.88504
55.7361 4.78816