Folder: NiFe_MOF_catalyst_paper/XRD (part 162)

File: Ni3Fe_FD0878.xy
TT I
1.27165 7.22487
1.45013 6.32757
1.62863 5.06452
1.80712 5.0507
1.98562 5.24633
2.16411 5.06012
2.34263 5.37785
2.52115 7.71823
2.69965 8.6725
2.87818 9.2477
3.05672 11.1007
3.23527 15.1487
3.4138 19.1391
3.59237 24.0665
3.77094 26.1024
3.9495 29.5425
4.12809 35.1908
4.30669 260.971
4.4853 69.448
4.6639 54.8787
4.84253 66.1247
5.02118 84.5284
5.19981 289.308
5.37848 179.999
5.55716 99.8627
5.73586 90.1404
5.91455 90.723
6.09328 4343.47
6.27201 81.6237
6.45075 66.5177
6.62952 62.2059
6.8083 58.1781
6.98711 55.2151
7.16591 54.9004
7.34475 99.8189
7.5236 54.4937
7.70247 55.5086
7.88135 57.2764
8.06026 61.4887
8.23919 68.4893
8.41812 83.5301
8.59709 1091.35
8.77609 97.6838
8.9551 91.5342
9.13412 80.7159
9.31318 81.3543
9.49226 83.0321
9.67134 98.8066
9.85047 98.0504
10.0296 293.11
10.2088 409.334
10.388 102.95
10.5672 516.633
10.7465 85.304
10.9257 77.4943
11.105 70.7503
11.2844 70.1535
11.4637 64.2471
11.6431 62.8882
11.8225 61.6029
12.002 62.293
12.1814 148.443
12.3609 71.3109
12.5405 63.6161
12.72 69.9908
12.8996 69.6779
13.0792 76.9883
13.2589 223.112
13.4386 124.041
13.6183 238.339
13.7981 96.1242
13.9779 74.7492
14.1577 71.5995
14.3376 71.1629
14.5175 67.8196
14.6974 69.2525
14.8774 104.295
15.0574 147.879
15.2374 70.5607
15.4175 65.255
15.5976 64.7581
15.7778 89.8404
15.958 156.439
16.1382 62.3013
16.3185 58.0931
16.4988 54.7846
16.6792 53.7127
16.8596 54.7215
17.04 54.9456
17.2205 64.8258
17.401 70.0928
17.5815 58.2448
17.7622 60.1933
17.9428 70.5551
18.1237 138.462
18.3044 88.5575
18.4852 76.6626
18.666 59.3704
18.8469 57.2284
19.0278 55.9928
19.2088 58.166
19.3898 76.4041
19.5709 53.565
19.752 52.4662
19.9332 55.102
20.1144 69.476
20.2957 63.3741
20.477 53.2013
20.6586 48.8525
20.84 48.3549
21.0215 47.8812
21.203 50.2684
21.3846 48.3045
21.5662 47.8955
21.7479 51.3099
21.9297 63.9827
22.1115 55.6085
22.2933 49.2523
22.4753 48.177
22.6572 47.9988
22.8393 50.9477
23.0214 56.9617
23.2037 48.1387
23.3859 48.7425
23.5682 56.3701
23.7505 47.868
23.9329 44.7109
24.1154 43.5251
24.2979 42.9512
24.4805 42.4791
24.6631 42.3578
24.8458 41.5153
25.0286 42.216
25.2114 44.0669
25.3943 44.0565
25.5773 40.4185
25.7605 39.9585
25.9436 40.2618
26.1268 41.1352
26.31 39.6347
26.4933 40.0639
26.6767 41.6864
26.8601 39.936
27.0437 38.2798
27.2272 38.023
27.4109 37.9231
27.5946 37.7941
27.7784 37.3577
27.9623 37.8859
28.1462 38.2956
28.3304 36.7746
28.5145 35.5473
28.6987 35.212
28.8829 34.9303
29.0673 34.1457
29.2517 33.9454
29.4361 33.7595
29.6207 32.7436
29.8053 32.5336
29.99 32.1165
30.1748 32.0894
30.3597 31.867
30.5447 31.7462
30.7297 31.8207
30.915 31.1972
31.1002 30.6929
31.2855 30.4809
31.4708 30.4139
31.6563 30.052
31.8418 29.7804
32.0275 29.5257
32.2132 29.0056
32.399 28.5227
32.5848 28.1623
32.7708 27.7867
32.9569 27.6889
33.143 27.4389
33.3293 27.0621
33.5158 26.6945
33.7022 26.246
33.8887 26.0619
34.0753 25.6309
34.262 25.2429
34.4488 24.9662
34.6357 24.6235
34.8227 24.345
35.0098 24.1822
35.1969 23.9481
35.3842 23.7272
35.5716 23.5202
35.759 23.1862
35.9468 22.8169
36.1345 22.6758
36.3222 22.4177
36.5101 22.0977
36.6981 21.872
36.8861 21.5401
37.0743 21.2173
37.2626 21.0223
37.451 20.7017
37.6395 20.5744
37.8281 20.2536
38.0168 20.0182
38.2056 19.6952
38.3945 19.3792
38.5837 19.1588
38.7728 18.956
38.9621 18.7405
39.1514 18.4037
39.3409 18.248
39.5304 18.0434
39.7201 17.8121
39.9099 17.6272
40.0999 17.4134
40.2899 17.2128
40.48 16.9034
40.6703 16.734
40.8607 16.5219
41.0512 16.3211
41.242 16.0899
41.4327 15.9078
41.6236 15.6549
41.8146 15.4804
42.0057 15.2315
42.1969 15.0214
42.3882 14.8688
42.5797 14.6395
42.7713 14.4708
42.963 14.2616
43.1549 14.0533
43.3468 13.8516
43.5389 13.6763
43.7312 13.5188
43.9237 13.3282
44.1162 13.0844
44.3088 12.9692
44.5016 12.7101
44.6945 12.5983
44.8875 12.3771
45.0806 12.2265
45.2739 12.0505
45.4673 11.8981
45.6609 11.7203
45.8546 11.5823
46.0484 11.374
46.2424 11.229
46.4365 11.0665
46.631 10.9049
46.8254 10.7247
47.0199 10.5967
47.2146 10.4572
47.4095 10.2571
47.6044 10.1239
47.7996 10.0021
47.9948 9.82379
48.1902 9.68707
48.3858 9.53412
48.5815 9.43421
48.7774 9.28622
48.9734 9.13527
49.1696 9.00956
49.3661 8.86371
49.5626 8.73542
49.7592 8.58772
49.956 8.48361
50.153 8.32435
50.3501 8.18175
50.5474 8.07988
50.7448 7.9665
50.9424 7.88849
51.1402 7.73007
51.3381 7.56774
51.5362 7.45923
51.7344 7.3425
51.9328 7.21049
52.1316 7.10806
52.3304 6.99446
52.5293 6.88285
52.7284 6.75906
52.9276 6.639
53.1271 6.58089
53.3267 6.38695
53.5265 6.28963
53.7264 6.21783
53.9266 6.0936
54.1269 5.96704
54.3274 5.86429
54.528 5.79
54.7289 5.57179
54.9301 5.43885
55.1314 5.2769
55.3328 5.13049
55.5344 4.86482
55.7361 4.75311

File: Ni3Fe_FD0879.xy
TT I
1.27165 7.62178
1.45013 5.85916
1.62863 5.02055
1.80712 4.88877
1.98562 4.44724
2.16411 5.33726
2.34263 5.03824
2.52115 7.70147
2.69965 8.26392
2.87818 8.90487
3.05672 11.302
3.23527 15.5329
3.4138 18.7099
3.59237 24.2447
3.77094 26.2626
3.9495 30.1303
4.12809 35.0913
4.30669 264.205
4.4853 69.6895
4.6639 55.0768
4.84253 66.1076
5.02118 84.7708
5.19981 286.916
5.37848 181.788
5.55716 99.9603
5.73586 90.0382
5.91455 90.3104
6.09328 4327.24
6.27201 81.7299
6.45075 66.5348
6.62952 61.976
6.8083 58.3913
6.98711 55.7093
7.16591 54.9014
7.34475 100.963
7.5236 54.4642
7.70247 55.6758
7.88135 57.0916
8.06026 61.4115
8.23919 68.4113
8.41812 83.3727
8.59709 1079.68
8.77609 97.3645
8.9551 91.8696
9.13412 80.3149
9.31318 81.1798
9.49226 83.2018
9.67134 99.1168
9.85047 97.5369
10.0296 291.256
10.2088 414.263
10.388 103.03
10.5672 510.059
10.7465 85.1395
10.9257 77.5302
11.105 70.7955
11.2844 70.1675
11.4637 64.1638
11.6431 63.0804
11.8225 61.5734
12.002 62.4888
12.1814 147.864
12.3609 71.1208
12.5405 63.6298
12.72 69.9726
12.8996 69.6774
13.0792 76.75
13.2589 221.311
13.4386 124.608
13.6183 237.846
13.7981 96.7049
13.9779 74.5573
14.1577 71.4742
14.3376 70.9349
14.5175 67.7792
14.6974 69.1902
14.8774 103.844
15.0574 148.657
15.2374 70.3074
15.4175 65.3703
15.5976 64.3859
15.7778 89.107
15.958 158.325
16.1382 62.2981
16.3185 58.1569
16.4988 54.6456
16.6792 53.7566
16.8596 54.4795
17.04 54.8419
17.2205 64.6203
17.401 69.8901
17.5815 58.3314
17.7622 60.3176
17.9428 70.4279
18.1237 137.868
18.3044 88.6759
18.4852 76.831
18.666 59.5164
18.8469 57.0586
19.0278 55.9254
19.2088 58.2958
19.3898 76.5238
19.5709 53.414
19.752 52.3794
19.9332 54.7773
20.1144 69.5156
20.2957 63.3449
20.477 53.1091
20.6586 49.0185
20.84 48.1118
21.0215 47.8537
21.203 50.2688
21.3846 48.3246
21.5662 47.9088
21.7479 51.5304
21.9297 64.0967
22.1115 55.6723
22.2933 49.1061
22.4753 48.2298
22.6572 48.0687
22.8393 50.8952
23.0214 56.9627
23.2037 48.2037
23.3859 48.9009
23.5682 56.4258
23.7505 47.9133
23.9329 44.6166
24.1154 43.6155
24.2979 42.9333
24.4805 42.3548
24.6631 42.3141
24.8458 41.6066
25.0286 42.2236
25.2114 43.9942
25.3943 44.0673
25.5773 40.3498
25.7605 39.9711
25.9436 40.2676
26.1268 41.1391
26.31 39.3989
26.4933 40.1311
26.6767 41.6367
26.8601 39.8585
27.0437 38.3578
27.2272 37.9671
27.4109 37.868
27.5946 37.8761
27.7784 37.4145
27.9623 37.9538
28.1462 38.3671
28.3304 36.7124
28.5145 35.5993
28.6987 35.1379
28.8829 35.0533
29.0673 34.2924
29.2517 33.8725
29.4361 33.723
29.6207 32.8275
29.8053 32.5046
29.99 32.0872
30.1748 31.9523
30.3597 31.7383
30.5447 31.8051
30.7297 31.7124
30.915 31.1875
31.1002 30.8067
31.2855 30.4955
31.4708 30.4456
31.6563 29.9307
31.8418 29.7055
32.0275 29.5007
32.2132 29.0209
32.399 28.5854
32.5848 28.1571
32.7708 27.7678
32.9569 27.648
33.143 27.4517
33.3293 27.0604
33.5158 26.6447
33.7022 26.257
33.8887 25.9891
34.0753 25.6655
34.262 25.3067
34.4488 24.9992
34.6357 24.6196
34.8227 24.4139
35.0098 24.2217
35.1969 23.895
35.3842 23.6765
35.5716 23.5183
35.759 23.1291
35.9468 22.8465
36.1345 22.6815
36.3222 22.3322
36.5101 22.189
36.6981 21.923
36.8861 21.5447
37.0743 21.2492
37.2626 21.0126
37.451 20.7008
37.6395 20.5533
37.8281 20.2539
38.0168 20.0027
38.2056 19.7204
38.3945 19.452
38.5837 19.1741
38.7728 18.9784
38.9621 18.7202
39.1514 18.4766
39.3409 18.269
39.5304 18.0405
39.7201 17.8725
39.9099 17.6217
40.0999 17.38
40.2899 17.1776
40.48 16.8719
40.6703 16.7436
40.8607 16.5721
41.0512 16.2994
41.242 16.0626
41.4327 15.8816
41.6236 15.6838
41.8146 15.506
42.0057 15.2293
42.1969 15.0394
42.3882 14.9144
42.5797 14.5957
42.7713 14.494
42.963 14.253
43.1549 14.0293
43.3468 13.8478
43.5389 13.6888
43.7312 13.4878
43.9237 13.3612
44.1162 13.115
44.3088 12.9122
44.5016 12.7703
44.6945 12.5818
44.8875 12.4467
45.0806 12.2357
45.2739 12.0753
45.4673 11.8934
45.6609 11.6911
45.8546 11.6064
46.0484 11.3967
46.2424 11.2079
46.4365 11.0816
46.631 10.911
46.8254 10.7597
47.0199 10.5841
47.2146 10.4252
47.4095 10.2895
47.6044 10.1654
47.7996 9.96264
47.9948 9.84778
48.1902 9.71084
48.3858 9.55676
48.5815 9.40143
48.7774 9.29787
48.9734 9.1677
49.1696 9.00478
49.3661 8.85264
49.5626 8.72633
49.7592 8.6187
49.956 8.47162
50.153 8.3564
50.3501 8.22006
50.5474 8.10304
50.7448 7.95811
50.9424 7.85605
51.1402 7.71304
51.3381 7.58258
51.5362 7.47577
51.7344 7.33845
51.9328 7.23275
52.1316 7.11525
52.3304 7.00595
52.5293 6.86743
52.7284 6.74316
52.9276 6.6703
53.1271 6.60388
53.3267 6.40504
53.5265 6.28991
53.7264 6.2433
53.9266 6.05759
54.1269 5.98377
54.3274 5.86601
54.528 5.76243
54.7289 5.58206
54.9301 5.41782
55.1314 5.28876
55.3328 5.09025
55.5344 4.85514
55.7361 4.75516

File: Ni3Fe_FD0881.xy
TT I
1.27165 7.40847
1.45013 6.49697
1.62863 5.27116
1.80712 4.92339
1.98562 5.17536
2.16411 5.54992
2.34263 5.63858
2.52115 7.56221
2.69965 8.16363
2.87818 9.04792
3.05672 10.9082
3.23527 15.3855
3.4138 19.327
3.59237 24.3265
3.77094 26.0592
3.9495 29.8105
4.12809 34.7594
4.30669 264.602
4.4853 69.7576
4.6639 54.8474
4.84253 66.0451
5.02118 84.4565
5.19981 288.495
5.37848 180.934
5.55716 100.007
5.73586 90.5576
5.91455 91.3035
6.09328 4336.23
6.27201 81.6597
6.45075 66.7893
6.62952 62.7629
6.8083 58.0614
6.98711 55.6177
7.16591 55.5376
7.34475 100.219
7.5236 54.6478
7.70247 55.7998
7.88135 57.1769
8.06026 61.5137
8.23919 68.6053
8.41812 84.1028
8.59709 1084.6
8.77609 97.7691
8.9551 92.5333
9.13412 81.064
9.31318 80.8309
9.49226 83.2518
9.67134 99.6636
9.85047 97.8567
10.0296 292.663
10.2088 404.085
10.388 103.195
10.5672 512.291
10.7465 85.4754
10.9257 77.8471
11.105 71.3214
11.2844 70.2309
11.4637 64.4828
11.6431 62.8884
11.8225 61.8737
12.002 62.4053
12.1814 149.708
12.3609 71.3556
12.5405 63.8729
12.72 70.1105
12.8996 69.9658
13.0792 77.3017
13.2589 222.279
13.4386 123.546
13.6183 238.999
13.7981 96.1243
13.9779 74.6499
14.1577 71.7606
14.3376 71.1106
14.5175 67.8182
14.6974 69.4269
14.8774 104.123
15.0574 147.405
15.2374 70.9101
15.4175 65.3451
15.5976 64.6203
15.7778 89.521
15.958 156.417
16.1382 62.3123
16.3185 58.3047
16.4988 54.8986
16.6792 53.9532
16.8596 54.6248
17.04 54.9033
17.2205 64.8815
17.401 69.6232
17.5815 58.3841
17.7622 60.4144
17.9428 70.7426
18.1237 138.017
18.3044 88.6577
18.4852 76.3684
18.666 59.5539
18.8469 57.2922
19.0278 56.2347
19.2088 58.3014
19.3898 76.4144
19.5709 53.6145
19.752 52.6425
19.9332 55.0767
20.1144 69.5883
20.2957 63.3415
20.477 53.2787
20.6586 49.173
20.84 48.1787
21.0215 47.8943
21.203 50.2804
21.3846 48.4119
21.5662 48.1782
21.7479 51.4887
21.9297 64.1361
22.1115 55.5669
22.2933 49.2117
22.4753 48.4192
22.6572 48.1238
22.8393 50.8341
23.0214 56.9331
23.2037 48.218
23.3859 48.9254
23.5682 56.4119
23.7505 47.8137
23.9329 44.5105
24.1154 43.6651
24.2979 42.8179
24.4805 42.3621
24.6631 42.4004
24.8458 41.7422
25.0286 42.2001
25.2114 44.0549
25.3943 44.1718
25.5773 40.3986
25.7605 39.8694
25.9436 40.2674
26.1268 41.0737
26.31 39.4319
26.4933 40.1283
26.6767 41.684
26.8601 40.0198
27.0437 38.4097
27.2272 37.9967
27.4109 37.9446
27.5946 37.9753
27.7784 37.2851
27.9623 37.8023
28.1462 38.2433
28.3304 36.7609
28.5145 35.4885
28.6987 35.2274
28.8829 34.9977
29.0673 34.2045
29.2517 33.9233
29.4361 33.8816
29.6207 32.706
29.8053 32.5504
29.99 32.1787
30.1748 32.0993
30.3597 31.8081
30.5447 31.7484
30.7297 31.8785
30.915 31.2869
31.1002 30.7735
31.2855 30.5206
31.4708 30.5094
31.6563 30.014
31.8418 29.6841
32.0275 29.4958
32.2132 29.0229
32.399 28.5719
32.5848 28.0948
32.7708 27.7706
32.9569 27.6264
33.143 27.4776
33.3293 27.0305
33.5158 26.6592
33.7022 26.3032
33.8887 25.9059
34.0753 25.6255
34.262 25.2712
34.4488 24.9768
34.6357 24.6774
34.8227 24.4283
35.0098 24.2325
35.1969 23.9869
35.3842 23.7244
35.5716 23.514
35.759 23.2059
35.9468 22.8134
36.1345 22.6449
36.3222 22.3624
36.5101 22.1783
36.6981 21.8594
36.8861 21.5114
37.0743 21.152
37.2626 21.0239
37.451 20.7485
37.6395 20.5274
37.8281 20.1993
38.0168 19.9586
38.2056 19.7108
38.3945 19.439
38.5837 19.1941
38.7728 19.0026
38.9621 18.6833
39.1514 18.384
39.3409 18.1957
39.5304 18.0186
39.7201 17.9298
39.9099 17.6618
40.0999 17.3531
40.2899 17.1435
40.48 16.8866
40.6703 16.7195
40.8607 16.5471
41.0512 16.2755
41.242 16.0998
41.4327 15.857
41.6236 15.7089
41.8146 15.4325
42.0057 15.2871
42.1969 15.0314
42.3882 14.8333
42.5797 14.6728
42.7713 14.4478
42.963 14.2853
43.1549 14.0957
43.3468 13.9154
43.5389 13.6878
43.7312 13.5183
43.9237 13.2747
44.1162 13.1317
44.3088 12.9222
44.5016 12.7615
44.6945 12.5579
44.8875 12.4484
45.0806 12.2341
45.2739 12.0886
45.4673 11.9007
45.6609 11.6985
45.8546 11.6119
46.0484 11.4226
46.2424 11.2325
46.4365 11.0772
46.631 10.9051
46.8254 10.7566
47.0199 10.6256
47.2146 10.4613
47.4095 10.2771
47.6044 10.1253
47.7996 9.9898
47.9948 9.82465
48.1902 9.69074
48.3858 9.56746
48.5815 9.41934
48.7774 9.30547
48.9734 9.14417
49.1696 9.00019
49.3661 8.86093
49.5626 8.72432
49.7592 8.60137
49.956 8.45546
50.153 8.33344
50.3501 8.20364
50.5474 8.10061
50.7448 7.98105
50.9424 7.8326
51.1402 7.71473
51.3381 7.62291
51.5362 7.47313
51.7344 7.33323
51.9328 7.23846
52.1316 7.09564
52.3304 7.00661
52.5293 6.89618
52.7284 6.7931
52.9276 6.61754
53.1271 6.52812
53.3267 6.45456
53.5265 6.29635
53.7264 6.20601
53.9266 6.09172
54.1269 5.98558
54.3274 5.89391
54.528 5.79554
54.7289 5.60094
54.9301 5.41771
55.1314 5.3059
55.3328 5.07515
55.5344 4.88253
55.7361 4.75588

File: Ni3Fe_FD0882.xy
TT I
1.27165 7.63279
1.45013 5.2146
1.62863 5.18334
1.80712 4.72144
1.98562 5.49724
2.16411 4.67195
2.34263 6.17866
2.52115 7.03364
2.69965 8.40543
2.87818 9.07226
3.05672 11.3206
3.23527 15.5206
3.4138 19.1107
3.59237 24.0575
3.77094 26.4695
3.9495 29.7512
4.12809 34.6242
4.30669 269.118
4.4853 69.6568
4.6639 54.5895
4.84253 66.1693
5.02118 84.3389
5.19981 285.858
5.37848 181.736
5.55716 100.035
5.73586 90.0717
5.91455 90.3699
6.09328 4314.24
6.27201 82.1195
6.45075 66.6084
6.62952 62.3422
6.8083 58.0394
6.98711 55.1823
7.16591 54.989
7.34475 101.92
7.5236 54.3535
7.70247 55.8835
7.88135 57.0296
8.06026 61.8181
8.23919 68.6746
8.41812 83.2754
8.59709 1070.69
8.77609 97.2643
8.9551 91.6939
9.13412 80.7355
9.31318 81.1326
9.49226 82.8311
9.67134 98.8252
9.85047 97.7598
10.0296 289.245
10.2088 419.139
10.388 102.749
10.5672 505.702
10.7465 85.2632
10.9257 77.8274
11.105 70.7921
11.2844 70.1687
11.4637 63.9739
11.6431 62.5655
11.8225 61.3083
12.002 62.4873
12.1814 147.351
12.3609 71.3552
12.5405 63.4229
12.72 70.1483
12.8996 69.7623
13.0792 76.7806
13.2589 219.841
13.4386 125.001
13.6183 238.072
13.7981 96.5443
13.9779 74.3886
14.1577 71.3941
14.3376 71.0754
14.5175 67.771
14.6974 69.2424
14.8774 103.479
15.0574 150.324
15.2374 70.613
15.4175 65.2604
15.5976 64.6383
15.7778 88.9046
15.958 158.35
16.1382 62.4153
16.3185 58.01
16.4988 54.6037
16.6792 53.5096
16.8596 54.4169
17.04 54.9688
17.2205 64.4569
17.401 69.9448
17.5815 58.022
17.7622 60.319
17.9428 70.5619
18.1237 137.686
18.3044 88.2485
18.4852 76.8051
18.666 59.5152
18.8469 57.1948
19.0278 56.1067
19.2088 58.3919
19.3898 76.4399
19.5709 53.3459
19.752 52.3756
19.9332 54.8364
20.1144 69.2396
20.2957 63.2534
20.477 53.1829
20.6586 48.9952
20.84 48.1435
21.0215 47.8245
21.203 50.078
21.3846 48.2629
21.5662 48.0501
21.7479 51.4615
21.9297 64.0993
22.1115 55.6362
22.2933 49.2777
22.4753 48.408
22.6572 47.9778
22.8393 50.8196
23.0214 56.953
23.2037 48.1482
23.3859 48.8514
23.5682 56.3186
23.7505 47.774
23.9329 44.5962
24.1154 43.4366
24.2979 42.9111
24.4805 42.1257
24.6631 42.2598
24.8458 41.7606
25.0286 42.1633
25.2114 43.9528
25.3943 44.1712
25.5773 40.2515
25.7605 39.9532
25.9436 40.2281
26.1268 41.1218
26.31 39.5585
26.4933 40.019
26.6767 41.665
26.8601 39.8234
27.0437 38.3553
27.2272 37.9711
27.4109 37.8358
27.5946 37.9281
27.7784 37.2287
27.9623 37.8476
28.1462 38.2759
28.3304 36.8176
28.5145 35.4731
28.6987 35.1399
28.8829 35.0976
29.0673 34.2402
29.2517 33.8015
29.4361 33.6986
29.6207 32.5783
29.8053 32.4797
29.99 32.0625
30.1748 32.0338
30.3597 31.8146
30.5447 31.7091
30.7297 31.7618
30.915 31.2152
31.1002 30.6554
31.2855 30.3796
31.4708 30.3849
31.6563 30.0067
31.8418 29.6983
32.0275 29.5231
32.2132 28.9754
32.399 28.6266
32.5848 28.1449
32.7708 27.7748
32.9569 27.6782
33.143 27.3838
33.3293 27.0455
33.5158 26.6697
33.7022 26.2532
33.8887 25.9481
34.0753 25.7008
34.262 25.2865
34.4488 24.9547
34.6357 24.5718
34.8227 24.3845
35.0098 24.1791
35.1969 23.8471
35.3842 23.6475
35.5716 23.4641
35.759 23.107
35.9468 22.7995
36.1345 22.6064
36.3222 22.4279
36.5101 22.1446
36.6981 21.8364
36.8861 21.5353
37.0743 21.2479
37.2626 20.9619
37.451 20.7638
37.6395 20.5674
37.8281 20.2376
38.0168 19.9739
38.2056 19.6448
38.3945 19.4443
38.5837 19.2171
38.7728 18.9586
38.9621 18.6659
39.1514 18.4022
39.3409 18.2634
39.5304 18.0722
39.7201 17.868
39.9099 17.5983
40.0999 17.3011
40.2899 17.1674
40.48 16.8985
40.6703 16.6761
40.8607 16.5292
41.0512 16.2664
41.242 16.0144
41.4327 15.8768
41.6236 15.6425
41.8146 15.4858
42.0057 15.2492
42.1969 15.0786
42.3882 14.8774
42.5797 14.6288
42.7713 14.4394
42.963 14.2662
43.1549 14.0874
43.3468 13.8478
43.5389 13.674
43.7312 13.4685
43.9237 13.3137
44.1162 13.1233
44.3088 12.9569
44.5016 12.7361
44.6945 12.5763
44.8875 12.3978
45.0806 12.2559
45.2739 12.0619
45.4673 11.9014
45.6609 11.772
45.8546 11.5383
46.0484 11.3821
46.2424 11.2033
46.4365 11.1104
46.631 10.8958
46.8254 10.7615
47.0199 10.5852
47.2146 10.4404
47.4095 10.2446
47.6044 10.1389
47.7996 9.9667
47.9948 9.84087
48.1902 9.69214
48.3858 9.54298
48.5815 9.38936
48.7774 9.29151
48.9734 9.13279
49.1696 9.0032
49.3661 8.8312
49.5626 8.73402
49.7592 8.58036
49.956 8.47383
50.153 8.3453
50.3501 8.20449
50.5474 8.08739
50.7448 7.93729
50.9424 7.79388
51.1402 7.74231
51.3381 7.53915
51.5362 7.48268
51.7344 7.36916
51.9328 7.18503
52.1316 7.08813
52.3304 6.98032
52.5293 6.83608
52.7284 6.80194
52.9276 6.62483
53.1271 6.56253
53.3267 6.40188
53.5265 6.32817
53.7264 6.2144
53.9266 6.09034
54.1269 5.97492
54.3274 5.88708
54.528 5.77608
54.7289 5.58438
54.9301 5.46192
55.1314 5.28181
55.3328 5.11376
55.5344 4.924
55.7361 4.73233

File: Ni3Fe_FD0883.xy
TT I
1.27165 7.05373
1.45013 5.54681
1.62863 5.43555
1.80712 4.91364
1.98562 5.07508
2.16411 5.11453
2.34263 5.68035
2.52115 6.90341
2.69965 8.41135
2.87818 8.42304
3.05672 11.2535
3.23527 15.3423
3.4138 18.8386
3.59237 24.4813
3.77094 25.9637
3.9495 29.8428
4.12809 34.7578
4.30669 271.221
4.4853 70.0426
4.6639 54.563
4.84253 66.0764
5.02118 84.2389
5.19981 285.526
5.37848 182.216
5.55716 99.3807
5.73586 90.1202
5.91455 90.7785
6.09328 4286.57
6.27201 82.1478
6.45075 66.5536
6.62952 62.4533
6.8083 57.8488
6.98711 55.3331
7.16591 54.8909
7.34475 102.216
7.5236 54.3273
7.70247 55.5626
7.88135 56.9781
8.06026 61.4548
8.23919 68.5999
8.41812 83.5166
8.59709 1072.7
8.77609 97.509
8.9551 92.2731
9.13412 80.5636
9.31318 80.6834
9.49226 83.0666
9.67134 99.3424
9.85047 97.6722
10.0296 288.629
10.2088 418.737
10.388 103.362
10.5672 507.069
10.7465 85.1151
10.9257 77.969
11.105 71.0389
11.2844 70.1846
11.4637 63.9546
11.6431 62.8336
11.8225 61.7236
12.002 62.299
12.1814 147.967
12.3609 71.1542
12.5405 63.7052
12.72 70.175
12.8996 69.5811
13.0792 77.107
13.2589 219.926
13.4386 124.952
13.6183 238.146
13.7981 96.4476
13.9779 74.6097
14.1577 71.4439
14.3376 71.0274
14.5175 67.7894
14.6974 69.0305
14.8774 103.857
15.0574 149.807
15.2374 70.6915
15.4175 65.4578
15.5976 64.7441
15.7778 88.8092
15.958 158.225
16.1382 62.4523
16.3185 58.0385
16.4988 54.659
16.6792 53.7016
16.8596 54.6414
17.04 54.9068
17.2205 64.7814
17.401 70.0059
17.5815 58.2329
17.7622 60.2879
17.9428 70.3778
18.1237 137.795
18.3044 88.2098
18.4852 76.9237
18.666 59.2683
18.8469 57.164
19.0278 56.185
19.2088 58.2935
19.3898 76.5202
19.5709 53.4175
19.752 52.4942
19.9332 55.0816
20.1144 69.3545
20.2957 63.3354
20.477 53.2702
20.6586 48.9599
20.84 48.0051
21.0215 47.973
21.203 50.1274
21.3846 48.3512
21.5662 47.81
21.7479 51.3613
21.9297 63.9856
22.1115 55.6067
22.2933 49.2452
22.4753 48.1653
22.6572 48.0038
22.8393 50.765
23.0214 56.9153
23.2037 48.1666
23.3859 48.6262
23.5682 56.374
23.7505 47.7961
23.9329 44.7222
24.1154 43.6278
24.2979 42.9031
24.4805 42.2938
24.6631 42.2126
24.8458 41.6993
25.0286 42.1548
25.2114 43.9543
25.3943 44.0559
25.5773 40.2346
25.7605 39.9313
25.9436 40.3781
26.1268 41.2293
26.31 39.3608
26.4933 40.1401
26.6767 41.7384
26.8601 39.9433
27.0437 38.2544
27.2272 37.993
27.4109 37.8356
27.5946 37.8459
27.7784 37.3758
27.9623 37.881
28.1462 38.328
28.3304 36.6351
28.5145 35.6166
28.6987 35.179
28.8829 34.9883
29.0673 34.2536
29.2517 33.8237
29.4361 33.683
29.6207 32.5966
29.8053 32.4105
29.99 32.1319
30.1748 32.0526
30.3597 31.7853
30.5447 31.7643
30.7297 31.8061
30.915 31.189
31.1002 30.6771
31.2855 30.4357
31.4708 30.4492
31.6563 29.9779
31.8418 29.7528
32.0275 29.5262
32.2132 28.9941
32.399 28.5539
32.5848 28.1651
32.7708 27.7902
32.9569 27.6574
33.143 27.4391
33.3293 27.069
33.5158 26.6266
33.7022 26.2279
33.8887 26.0287
34.0753 25.6911
34.262 25.3161
34.4488 25.0202
34.6357 24.6659
34.8227 24.3831
35.0098 24.2226
35.1969 23.8576
35.3842 23.6309
35.5716 23.4929
35.759 23.2089
35.9468 22.7956
36.1345 22.7125
36.3222 22.4115
36.5101 22.0955
36.6981 21.8747
36.8861 21.5216
37.0743 21.298
37.2626 20.9979
37.451 20.7517
37.6395 20.5626
37.8281 20.2829
38.0168 19.9608
38.2056 19.7397
38.3945 19.4296
38.5837 19.2175
38.7728 19.0234
38.9621 18.6742
39.1514 18.5015
39.3409 18.2435
39.5304 18.0569
39.7201 17.7982
39.9099 17.6595
40.0999 17.3435
40.2899 17.1109
40.48 16.9407
40.6703 16.7597
40.8607 16.544
41.0512 16.3141
41.242 16.02
41.4327 15.8371
41.6236 15.6887
41.8146 15.5046
42.0057 15.2451
42.1969 15.0449
42.3882 14.8931
42.5797 14.6251
42.7713 14.4569
42.963 14.2382
43.1549 14.0585
43.3468 13.7812
43.5389 13.7289
43.7312 13.4952
43.9237 13.2514
44.1162 13.1257
44.3088 12.922
44.5016 12.7935
44.6945 12.5933
44.8875 12.3844
45.0806 12.2173
45.2739 12.1004
45.4673 11.893
45.6609 11.7255
45.8546 11.5738
46.0484 11.3937
46.2424 11.2439
46.4365 11.1045
46.631 10.8956
46.8254 10.7472
47.0199 10.5808
47.2146 10.4763
47.4095 10.2809
47.6044 10.1457
47.7996 9.96311
47.9948 9.8306
48.1902 9.71818
48.3858 9.57178
48.5815 9.44816
48.7774 9.28728
48.9734 9.15584
49.1696 9.01889
49.3661 8.87343
49.5626 8.74243
49.7592 8.59645
49.956 8.47025
50.153 8.33564
50.3501 8.19058
50.5474 8.10649
50.7448 7.96175
50.9424 7.84932
51.1402 7.7314
51.3381 7.58127
51.5362 7.47404
51.7344 7.36101
51.9328 7.20622
52.1316 7.11997
52.3304 7.01966
52.5293 6.86651
52.7284 6.77113
52.9276 6.65419
53.1271 6.55333
53.3267 6.41944
53.5265 6.33981
53.7264 6.22411
53.9266 6.05501
54.1269 5.96633
54.3274 5.8488
54.528 5.72737
54.7289 5.52767
54.9301 5.43485
55.1314 5.30198
55.3328 5.0912
55.5344 4.91844
55.7361 4.76728