Folder: NiFe_MOF_catalyst_paper/XRD (part 43)

File: Ni3Fe_FD0220.xy
TT I
1.27165 7.94134
1.45013 6.19815
1.62863 5.44595
1.80712 5.0524
1.98562 5.73394
2.16411 4.47166
2.34263 4.54587
2.52115 4.51966
2.69965 5.66453
2.87818 7.5904
3.05672 10.5115
3.23527 15.506
3.4138 18.9499
3.59237 22.5466
3.77094 25.9651
3.9495 30.0221
4.12809 35.3227
4.30669 40.7695
4.4853 48.395
4.6639 57.9518
4.84253 71.9566
5.02118 96.4129
5.19981 892.921
5.37848 275.45
5.55716 112.485
5.73586 101.605
5.91455 110.845
6.09328 3592.52
6.27201 89.8811
6.45075 71.1288
6.62952 64.3831
6.8083 60.2055
6.98711 57.6428
7.16591 56.2375
7.34475 55.8016
7.5236 56.1342
7.70247 58.2142
7.88135 60.4902
8.06026 65.684
8.23919 72.9297
8.41812 90.7126
8.59709 1056.95
8.77609 111.397
8.9551 90.7281
9.13412 87.2882
9.31318 88.3963
9.49226 89.8153
9.67134 95.5282
9.85047 107.253
10.0296 522.232
10.2088 568.368
10.388 115.264
10.5672 435.704
10.7465 92.7454
10.9257 81.207
11.105 75.3803
11.2844 70.9406
11.4637 67.9367
11.6431 66.6069
11.8225 65.6865
12.002 68.8321
12.1814 140.01
12.3609 70.4213
12.5405 67.4901
12.72 69.7084
12.8996 75.014
13.0792 86.6828
13.2589 227.653
13.4386 149.967
13.6183 224.569
13.7981 112.51
13.9779 79.8482
14.1577 75.5706
14.3376 73.2971
14.5175 72.7791
14.6974 74.7765
14.8774 119.398
15.0574 173.024
15.2374 72.7024
15.4175 69.9586
15.5976 70.0116
15.7778 103.423
15.958 178.013
16.1382 64.0533
16.3185 60.478
16.4988 57.9922
16.6792 57.106
16.8596 57.6425
17.04 59.2953
17.2205 68.8985
17.401 77.6143
17.5815 62.2425
17.7622 64.7876
17.9428 82.8072
18.1237 139.287
18.3044 90.3046
18.4852 84.1918
18.666 63.4752
18.8469 60.9868
19.0278 59.7655
19.2088 62.9443
19.3898 76.3746
19.5709 57.125
19.752 56.1975
19.9332 59.6183
20.1144 72.5083
20.2957 64.5345
20.477 57.1034
20.6586 52.1592
20.84 51.422
21.0215 51.1119
21.203 52.7404
21.3846 51.7821
21.5662 51.8351
21.7479 55.5209
21.9297 66.7011
22.1115 57.8384
22.2933 52.6472
22.4753 51.0394
22.6572 52.0281
22.8393 54.2906
23.0214 60.1154
23.2037 51.3395
23.3859 52.7791
23.5682 57.6549
23.7505 51.4456
23.9329 47.519
24.1154 46.0762
24.2979 45.6403
24.4805 45.0541
24.6631 45.0868
24.8458 44.4482
25.0286 45.0929
25.2114 46.5881
25.3943 46.7449
25.5773 42.8518
25.7605 42.4712
25.9436 42.5953
26.1268 43.6735
26.31 42.281
26.4933 42.6357
26.6767 43.8838
26.8601 42.3048
27.0437 40.8344
27.2272 40.4448
27.4109 40.3094
27.5946 40.2606
27.7784 39.9181
27.9623 39.994
28.1462 40.6626
28.3304 39.0782
28.5145 37.732
28.6987 37.2093
28.8829 37.0099
29.0673 36.3958
29.2517 35.8647
29.4361 35.8173
29.6207 34.7907
29.8053 34.3873
29.99 34.0557
30.1748 33.9647
30.3597 33.7494
30.5447 33.6875
30.7297 33.7276
30.915 33.183
31.1002 32.7436
31.2855 32.2915
31.4708 32.2191
31.6563 31.8658
31.8418 31.5419
32.0275 31.3271
32.2132 30.8006
32.399 30.2873
32.5848 29.866
32.7708 29.5911
32.9569 29.3124
33.143 29.1529
33.3293 28.7145
33.5158 28.2992
33.7022 27.7922
33.8887 27.5218
34.0753 27.2662
34.262 26.8893
34.4488 26.5439
34.6357 26.1598
34.8227 25.9252
35.0098 25.6859
35.1969 25.3652
35.3842 25.1082
35.5716 24.922
35.759 24.4897
35.9468 24.1666
36.1345 24.0561
36.3222 23.8072
36.5101 23.4435
36.6981 23.1082
36.8861 22.8548
37.0743 22.5111
37.2626 22.1991
37.451 21.9546
37.6395 21.8129
37.8281 21.4697
38.0168 21.2233
38.2056 20.938
38.3945 20.5971
38.5837 20.3434
38.7728 20.0973
38.9621 19.863
39.1514 19.5856
39.3409 19.281
39.5304 19.0976
39.7201 18.8721
39.9099 18.6628
40.0999 18.4236
40.2899 18.1663
40.48 17.9075
40.6703 17.7246
40.8607 17.5029
41.0512 17.2841
41.242 16.9799
41.4327 16.7912
41.6236 16.5854
41.8146 16.379
42.0057 16.1467
42.1969 15.9104
42.3882 15.7667
42.5797 15.4882
42.7713 15.3297
42.963 15.095
43.1549 14.876
43.3468 14.6375
43.5389 14.4556
43.7312 14.2631
43.9237 14.0819
44.1162 13.9185
44.3088 13.6893
44.5016 13.4763
44.6945 13.2689
44.8875 13.0935
45.0806 12.8972
45.2739 12.7889
45.4673 12.5771
45.6609 12.3922
45.8546 12.2203
46.0484 12.0793
46.2424 11.8485
46.4365 11.7179
46.631 11.4784
46.8254 11.2966
47.0199 11.1859
47.2146 11.0462
47.4095 10.8673
47.6044 10.6967
47.7996 10.5296
47.9948 10.3929
48.1902 10.2236
48.3858 10.0932
48.5815 9.97757
48.7774 9.8049
48.9734 9.66703
49.1696 9.53026
49.3661 9.31543
49.5626 9.19499
49.7592 9.09622
49.956 8.91724
50.153 8.7963
50.3501 8.69645
50.5474 8.57522
50.7448 8.45299
50.9424 8.29293
51.1402 8.18837
51.3381 8.02627
51.5362 7.87182
51.7344 7.77663
51.9328 7.63605
52.1316 7.47198
52.3304 7.39848
52.5293 7.24181
52.7284 7.13506
52.9276 7.00375
53.1271 6.91288
53.3267 6.80206
53.5265 6.68424
53.7264 6.5563
53.9266 6.42275
54.1269 6.26641
54.3274 6.17212
54.528 6.05884
54.7289 5.85797
54.9301 5.70458
55.1314 5.52836
55.3328 5.3268
55.5344 5.12835
55.7361 5.0108

File: Ni3Fe_FD0221.xy
TT I
1.27165 8.05128
1.45013 6.75948
1.62863 5.98368
1.80712 5.71192
1.98562 4.98977
2.16411 4.53924
2.34263 4.7098
2.52115 4.63099
2.69965 5.90327
2.87818 8.15792
3.05672 10.8088
3.23527 14.9706
3.4138 18.768
3.59237 22.6463
3.77094 25.6989
3.9495 29.895
4.12809 35.1494
4.30669 39.8536
4.4853 48.4386
4.6639 58.2359
4.84253 71.8053
5.02118 96.7467
5.19981 891.942
5.37848 275.751
5.55716 112.302
5.73586 101.133
5.91455 111.02
6.09328 3586.49
6.27201 89.4465
6.45075 71.0048
6.62952 64.0999
6.8083 59.9307
6.98711 57.4163
7.16591 56.565
7.34475 55.7897
7.5236 56.3546
7.70247 58.0617
7.88135 59.9761
8.06026 65.4787
8.23919 73.2566
8.41812 90.4366
8.59709 1057.38
8.77609 111.265
8.9551 90.83
9.13412 87.2909
9.31318 87.9891
9.49226 89.7319
9.67134 95.7945
9.85047 106.692
10.0296 521.757
10.2088 576.089
10.388 115.168
10.5672 436.451
10.7465 92.4992
10.9257 81.2564
11.105 74.8252
11.2844 70.5997
11.4637 67.8663
11.6431 66.7051
11.8225 65.2296
12.002 68.5229
12.1814 139.863
12.3609 70.5834
12.5405 67.3762
12.72 69.7432
12.8996 75.0533
13.0792 86.5192
13.2589 227.858
13.4386 150.809
13.6183 224.744
13.7981 112.565
13.9779 80.1345
14.1577 75.3885
14.3376 73.1923
14.5175 72.5793
14.6974 74.5969
14.8774 119.71
15.0574 173.423
15.2374 72.5251
15.4175 70.005
15.5976 69.8884
15.7778 103.478
15.958 177.804
16.1382 63.9654
16.3185 60.3278
16.4988 58.1332
16.6792 57.1485
16.8596 57.38
17.04 59.3086
17.2205 68.6735
17.401 77.5038
17.5815 61.9686
17.7622 64.5111
17.9428 82.7806
18.1237 139.251
18.3044 90.3181
18.4852 84.4431
18.666 63.5599
18.8469 61.1525
19.0278 59.9267
19.2088 63.0207
19.3898 76.1985
19.5709 57.0496
19.752 56.2859
19.9332 59.6432
20.1144 72.6209
20.2957 64.3887
20.477 56.999
20.6586 52.0773
20.84 51.3323
21.0215 51.2742
21.203 52.5826
21.3846 51.739
21.5662 51.8687
21.7479 55.5225
21.9297 66.8246
22.1115 57.727
22.2933 52.6921
22.4753 50.9392
22.6572 52.0741
22.8393 54.2842
23.0214 60.0317
23.2037 51.4977
23.3859 52.6529
23.5682 57.6571
23.7505 51.3873
23.9329 47.4184
24.1154 46.3212
24.2979 45.5025
24.4805 44.945
24.6631 44.8522
24.8458 44.4859
25.0286 45.1273
25.2114 46.5765
25.3943 46.7892
25.5773 42.9474
25.7605 42.4092
25.9436 42.8358
26.1268 43.6851
26.31 42.2353
26.4933 42.5545
26.6767 43.9285
26.8601 42.2972
27.0437 40.799
27.2272 40.5246
27.4109 40.1773
27.5946 40.3195
27.7784 39.8507
27.9623 39.9681
28.1462 40.5416
28.3304 39.0161
28.5145 37.7471
28.6987 37.3071
28.8829 36.9361
29.0673 36.3569
29.2517 35.819
29.4361 35.5883
29.6207 34.6298
29.8053 34.4143
29.99 34.0456
30.1748 33.9225
30.3597 33.8681
30.5447 33.6555
30.7297 33.5701
30.915 33.0997
31.1002 32.6533
31.2855 32.3195
31.4708 32.2945
31.6563 31.7775
31.8418 31.533
32.0275 31.3008
32.2132 30.7628
32.399 30.301
32.5848 29.8661
32.7708 29.5784
32.9569 29.3989
33.143 29.0528
33.3293 28.6544
33.5158 28.2285
33.7022 27.837
33.8887 27.5167
34.0753 27.1666
34.262 26.9644
34.4488 26.4932
34.6357 26.1773
34.8227 25.8543
35.0098 25.655
35.1969 25.3193
35.3842 25.025
35.5716 24.8535
35.759 24.6189
35.9468 24.2651
36.1345 23.9442
36.3222 23.7004
36.5101 23.4679
36.6981 23.1482
36.8861 22.8969
37.0743 22.5011
37.2626 22.2803
37.451 21.9682
37.6395 21.7055
37.8281 21.4289
38.0168 21.1606
38.2056 20.8804
38.3945 20.5739
38.5837 20.3045
38.7728 20.1278
38.9621 19.8061
39.1514 19.5738
39.3409 19.4215
39.5304 19.1185
39.7201 18.8723
39.9099 18.653
40.0999 18.4052
40.2899 18.1962
40.48 17.9739
40.6703 17.6969
40.8607 17.5273
41.0512 17.2776
41.242 16.9593
41.4327 16.8107
41.6236 16.5686
41.8146 16.3698
42.0057 16.1389
42.1969 15.8656
42.3882 15.7465
42.5797 15.4594
42.7713 15.2911
42.963 15.0655
43.1549 14.8726
43.3468 14.674
43.5389 14.4842
43.7312 14.2076
43.9237 14.0464
44.1162 13.8697
44.3088 13.6644
44.5016 13.4786
44.6945 13.3272
44.8875 13.12
45.0806 12.9293
45.2739 12.7569
45.4673 12.5876
45.6609 12.3917
45.8546 12.2433
46.0484 12.0705
46.2424 11.8855
46.4365 11.7144
46.631 11.4836
46.8254 11.3117
47.0199 11.1628
47.2146 11.0212
47.4095 10.8665
47.6044 10.7222
47.7996 10.5734
47.9948 10.4057
48.1902 10.2479
48.3858 10.1043
48.5815 9.9451
48.7774 9.81186
48.9734 9.67407
49.1696 9.50783
49.3661 9.34192
49.5626 9.19305
49.7592 9.06959
49.956 8.91532
50.153 8.7868
50.3501 8.66556
50.5474 8.54284
50.7448 8.41605
50.9424 8.25789
51.1402 8.15316
51.3381 7.96215
51.5362 7.91416
51.7344 7.75571
51.9328 7.61631
52.1316 7.49709
52.3304 7.36789
52.5293 7.21551
52.7284 7.11196
52.9276 6.99745
53.1271 6.92345
53.3267 6.7499
53.5265 6.6671
53.7264 6.54855
53.9266 6.44575
54.1269 6.31799
54.3274 6.16255
54.528 6.00302
54.7289 5.81292
54.9301 5.71087
55.1314 5.52671
55.3328 5.29409
55.5344 5.10846
55.7361 5.05035

File: Ni3Fe_FD0222.xy
TT I
1.27165 7.71309
1.45013 6.37961
1.62863 5.47442
1.80712 4.99872
1.98562 5.01116
2.16411 4.81635
2.34263 4.55182
2.52115 5.10234
2.69965 6.10866
2.87818 8.17616
3.05672 10.8994
3.23527 14.9078
3.4138 18.9005
3.59237 22.5269
3.77094 26.0364
3.9495 29.9623
4.12809 34.8384
4.30669 40.8772
4.4853 48.4104
4.6639 58.0829
4.84253 71.8099
5.02118 96.7137
5.19981 887.507
5.37848 274.679
5.55716 112.634
5.73586 100.914
5.91455 110.679
6.09328 3597.34
6.27201 89.3533
6.45075 71.0466
6.62952 64.3145
6.8083 59.7838
6.98711 57.1042
7.16591 56.2328
7.34475 55.4865
7.5236 56.786
7.70247 58.2383
7.88135 60.217
8.06026 65.4632
8.23919 73.341
8.41812 90.9942
8.59709 1058.29
8.77609 111.015
8.9551 90.6488
9.13412 86.9534
9.31318 88.4298
9.49226 89.7478
9.67134 95.3467
9.85047 106.652
10.0296 519.615
10.2088 565.964
10.388 115.142
10.5672 438.039
10.7465 92.4732
10.9257 80.8164
11.105 74.9952
11.2844 70.5004
11.4637 67.7915
11.6431 66.4751
11.8225 65.3619
12.002 68.5251
12.1814 140.509
12.3609 70.1293
12.5405 67.6247
12.72 69.7483
12.8996 75.0874
13.0792 86.4141
13.2589 227.688
13.4386 150.051
13.6183 225.07
13.7981 112.445
13.9779 80.246
14.1577 75.3537
14.3376 73.2879
14.5175 72.7641
14.6974 74.5955
14.8774 119.393
15.0574 173.221
15.2374 72.4653
15.4175 69.7765
15.5976 69.8445
15.7778 103.536
15.958 178.378
16.1382 64.053
16.3185 60.3084
16.4988 58.0353
16.6792 57.0482
16.8596 57.2507
17.04 59.3029
17.2205 68.7544
17.401 77.6578
17.5815 62.3515
17.7622 64.8577
17.9428 82.9037
18.1237 139.378
18.3044 90.1942
18.4852 84.3402
18.666 63.4428
18.8469 60.9635
19.0278 59.7694
19.2088 62.8556
19.3898 76.1915
19.5709 57.2352
19.752 56.0607
19.9332 59.4222
20.1144 72.6589
20.2957 64.408
20.477 56.986
20.6586 52.2728
20.84 51.2327
21.0215 51.4556
21.203 52.5959
21.3846 51.7278
21.5662 51.9089
21.7479 55.502
21.9297 66.6506
22.1115 57.8232
22.2933 52.6121
22.4753 50.9528
22.6572 52.1394
22.8393 54.3294
23.0214 59.9966
23.2037 51.4933
23.3859 52.7058
23.5682 57.6012
23.7505 51.4135
23.9329 47.5429
24.1154 46.3615
24.2979 45.5201
24.4805 44.9448
24.6631 44.8054
24.8458 44.4779
25.0286 45.1407
25.2114 46.6174
25.3943 46.808
25.5773 42.9466
25.7605 42.5164
25.9436 42.7823
26.1268 43.6296
26.31 42.1971
26.4933 42.6269
26.6767 44.0134
26.8601 42.3672
27.0437 40.8289
27.2272 40.4576
27.4109 40.2498
27.5946 40.2303
27.7784 39.8733
27.9623 40.0266
28.1462 40.7342
28.3304 39.0083
28.5145 37.7774
28.6987 37.4174
28.8829 36.9891
29.0673 36.3858
29.2517 35.8595
29.4361 35.6779
29.6207 34.6734
29.8053 34.3459
29.99 34.1616
30.1748 33.9118
30.3597 33.8084
30.5447 33.676
30.7297 33.671
30.915 33.1619
31.1002 32.6218
31.2855 32.3325
31.4708 32.2418
31.6563 31.9181
31.8418 31.5965
32.0275 31.3139
32.2132 30.7603
32.399 30.4048
32.5848 29.8648
32.7708 29.5771
32.9569 29.3185
33.143 29.0614
33.3293 28.7678
33.5158 28.371
33.7022 27.8146
33.8887 27.5632
34.0753 27.2184
34.262 26.8189
34.4488 26.4705
34.6357 26.1726
34.8227 25.8023
35.0098 25.6574
35.1969 25.3597
35.3842 25.1426
35.5716 24.8813
35.759 24.5756
35.9468 24.2355
36.1345 24.0005
36.3222 23.7414
36.5101 23.5236
36.6981 23.1516
36.8861 22.8797
37.0743 22.4871
37.2626 22.2321
37.451 21.9196
37.6395 21.8364
37.8281 21.4924
38.0168 21.0478
38.2056 20.8471
38.3945 20.5936
38.5837 20.3381
38.7728 20.0737
38.9621 19.7959
39.1514 19.55
39.3409 19.3115
39.5304 19.1146
39.7201 18.8813
39.9099 18.6514
40.0999 18.4162
40.2899 18.1726
40.48 17.9281
40.6703 17.6573
40.8607 17.5313
41.0512 17.2272
41.242 16.9928
41.4327 16.8336
41.6236 16.4894
41.8146 16.3036
42.0057 16.1299
42.1969 15.9348
42.3882 15.7366
42.5797 15.5027
42.7713 15.3169
42.963 15.0543
43.1549 14.8595
43.3468 14.6407
43.5389 14.4169
43.7312 14.2919
43.9237 14.0469
44.1162 13.8801
44.3088 13.6828
44.5016 13.5058
44.6945 13.3265
44.8875 13.1166
45.0806 12.8888
45.2739 12.7452
45.4673 12.5376
45.6609 12.4064
45.8546 12.2191
46.0484 12.0375
46.2424 11.9062
46.4365 11.7109
46.631 11.4532
46.8254 11.3271
47.0199 11.1646
47.2146 11.0081
47.4095 10.829
47.6044 10.6671
47.7996 10.5088
47.9948 10.3473
48.1902 10.2277
48.3858 10.0951
48.5815 9.92402
48.7774 9.80839
48.9734 9.68935
49.1696 9.47633
49.3661 9.3805
49.5626 9.21265
49.7592 9.08944
49.956 8.94179
50.153 8.82966
50.3501 8.65296
50.5474 8.54043
50.7448 8.39567
50.9424 8.25977
51.1402 8.16783
51.3381 8.01517
51.5362 7.85973
51.7344 7.74088
51.9328 7.64718
52.1316 7.48027
52.3304 7.36746
52.5293 7.26016
52.7284 7.10441
52.9276 6.99966
53.1271 6.89815
53.3267 6.76845
53.5265 6.62817
53.7264 6.53937
53.9266 6.42115
54.1269 6.29832
54.3274 6.20211
54.528 6.01493
54.7289 5.88111
54.9301 5.69367
55.1314 5.53852
55.3328 5.30703
55.5344 5.15193
55.7361 5.04273

File: Ni3Fe_FD0223.xy
TT I
1.27165 7.50814
1.45013 7.16474
1.62863 6.38125
1.80712 5.54717
1.98562 4.78468
2.16411 4.81817
2.34263 4.83891
2.52115 4.9537
2.69965 6.06348
2.87818 7.87325
3.05672 11.3623
3.23527 14.9223
3.4138 18.6942
3.59237 22.6439
3.77094 25.8129
3.9495 29.9015
4.12809 34.9743
4.30669 40.5108
4.4853 49.0518
4.6639 58.1746
4.84253 71.6665
5.02118 97.0285
5.19981 889.349
5.37848 273.815
5.55716 112.179
5.73586 101.431
5.91455 110.426
6.09328 3608.73
6.27201 89.2828
6.45075 71.1662
6.62952 63.9402
6.8083 60.1747
6.98711 57.3134
7.16591 56.4801
7.34475 55.7854
7.5236 56.2061
7.70247 58.2953
7.88135 60.3912
8.06026 65.6742
8.23919 73.7389
8.41812 90.8023
8.59709 1059.49
8.77609 111.035
8.9551 91.064
9.13412 87.3692
9.31318 88.0283
9.49226 89.7574
9.67134 95.7041
9.85047 107.006
10.0296 519.303
10.2088 557.444
10.388 115.205
10.5672 438.518
10.7465 92.5251
10.9257 80.8685
11.105 74.9349
11.2844 70.7669
11.4637 67.9428
11.6431 66.2391
11.8225 65.2399
12.002 68.7986
12.1814 140.085
12.3609 70.1994
12.5405 67.4578
12.72 69.7393
12.8996 74.8715
13.0792 86.4764
13.2589 228.186
13.4386 149.932
13.6183 224.776
13.7981 112.756
13.9779 80.0334
14.1577 75.4452
14.3376 73.1261
14.5175 72.747
14.6974 74.7004
14.8774 119.369
15.0574 172.32
15.2374 72.4432
15.4175 69.8173
15.5976 69.8189
15.7778 103.486
15.958 178.575
16.1382 63.9485
16.3185 60.1847
16.4988 58.0265
16.6792 57.2684
16.8596 57.3713
17.04 59.2611
17.2205 68.9207
17.401 77.503
17.5815 62.1567
17.7622 64.6599
17.9428 82.8739
18.1237 139.242
18.3044 90.199
18.4852 84.2428
18.666 63.4317
18.8469 60.8788
19.0278 59.7243
19.2088 62.9201
19.3898 76.3664
19.5709 57.0495
19.752 56.1796
19.9332 59.4072
20.1144 72.5654
20.2957 64.3793
20.477 57.0217
20.6586 51.9483
20.84 51.3292
21.0215 51.2817
21.203 52.5564
21.3846 51.6481
21.5662 51.9952
21.7479 55.5794
21.9297 66.7282
22.1115 57.6742
22.2933 52.6473
22.4753 50.9918
22.6572 51.9359
22.8393 54.1585
23.0214 60.0259
23.2037 51.5045
23.3859 52.5217
23.5682 57.7218
23.7505 51.404
23.9329 47.5492
24.1154 46.1901
24.2979 45.5911
24.4805 44.9907
24.6631 44.8925
24.8458 44.379
25.0286 45.1126
25.2114 46.6003
25.3943 46.7341
25.5773 42.9827
25.7605 42.4694
25.9436 42.8208
26.1268 43.673
26.31 42.3085
26.4933 42.5033
26.6767 44.0353
26.8601 42.4113
27.0437 40.9046
27.2272 40.4663
27.4109 40.1587
27.5946 40.3312
27.7784 39.7619
27.9623 40.0747
28.1462 40.6753
28.3304 39.0295
28.5145 37.5984
28.6987 37.2269
28.8829 37.0
29.0673 36.2774
29.2517 35.9377
29.4361 35.8109
29.6207 34.726
29.8053 34.4706
29.99 34.1712
30.1748 33.8972
30.3597 33.7696
30.5447 33.7019
30.7297 33.7934
30.915 33.0828
31.1002 32.7161
31.2855 32.3184
31.4708 32.3133
31.6563 31.7975
31.8418 31.5647
32.0275 31.3153
32.2132 30.8792
32.399 30.4039
32.5848 29.865
32.7708 29.4965
32.9569 29.3837
33.143 29.1239
33.3293 28.7914
33.5158 28.2685
33.7022 27.8427
33.8887 27.6069
34.0753 27.176
34.262 26.864
34.4488 26.5778
34.6357 26.1636
34.8227 25.8744
35.0098 25.5885
35.1969 25.3012
35.3842 25.0719
35.5716 24.843
35.759 24.6012
35.9468 24.2348
36.1345 23.9467
36.3222 23.7138
36.5101 23.4499
36.6981 23.1397
36.8861 22.9015
37.0743 22.5853
37.2626 22.2785
37.451 21.9939
37.6395 21.8672
37.8281 21.4349
38.0168 21.1012
38.2056 20.8851
38.3945 20.5833
38.5837 20.3265
38.7728 20.0981
38.9621 19.837
39.1514 19.5055
39.3409 19.2796
39.5304 19.1186
39.7201 18.8751
39.9099 18.6567
40.0999 18.3771
40.2899 18.1921
40.48 17.8929
40.6703 17.6909
40.8607 17.4978
41.0512 17.3023
41.242 16.9703
41.4327 16.8015
41.6236 16.551
41.8146 16.3528
42.0057 16.1394
42.1969 15.9147
42.3882 15.7424
42.5797 15.4642
42.7713 15.286
42.963 15.0749
43.1549 14.8899
43.3468 14.6553
43.5389 14.5089
43.7312 14.2694
43.9237 14.0611
44.1162 13.8158
44.3088 13.6343
44.5016 13.4257
44.6945 13.3095
44.8875 13.1423
45.0806 12.9424
45.2739 12.7348
45.4673 12.5577
45.6609 12.3532
45.8546 12.2452
46.0484 12.0254
46.2424 11.8733
46.4365 11.7338
46.631 11.508
46.8254 11.3316
47.0199 11.1857
47.2146 11.0588
47.4095 10.8356
47.6044 10.7122
47.7996 10.5733
47.9948 10.3979
48.1902 10.2163
48.3858 10.0795
48.5815 9.93397
48.7774 9.85979
48.9734 9.66311
49.1696 9.51945
49.3661 9.36753
49.5626 9.19894
49.7592 9.09471
49.956 8.92461
50.153 8.8332
50.3501 8.65455
50.5474 8.59121
50.7448 8.41143
50.9424 8.30041
51.1402 8.16419
51.3381 7.98366
51.5362 7.87067
51.7344 7.7403
51.9328 7.59577
52.1316 7.45627
52.3304 7.37246
52.5293 7.23011
52.7284 7.14275
52.9276 7.00607
53.1271 6.91212
53.3267 6.79754
53.5265 6.66076
53.7264 6.54568
53.9266 6.4229
54.1269 6.26456
54.3274 6.18907
54.528 6.01083
54.7289 5.87023
54.9301 5.66511
55.1314 5.47779
55.3328 5.32943
55.5344 5.12046
55.7361 5.02354

File: Ni3Fe_FD0224.xy
TT I
1.27165 7.96109
1.45013 7.12545
1.62863 5.85534
1.80712 5.05587
1.98562 5.2323
2.16411 4.60689
2.34263 4.09775
2.52115 5.11605
2.69965 6.69122
2.87818 8.02534
3.05672 10.8194
3.23527 15.0298
3.4138 18.8092
3.59237 22.4077
3.77094 25.7985
3.9495 30.3665
4.12809 34.9968
4.30669 40.6399
4.4853 48.5024
4.6639 58.0645
4.84253 71.8551
5.02118 96.4849
5.19981 885.108
5.37848 274.924
5.55716 112.459
5.73586 101.145
5.91455 110.435
6.09328 3630.82
6.27201 89.4086
6.45075 70.7621
6.62952 64.1896
6.8083 59.8075
6.98711 57.4503
7.16591 56.5307
7.34475 56.1884
7.5236 56.5517
7.70247 58.0879
7.88135 60.5586
8.06026 65.3898
8.23919 73.1043
8.41812 90.7274
8.59709 1058.73
8.77609 111.096
8.9551 90.4241
9.13412 86.7081
9.31318 88.1759
9.49226 89.8333
9.67134 95.6461
9.85047 106.899
10.0296 518.016
10.2088 554.098
10.388 114.921
10.5672 440.438
10.7465 92.7809
10.9257 80.7126
11.105 74.8516
11.2844 71.1051
11.4637 67.7201
11.6431 66.3121
11.8225 65.1219
12.002 68.7656
12.1814 140.014
12.3609 70.4292
12.5405 67.6435
12.72 69.8167
12.8996 74.973
13.0792 86.0478
13.2589 228.009
13.4386 150.276
13.6183 225.22
13.7981 112.724
13.9779 79.7896
14.1577 75.3431
14.3376 73.298
14.5175 72.4764
14.6974 74.3996
14.8774 119.095
15.0574 171.845
15.2374 72.4347
15.4175 70.0502
15.5976 69.9298
15.7778 103.598
15.958 179.18
16.1382 64.125
16.3185 60.2257
16.4988 58.0614
16.6792 56.8304
16.8596 57.3135
17.04 59.3198
17.2205 68.6717
17.401 77.1778
17.5815 62.219
17.7622 64.5987
17.9428 82.8306
18.1237 138.94
18.3044 90.2941
18.4852 84.2077
18.666 63.5176
18.8469 60.9977
19.0278 59.5533
19.2088 62.798
19.3898 76.537
19.5709 57.0639
19.752 55.8643
19.9332 59.5613
20.1144 72.4979
20.2957 64.4638
20.477 56.8574
20.6586 51.9478
20.84 51.1861
21.0215 51.2526
21.203 52.4996
21.3846 51.6646
21.5662 51.8248
21.7479 55.4212
21.9297 66.8318
22.1115 57.8239
22.2933 52.6927
22.4753 50.9103
22.6572 52.0747
22.8393 54.4471
23.0214 60.0226
23.2037 51.5008
23.3859 52.7495
23.5682 57.6172
23.7505 51.345
23.9329 47.4284
24.1154 46.1219
24.2979 45.4468
24.4805 44.9396
24.6631 44.8842
24.8458 44.2264
25.0286 44.9927
25.2114 46.6957
25.3943 46.7592
25.5773 43.0384
25.7605 42.5261
25.9436 42.6277
26.1268 43.5888
26.31 42.2613
26.4933 42.4923
26.6767 43.9552
26.8601 42.4615
27.0437 40.8138
27.2272 40.4834
27.4109 40.2053
27.5946 40.385
27.7784 39.8464
27.9623 39.9389
28.1462 40.7213
28.3304 39.0107
28.5145 37.6788
28.6987 37.2682
28.8829 36.9279
29.0673 36.4307
29.2517 35.8668
29.4361 35.6419
29.6207 34.687
29.8053 34.4714
29.99 34.1686
30.1748 33.9714
30.3597 33.8216
30.5447 33.674
30.7297 33.6398
30.915 33.113
31.1002 32.5817
31.2855 32.2746
31.4708 32.2001
31.6563 31.88
31.8418 31.5406
32.0275 31.2853
32.2132 30.7843
32.399 30.2998
32.5848 29.8631
32.7708 29.5075
32.9569 29.4298
33.143 29.1319
33.3293 28.7837
33.5158 28.2768
33.7022 27.9037
33.8887 27.487
34.0753 27.232
34.262 26.7751
34.4488 26.5067
34.6357 26.1233
34.8227 25.8043
35.0098 25.701
35.1969 25.2688
35.3842 25.0803
35.5716 24.8207
35.759 24.5455
35.9468 24.1999
36.1345 24.0047
36.3222 23.6528
36.5101 23.4409
36.6981 23.1243
36.8861 22.8668
37.0743 22.5322
37.2626 22.2592
37.451 21.9379
37.6395 21.7887
37.8281 21.4001
38.0168 21.1297
38.2056 20.9326
38.3945 20.5901
38.5837 20.2761
38.7728 20.0731
38.9621 19.8706
39.1514 19.6078
39.3409 19.3423
39.5304 19.1013
39.7201 18.9461
39.9099 18.6708
40.0999 18.3306
40.2899 18.1657
40.48 17.9002
40.6703 17.7102
40.8607 17.5494
41.0512 17.2346
41.242 16.9393
41.4327 16.7855
41.6236 16.5282
41.8146 16.3912
42.0057 16.1008
42.1969 15.8947
42.3882 15.6972
42.5797 15.4805
42.7713 15.3038
42.963 15.0556
43.1549 14.8733
43.3468 14.5918
43.5389 14.4579
43.7312 14.2563
43.9237 14.0876
44.1162 13.8472
44.3088 13.6839
44.5016 13.4577
44.6945 13.3332
44.8875 13.1001
45.0806 12.9194
45.2739 12.8155
45.4673 12.5748
45.6609 12.371
45.8546 12.2054
46.0484 12.034
46.2424 11.8331
46.4365 11.6605
46.631 11.5279
46.8254 11.2914
47.0199 11.1854
47.2146 11.0131
47.4095 10.8497
47.6044 10.6959
47.7996 10.5434
47.9948 10.3531
48.1902 10.2157
48.3858 10.0933
48.5815 9.95562
48.7774 9.80639
48.9734 9.6677
49.1696 9.47263
49.3661 9.34095
49.5626 9.203
49.7592 9.10144
49.956 8.93811
50.153 8.75528
50.3501 8.67847
50.5474 8.54238
50.7448 8.42874
50.9424 8.27162
51.1402 8.16931
51.3381 7.99422
51.5362 7.86858
51.7344 7.73909
51.9328 7.61309
52.1316 7.44677
52.3304 7.40725
52.5293 7.2809
52.7284 7.12106
52.9276 6.99393
53.1271 6.93786
53.3267 6.80708
53.5265 6.61626
53.7264 6.56109
53.9266 6.48298
54.1269 6.29324
54.3274 6.13721
54.528 5.97314
54.7289 5.83869
54.9301 5.65755
55.1314 5.53798
55.3328 5.28559
55.5344 5.11418
55.7361 5.0168