Folder: NiFe_MOF_catalyst_paper/XRD (part 199)

File: Ni3Fe_FD1075.xy
TT I
1.27165 7.09565
1.45013 6.27434
1.62863 4.89665
1.80712 4.49561
1.98562 4.16706
2.16411 3.93519
2.34263 5.17047
2.52115 7.78999
2.69965 8.23877
2.87818 8.54227
3.05672 10.653
3.23527 15.0743
3.4138 18.1202
3.59237 21.2558
3.77094 24.7204
3.9495 27.956
4.12809 32.1059
4.30669 56.2643
4.4853 46.5196
4.6639 52.6695
4.84253 64.4795
5.02118 82.6892
5.19981 230.725
5.37848 204.909
5.55716 97.7265
5.73586 87.9331
5.91455 88.7386
6.09328 4487.43
6.27201 76.1969
6.45075 63.5016
6.62952 58.0424
6.8083 54.4706
6.98711 52.3505
7.16591 51.5989
7.34475 55.987
7.5236 58.0898
7.70247 53.1844
7.88135 54.9584
8.06026 59.3835
8.23919 65.9055
8.41812 77.9647
8.59709 1115.02
8.77609 95.2255
8.9551 82.5672
9.13412 79.1801
9.31318 88.0705
9.49226 81.0532
9.67134 86.9125
9.85047 94.4247
10.0296 352.149
10.2088 444.458
10.388 97.9971
10.5672 513.611
10.7465 86.1921
10.9257 73.5289
11.105 68.228
11.2844 65.0814
11.4637 62.1662
11.6431 60.9281
11.8225 59.7406
12.002 65.9292
12.1814 147.104
12.3609 64.5143
12.5405 61.5877
12.72 63.8642
12.8996 68.0593
13.0792 76.5609
13.2589 230.932
13.4386 126.118
13.6183 237.54
13.7981 99.9823
13.9779 73.7315
14.1577 75.1736
14.3376 67.3758
14.5175 66.1822
14.6974 67.5622
14.8774 110.85
15.0574 158.662
15.2374 66.787
15.4175 64.2406
15.5976 63.4473
15.7778 95.4483
15.958 169.113
16.1382 59.8751
16.3185 55.7859
16.4988 53.6373
16.6792 52.7135
16.8596 53.122
17.04 53.8251
17.2205 64.9934
17.401 72.2071
17.5815 57.1711
17.7622 60.2009
17.9428 73.7467
18.1237 142.483
18.3044 89.0936
18.4852 78.7649
18.666 59.0763
18.8469 56.5358
19.0278 55.1545
19.2088 58.3304
19.3898 75.9941
19.5709 52.9473
19.752 51.9697
19.9332 55.2433
20.1144 70.5539
20.2957 63.4964
20.477 52.8304
20.6586 48.2928
20.84 47.8718
21.0215 47.502
21.203 49.7506
21.3846 48.101
21.5662 47.6661
21.7479 51.8527
21.9297 65.2093
22.1115 55.916
22.2933 49.1065
22.4753 47.5262
22.6572 47.962
22.8393 51.2935
23.0214 57.5035
23.2037 47.9425
23.3859 49.4783
23.5682 57.2706
23.7505 48.2705
23.9329 44.3814
24.1154 43.182
24.2979 42.5869
24.4805 42.1076
24.6631 41.8514
24.8458 41.3644
25.0286 42.1036
25.2114 44.3029
25.3943 44.3204
25.5773 40.2563
25.7605 39.5977
25.9436 40.1388
26.1268 41.2729
26.31 39.4158
26.4933 40.1365
26.6767 42.0149
26.8601 40.0881
27.0437 38.2959
27.2272 37.9446
27.4109 37.8315
27.5946 38.0033
27.7784 37.3849
27.9623 38.0533
28.1462 38.6868
28.3304 36.93
28.5145 35.4298
28.6987 35.0955
28.8829 34.8952
29.0673 34.248
29.2517 33.6674
29.4361 33.5577
29.6207 32.6233
29.8053 32.3455
29.99 32.0516
30.1748 31.9396
30.3597 31.7066
30.5447 31.6172
30.7297 31.9841
30.915 31.2382
31.1002 30.7483
31.2855 30.4151
31.4708 30.5789
31.6563 29.9892
31.8418 29.7168
32.0275 29.6566
32.2132 29.0478
32.399 28.4995
32.5848 28.0722
32.7708 27.8415
32.9569 27.6453
33.143 27.3809
33.3293 27.0926
33.5158 26.7327
33.7022 26.209
33.8887 25.9869
34.0753 25.5614
34.262 25.2228
34.4488 24.969
34.6357 24.6194
34.8227 24.2946
35.0098 24.1292
35.1969 23.9068
35.3842 23.6542
35.5716 23.5546
35.759 23.1637
35.9468 22.8114
36.1345 22.5798
36.3222 22.4037
36.5101 22.1629
36.6981 21.8987
36.8861 21.5689
37.0743 21.2085
37.2626 20.9481
37.451 20.7149
37.6395 20.5691
37.8281 20.2025
38.0168 19.9869
38.2056 19.6985
38.3945 19.3939
38.5837 19.2271
38.7728 18.9373
38.9621 18.6778
39.1514 18.4745
39.3409 18.2607
39.5304 17.9928
39.7201 17.8337
39.9099 17.6238
40.0999 17.36
40.2899 17.1098
40.48 16.9386
40.6703 16.6876
40.8607 16.5311
41.0512 16.2523
41.242 16.0537
41.4327 15.8605
41.6236 15.5988
41.8146 15.4328
42.0057 15.2082
42.1969 14.9838
42.3882 14.8319
42.5797 14.6208
42.7713 14.4328
42.963 14.2493
43.1549 14.0666
43.3468 13.8693
43.5389 13.6493
43.7312 13.452
43.9237 13.3033
44.1162 13.1191
44.3088 12.8963
44.5016 12.7239
44.6945 12.5564
44.8875 12.3872
45.0806 12.2006
45.2739 12.0544
45.4673 11.8644
45.6609 11.6909
45.8546 11.5774
46.0484 11.3842
46.2424 11.2202
46.4365 11.0096
46.631 10.9149
46.8254 10.7024
47.0199 10.5244
47.2146 10.3687
47.4095 10.2304
47.6044 10.0992
47.7996 9.93833
47.9948 9.79084
48.1902 9.65646
48.3858 9.51893
48.5815 9.385
48.7774 9.26007
48.9734 9.10649
49.1696 8.95576
49.3661 8.85787
49.5626 8.67197
49.7592 8.57936
49.956 8.43453
50.153 8.30985
50.3501 8.2018
50.5474 8.05045
50.7448 7.94597
50.9424 7.83512
51.1402 7.71124
51.3381 7.53882
51.5362 7.43114
51.7344 7.31432
51.9328 7.194
52.1316 7.10091
52.3304 6.94763
52.5293 6.88122
52.7284 6.72699
52.9276 6.63508
53.1271 6.51554
53.3267 6.38154
53.5265 6.25597
53.7264 6.18547
53.9266 6.0822
54.1269 5.98447
54.3274 5.88789
54.528 5.69195
54.7289 5.54942
54.9301 5.4431
55.1314 5.27715
55.3328 5.10281
55.5344 4.91868
55.7361 4.74632

File: Ni3Fe_FD1076.xy
TT I
1.27165 6.60753
1.45013 5.65959
1.62863 5.38213
1.80712 4.57145
1.98562 4.13641
2.16411 4.11851
2.34263 5.34191
2.52115 7.07007
2.69965 8.25837
2.87818 9.0065
3.05672 10.6742
3.23527 14.7133
3.4138 18.1476
3.59237 21.2496
3.77094 24.3503
3.9495 28.3284
4.12809 32.0328
4.30669 56.3722
4.4853 46.0212
4.6639 52.439
4.84253 63.983
5.02118 82.8083
5.19981 230.508
5.37848 205.384
5.55716 97.9912
5.73586 87.8304
5.91455 88.671
6.09328 4497.57
6.27201 75.4742
6.45075 63.3255
6.62952 57.7607
6.8083 54.6081
6.98711 52.4838
7.16591 51.8564
7.34475 55.8222
7.5236 57.9714
7.70247 53.0637
7.88135 54.8517
8.06026 58.7902
8.23919 65.3647
8.41812 77.9786
8.59709 1112.2
8.77609 94.9576
8.9551 82.283
9.13412 78.5305
9.31318 88.2489
9.49226 80.8423
9.67134 86.376
9.85047 94.0662
10.0296 351.703
10.2088 448.031
10.388 98.0174
10.5672 513.73
10.7465 86.2135
10.9257 73.5566
11.105 68.3839
11.2844 64.8995
11.4637 61.809
11.6431 60.54
11.8225 59.8963
12.002 66.1152
12.1814 147.031
12.3609 64.5137
12.5405 61.5239
12.72 64.0514
12.8996 67.7409
13.0792 76.4684
13.2589 230.514
13.4386 126.062
13.6183 237.221
13.7981 100.212
13.9779 73.4186
14.1577 75.0152
14.3376 67.3736
14.5175 66.5439
14.6974 67.5662
14.8774 110.664
15.0574 158.691
15.2374 66.76
15.4175 64.1279
15.5976 63.5598
15.7778 95.3233
15.958 169.201
16.1382 59.7756
16.3185 55.6563
16.4988 53.4881
16.6792 52.6274
16.8596 52.9885
17.04 54.0223
17.2205 65.1331
17.401 72.1866
17.5815 57.3955
17.7622 60.091
17.9428 73.5947
18.1237 142.119
18.3044 89.0697
18.4852 78.9828
18.666 59.0631
18.8469 56.4437
19.0278 55.0831
19.2088 58.2722
19.3898 76.0038
19.5709 53.0357
19.752 51.8634
19.9332 55.3683
20.1144 70.6439
20.2957 63.6735
20.477 52.8214
20.6586 48.4998
20.84 47.8418
21.0215 47.4032
21.203 49.7239
21.3846 47.9653
21.5662 47.7009
21.7479 52.0571
21.9297 65.2992
22.1115 55.9699
22.2933 49.0438
22.4753 47.5816
22.6572 47.777
22.8393 51.3505
23.0214 57.4033
23.2037 47.7791
23.3859 49.338
23.5682 57.09
23.7505 48.2482
23.9329 44.3433
24.1154 43.2019
24.2979 42.4871
24.4805 42.0103
24.6631 42.0559
24.8458 41.3473
25.0286 42.0136
25.2114 44.3403
25.3943 44.4316
25.5773 40.0364
25.7605 39.5873
25.9436 40.0641
26.1268 41.4003
26.31 39.522
26.4933 40.152
26.6767 41.9389
26.8601 39.9751
27.0437 38.2358
27.2272 37.8712
27.4109 37.8021
27.5946 37.8769
27.7784 37.3093
27.9623 38.1165
28.1462 38.5632
28.3304 36.9089
28.5145 35.5301
28.6987 35.0603
28.8829 34.8881
29.0673 34.178
29.2517 33.6842
29.4361 33.7061
29.6207 32.6059
29.8053 32.3568
29.99 32.0767
30.1748 31.9201
30.3597 31.6776
30.5447 31.7402
30.7297 31.8717
30.915 31.2851
31.1002 30.7089
31.2855 30.3967
31.4708 30.4567
31.6563 30.0806
31.8418 29.6543
32.0275 29.5678
32.2132 28.9908
32.399 28.4699
32.5848 28.0726
32.7708 27.7569
32.9569 27.6112
33.143 27.4443
33.3293 27.1243
33.5158 26.621
33.7022 26.2377
33.8887 25.9198
34.0753 25.5968
34.262 25.2548
34.4488 24.9329
34.6357 24.6072
34.8227 24.3726
35.0098 24.1312
35.1969 23.8504
35.3842 23.6309
35.5716 23.4739
35.759 23.1199
35.9468 22.8439
36.1345 22.6473
36.3222 22.3936
36.5101 22.1837
36.6981 21.8028
36.8861 21.5512
37.0743 21.2361
37.2626 20.9709
37.451 20.7204
37.6395 20.5333
37.8281 20.18
38.0168 19.9044
38.2056 19.7275
38.3945 19.4619
38.5837 19.1835
38.7728 18.9693
38.9621 18.6747
39.1514 18.397
39.3409 18.2528
39.5304 18.009
39.7201 17.7317
39.9099 17.6265
40.0999 17.378
40.2899 17.1518
40.48 16.902
40.6703 16.6666
40.8607 16.5714
41.0512 16.2979
41.242 16.0098
41.4327 15.7804
41.6236 15.5816
41.8146 15.4202
42.0057 15.2251
42.1969 15.002
42.3882 14.8703
42.5797 14.6183
42.7713 14.4137
42.963 14.1664
43.1549 14.0229
43.3468 13.8054
43.5389 13.663
43.7312 13.42
43.9237 13.2622
44.1162 13.062
44.3088 12.8802
44.5016 12.6966
44.6945 12.5272
44.8875 12.3364
45.0806 12.2049
45.2739 12.0238
45.4673 11.8635
45.6609 11.7269
45.8546 11.4965
46.0484 11.3847
46.2424 11.1874
46.4365 11.0524
46.631 10.8762
46.8254 10.6973
47.0199 10.542
47.2146 10.4179
47.4095 10.256
47.6044 10.0856
47.7996 9.96087
47.9948 9.8078
48.1902 9.65716
48.3858 9.53941
48.5815 9.40018
48.7774 9.27221
48.9734 9.11548
49.1696 8.96166
49.3661 8.83286
49.5626 8.68
49.7592 8.60062
49.956 8.46819
50.153 8.2818
50.3501 8.18576
50.5474 8.07305
50.7448 7.92826
50.9424 7.81606
51.1402 7.67813
51.3381 7.55766
51.5362 7.45808
51.7344 7.3304
51.9328 7.18357
52.1316 7.07414
52.3304 6.9772
52.5293 6.88201
52.7284 6.74055
52.9276 6.60445
53.1271 6.49511
53.3267 6.41201
53.5265 6.32796
53.7264 6.20679
53.9266 6.06632
54.1269 5.98337
54.3274 5.88342
54.528 5.74303
54.7289 5.56274
54.9301 5.38605
55.1314 5.27582
55.3328 5.10106
55.5344 4.90221
55.7361 4.78154

File: Ni3Fe_FD1077.xy
TT I
1.27165 7.08855
1.45013 5.88923
1.62863 5.02105
1.80712 4.25833
1.98562 3.97489
2.16411 3.70809
2.34263 5.26299
2.52115 7.1597
2.69965 7.96726
2.87818 8.78857
3.05672 10.6995
3.23527 14.1199
3.4138 18.158
3.59237 21.2904
3.77094 24.4371
3.9495 28.0513
4.12809 32.65
4.30669 56.3448
4.4853 46.535
4.6639 52.5551
4.84253 64.2779
5.02118 83.3101
5.19981 232.76
5.37848 203.785
5.55716 97.6838
5.73586 87.9953
5.91455 89.3538
6.09328 4469.94
6.27201 75.7869
6.45075 63.232
6.62952 57.9708
6.8083 54.7087
6.98711 52.6246
7.16591 51.3612
7.34475 55.9345
7.5236 58.3682
7.70247 53.1778
7.88135 55.0957
8.06026 59.4136
8.23919 66.0803
8.41812 78.2241
8.59709 1117.93
8.77609 94.8475
8.9551 82.5311
9.13412 79.2038
9.31318 88.2268
9.49226 81.4322
9.67134 86.8028
9.85047 94.2283
10.0296 354.016
10.2088 439.574
10.388 98.0186
10.5672 514.888
10.7465 86.1256
10.9257 73.6624
11.105 68.0274
11.2844 65.0152
11.4637 61.8398
11.6431 60.8072
11.8225 59.8577
12.002 65.9321
12.1814 147.349
12.3609 64.8462
12.5405 61.6148
12.72 64.08
12.8996 68.0397
13.0792 76.6319
13.2589 231.652
13.4386 125.416
13.6183 238.139
13.7981 99.7862
13.9779 73.3682
14.1577 74.9251
14.3376 67.423
14.5175 66.4639
14.6974 67.402
14.8774 110.756
15.0574 158.252
15.2374 66.7098
15.4175 64.3337
15.5976 63.6721
15.7778 95.6986
15.958 168.864
16.1382 59.802
16.3185 55.8116
16.4988 53.6479
16.6792 52.3986
16.8596 53.2147
17.04 53.943
17.2205 64.9098
17.401 71.7907
17.5815 57.4293
17.7622 59.858
17.9428 73.771
18.1237 142.405
18.3044 89.0219
18.4852 78.5745
18.666 58.8924
18.8469 56.5196
19.0278 55.255
19.2088 58.306
19.3898 75.8235
19.5709 53.0128
19.752 51.7161
19.9332 55.1846
20.1144 70.5738
20.2957 63.6753
20.477 52.8364
20.6586 48.2888
20.84 47.9744
21.0215 47.6906
21.203 49.8202
21.3846 48.0328
21.5662 47.5875
21.7479 51.9489
21.9297 65.18
22.1115 55.804
22.2933 49.0866
22.4753 47.5578
22.6572 47.7434
22.8393 51.3619
23.0214 57.3481
23.2037 47.9177
23.3859 49.3443
23.5682 57.2131
23.7505 48.2696
23.9329 44.3184
24.1154 43.2857
24.2979 42.6156
24.4805 42.1367
24.6631 42.1304
24.8458 41.3902
25.0286 42.1582
25.2114 44.2734
25.3943 44.3286
25.5773 40.2989
25.7605 39.6616
25.9436 40.0969
26.1268 41.3835
26.31 39.4709
26.4933 40.082
26.6767 41.942
26.8601 40.1148
27.0437 38.3102
27.2272 37.9087
27.4109 37.7486
27.5946 37.8874
27.7784 37.3362
27.9623 37.9718
28.1462 38.5675
28.3304 36.9017
28.5145 35.5201
28.6987 35.1184
28.8829 34.9533
29.0673 34.1694
29.2517 33.8637
29.4361 33.5708
29.6207 32.7362
29.8053 32.3545
29.99 32.0473
30.1748 31.9691
30.3597 31.8051
30.5447 31.6164
30.7297 31.9474
30.915 31.2931
31.1002 30.7951
31.2855 30.4582
31.4708 30.4915
31.6563 29.8566
31.8418 29.723
32.0275 29.6569
32.2132 28.9948
32.399 28.6117
32.5848 28.179
32.7708 27.7208
32.9569 27.5465
33.143 27.4261
33.3293 27.0874
33.5158 26.5999
33.7022 26.2322
33.8887 26.0074
34.0753 25.5931
34.262 25.2381
34.4488 24.9891
34.6357 24.6121
34.8227 24.3275
35.0098 24.0826
35.1969 23.8048
35.3842 23.6653
35.5716 23.4858
35.759 23.1458
35.9468 22.7537
36.1345 22.6484
36.3222 22.3107
36.5101 22.1456
36.6981 21.857
36.8861 21.625
37.0743 21.2085
37.2626 20.9116
37.451 20.7105
37.6395 20.5418
37.8281 20.17
38.0168 19.8708
38.2056 19.6647
38.3945 19.4065
38.5837 19.1426
38.7728 18.9812
38.9621 18.689
39.1514 18.4172
39.3409 18.209
39.5304 17.9436
39.7201 17.7769
39.9099 17.5951
40.0999 17.4176
40.2899 17.1123
40.48 16.8519
40.6703 16.7538
40.8607 16.4788
41.0512 16.285
41.242 15.9948
41.4327 15.8354
41.6236 15.6159
41.8146 15.508
42.0057 15.2502
42.1969 15.0281
42.3882 14.9175
42.5797 14.6241
42.7713 14.4285
42.963 14.2471
43.1549 14.0187
43.3468 13.8086
43.5389 13.628
43.7312 13.4197
43.9237 13.2834
44.1162 13.0836
44.3088 12.8604
44.5016 12.7062
44.6945 12.5676
44.8875 12.3559
45.0806 12.219
45.2739 12.0536
45.4673 11.8716
45.6609 11.6858
45.8546 11.5429
46.0484 11.352
46.2424 11.2323
46.4365 11.0647
46.631 10.8643
46.8254 10.7144
47.0199 10.5557
47.2146 10.4064
47.4095 10.2344
47.6044 10.105
47.7996 9.94238
47.9948 9.78369
48.1902 9.6782
48.3858 9.55981
48.5815 9.37656
48.7774 9.26671
48.9734 9.08643
49.1696 8.96943
49.3661 8.83489
49.5626 8.68233
49.7592 8.54367
49.956 8.45578
50.153 8.28761
50.3501 8.19452
50.5474 8.04861
50.7448 7.95517
50.9424 7.82703
51.1402 7.69888
51.3381 7.51876
51.5362 7.4471
51.7344 7.28575
51.9328 7.20197
52.1316 7.05254
52.3304 6.984
52.5293 6.83944
52.7284 6.75728
52.9276 6.60409
53.1271 6.55728
53.3267 6.4197
53.5265 6.31408
53.7264 6.1782
53.9266 6.0802
54.1269 5.97201
54.3274 5.84487
54.528 5.75464
54.7289 5.55192
54.9301 5.43543
55.1314 5.29802
55.3328 5.06345
55.5344 4.9173
55.7361 4.75445

File: Ni3Fe_FD1078.xy
TT I
1.27165 6.64893
1.45013 5.62018
1.62863 4.75566
1.80712 3.85747
1.98562 3.95532
2.16411 4.25843
2.34263 5.27381
2.52115 7.38915
2.69965 8.04975
2.87818 8.28834
3.05672 10.854
3.23527 14.7834
3.4138 18.205
3.59237 21.2671
3.77094 24.3872
3.9495 28.6245
4.12809 32.0177
4.30669 56.3787
4.4853 46.268
4.6639 52.7868
4.84253 64.3418
5.02118 82.7063
5.19981 231.393
5.37848 203.846
5.55716 97.3839
5.73586 87.776
5.91455 89.2377
6.09328 4452.99
6.27201 76.3642
6.45075 63.2069
6.62952 58.0689
6.8083 54.5721
6.98711 52.6059
7.16591 51.8506
7.34475 55.8028
7.5236 57.9904
7.70247 53.1969
7.88135 54.7289
8.06026 59.0231
8.23919 65.907
8.41812 77.9402
8.59709 1115.04
8.77609 94.9476
8.9551 82.3122
9.13412 78.7757
9.31318 88.1673
9.49226 81.2519
9.67134 86.5409
9.85047 93.8989
10.0296 353.373
10.2088 442.657
10.388 98.0109
10.5672 514.781
10.7465 85.8958
10.9257 73.6137
11.105 68.0094
11.2844 64.8987
11.4637 62.0794
11.6431 60.5565
11.8225 59.6978
12.002 65.837
12.1814 147.183
12.3609 64.6137
12.5405 61.5477
12.72 63.9297
12.8996 68.1215
13.0792 76.4615
13.2589 231.227
13.4386 125.806
13.6183 237.621
13.7981 100.003
13.9779 73.4719
14.1577 74.6268
14.3376 67.5369
14.5175 66.4306
14.6974 67.4288
14.8774 110.873
15.0574 158.742
15.2374 66.5468
15.4175 64.2732
15.5976 63.5242
15.7778 95.555
15.958 169.338
16.1382 59.7939
16.3185 55.6041
16.4988 53.5601
16.6792 52.4755
16.8596 52.9858
17.04 53.9642
17.2205 64.8685
17.401 72.1194
17.5815 57.3882
17.7622 60.0346
17.9428 73.5106
18.1237 142.287
18.3044 88.6874
18.4852 78.799
18.666 58.8923
18.8469 56.3134
19.0278 55.2415
19.2088 58.217
19.3898 76.0308
19.5709 52.9397
19.752 51.8186
19.9332 55.38
20.1144 70.3846
20.2957 63.5301
20.477 52.9383
20.6586 48.4937
20.84 47.8367
21.0215 47.5487
21.203 49.8392
21.3846 48.0257
21.5662 47.5475
21.7479 52.0096
21.9297 65.2484
22.1115 55.94
22.2933 49.0139
22.4753 47.7073
22.6572 47.6634
22.8393 51.3519
23.0214 57.4341
23.2037 47.883
23.3859 49.4187
23.5682 57.1095
23.7505 48.2662
23.9329 44.2398
24.1154 43.116
24.2979 42.374
24.4805 42.0307
24.6631 42.026
24.8458 41.2967
25.0286 42.0513
25.2114 44.2803
25.3943 44.3254
25.5773 40.1538
25.7605 39.5889
25.9436 40.1036
26.1268 41.2547
26.31 39.4417
26.4933 40.1487
26.6767 42.0749
26.8601 40.1446
27.0437 38.3834
27.2272 37.9015
27.4109 37.8847
27.5946 37.8617
27.7784 37.3325
27.9623 38.1893
28.1462 38.719
28.3304 36.6794
28.5145 35.3006
28.6987 35.0743
28.8829 34.9869
29.0673 34.185
29.2517 33.7489
29.4361 33.6259
29.6207 32.6144
29.8053 32.3513
29.99 32.0412
30.1748 32.0186
30.3597 31.7461
30.5447 31.7879
30.7297 31.9842
30.915 31.2749
31.1002 30.7157
31.2855 30.3446
31.4708 30.5051
31.6563 29.981
31.8418 29.7271
32.0275 29.54
32.2132 28.9829
32.399 28.5205
32.5848 28.1284
32.7708 27.7247
32.9569 27.683
33.143 27.4347
33.3293 27.1026
33.5158 26.6738
33.7022 26.2782
33.8887 26.0361
34.0753 25.6969
34.262 25.3347
34.4488 24.9993
34.6357 24.6018
34.8227 24.3537
35.0098 24.0791
35.1969 23.879
35.3842 23.6681
35.5716 23.4511
35.759 23.1213
35.9468 22.8309
36.1345 22.5258
36.3222 22.4012
36.5101 22.1887
36.6981 21.8481
36.8861 21.5051
37.0743 21.2648
37.2626 20.9585
37.451 20.6907
37.6395 20.517
37.8281 20.2572
38.0168 19.9358
38.2056 19.6574
38.3945 19.3963
38.5837 19.1914
38.7728 19.0153
38.9621 18.7179
39.1514 18.48
39.3409 18.229
39.5304 17.9947
39.7201 17.791
39.9099 17.5759
40.0999 17.3079
40.2899 17.143
40.48 16.9301
40.6703 16.6753
40.8607 16.4743
41.0512 16.2709
41.242 16.0462
41.4327 15.8398
41.6236 15.6147
41.8146 15.3908
42.0057 15.227
42.1969 15.0106
42.3882 14.8129
42.5797 14.6144
42.7713 14.4225
42.963 14.231
43.1549 14.0369
43.3468 13.8181
43.5389 13.6091
43.7312 13.475
43.9237 13.2253
44.1162 13.1019
44.3088 12.8764
44.5016 12.6735
44.6945 12.5641
44.8875 12.3821
45.0806 12.2023
45.2739 12.0746
45.4673 11.9075
45.6609 11.6391
45.8546 11.5585
46.0484 11.3661
46.2424 11.239
46.4365 11.0606
46.631 10.8959
46.8254 10.7346
47.0199 10.5579
47.2146 10.4726
47.4095 10.2406
47.6044 10.0924
47.7996 9.9075
47.9948 9.77514
48.1902 9.60725
48.3858 9.51614
48.5815 9.41228
48.7774 9.27427
48.9734 9.14346
49.1696 8.94484
49.3661 8.84806
49.5626 8.65506
49.7592 8.5301
49.956 8.45359
50.153 8.3185
50.3501 8.14921
50.5474 8.07141
50.7448 7.94898
50.9424 7.81686
51.1402 7.70101
51.3381 7.58694
51.5362 7.4687
51.7344 7.32664
51.9328 7.20544
52.1316 7.06836
52.3304 6.9744
52.5293 6.8435
52.7284 6.73546
52.9276 6.62465
53.1271 6.51017
53.3267 6.38825
53.5265 6.34425
53.7264 6.17102
53.9266 6.09766
54.1269 5.95789
54.3274 5.84182
54.528 5.71436
54.7289 5.56511
54.9301 5.42916
55.1314 5.33232
55.3328 5.0656
55.5344 4.90264
55.7361 4.70887

File: Ni3Fe_FD1079.xy
TT I
1.27165 7.12617
1.45013 5.59713
1.62863 5.25737
1.80712 3.85982
1.98562 4.42317
2.16411 4.48183
2.34263 4.77083
2.52115 6.30966
2.69965 8.7244
2.87818 9.18443
3.05672 10.5996
3.23527 14.4115
3.4138 18.224
3.59237 21.25
3.77094 24.3035
3.9495 28.7406
4.12809 32.2088
4.30669 56.6437
4.4853 46.1205
4.6639 52.8537
4.84253 63.7282
5.02118 82.7689
5.19981 231.325
5.37848 203.244
5.55716 97.3898
5.73586 87.7889
5.91455 89.0933
6.09328 4461.17
6.27201 75.9392
6.45075 63.6036
6.62952 58.0002
6.8083 54.6251
6.98711 52.6375
7.16591 51.6946
7.34475 55.9576
7.5236 58.1765
7.70247 53.0128
7.88135 54.8729
8.06026 58.8792
8.23919 65.7545
8.41812 77.8139
8.59709 1116.13
8.77609 94.8847
8.9551 82.48
9.13412 79.2182
9.31318 87.5269
9.49226 81.0199
9.67134 86.4646
9.85047 94.2487
10.0296 353.422
10.2088 442.787
10.388 98.0871
10.5672 515.314
10.7465 85.8404
10.9257 73.4375
11.105 68.3376
11.2844 64.5268
11.4637 61.9646
11.6431 60.743
11.8225 59.63
12.002 65.9852
12.1814 147.38
12.3609 64.4452
12.5405 61.407
12.72 64.0162
12.8996 68.0307
13.0792 76.5317
13.2589 231.682
13.4386 125.657
13.6183 237.413
13.7981 100.098
13.9779 73.5058
14.1577 74.7353
14.3376 67.2391
14.5175 66.6826
14.6974 67.3621
14.8774 110.892
15.0574 158.375
15.2374 66.6492
15.4175 64.2087
15.5976 63.832
15.7778 95.6108
15.958 169.144
16.1382 59.9353
16.3185 55.5485
16.4988 53.483
16.6792 52.6574
16.8596 52.9808
17.04 53.9127
17.2205 65.0633
17.401 72.1798
17.5815 57.4571
17.7622 60.0841
17.9428 73.7238
18.1237 142.318
18.3044 89.0534
18.4852 79.0494
18.666 58.9839
18.8469 56.5096
19.0278 55.0941
19.2088 58.2233
19.3898 75.9132
19.5709 52.9852
19.752 51.9771
19.9332 55.4197
20.1144 70.7094
20.2957 63.6608
20.477 52.8327
20.6586 48.3529
20.84 48.0667
21.0215 47.5376
21.203 49.5881
21.3846 47.9401
21.5662 47.6446
21.7479 51.9443
21.9297 65.3518
22.1115 55.8288
22.2933 49.0911
22.4753 47.4771
22.6572 47.7314
22.8393 51.3209
23.0214 57.2141
23.2037 48.0368
23.3859 49.4026
23.5682 57.3203
23.7505 48.1563
23.9329 44.4259
24.1154 43.0457
24.2979 42.5933
24.4805 42.0241
24.6631 41.9827
24.8458 41.328
25.0286 42.1249
25.2114 44.4204
25.3943 44.2884
25.5773 40.2414
25.7605 39.681
25.9436 40.0671
26.1268 41.3528
26.31 39.4147
26.4933 40.1677
26.6767 42.0066
26.8601 40.1829
27.0437 38.2787
27.2272 38.0541
27.4109 37.8217
27.5946 37.917
27.7784 37.2663
27.9623 38.1576
28.1462 38.7229
28.3304 36.9214
28.5145 35.234
28.6987 35.0242
28.8829 34.8979
29.0673 34.0368
29.2517 33.8135
29.4361 33.7725
29.6207 32.5635
29.8053 32.3055
29.99 32.1034
30.1748 31.949
30.3597 31.8584
30.5447 31.7306
30.7297 31.8322
30.915 31.3637
31.1002 30.7304
31.2855 30.4566
31.4708 30.4419
31.6563 30.0148
31.8418 29.7114
32.0275 29.6173
32.2132 29.0499
32.399 28.5085
32.5848 28.1713
32.7708 27.7484
32.9569 27.6834
33.143 27.4972
33.3293 27.1323
33.5158 26.6625
33.7022 26.2407
33.8887 25.9404
34.0753 25.6507
34.262 25.2919
34.4488 24.9625
34.6357 24.614
34.8227 24.3
35.0098 24.1724
35.1969 23.9706
35.3842 23.6331
35.5716 23.4748
35.759 23.1877
35.9468 22.797
36.1345 22.6378
36.3222 22.279
36.5101 22.0742
36.6981 21.857
36.8861 21.5562
37.0743 21.1472
37.2626 20.9846
37.451 20.6873
37.6395 20.5122
37.8281 20.1582
38.0168 19.8364
38.2056 19.7399
38.3945 19.4075
38.5837 19.1433
38.7728 19.007
38.9621 18.7015
39.1514 18.3787
39.3409 18.2039
39.5304 18.0175
39.7201 17.7971
39.9099 17.618
40.0999 17.3606
40.2899 17.1334
40.48 16.8844
40.6703 16.7221
40.8607 16.526
41.0512 16.3322
41.242 16.0145
41.4327 15.8283
41.6236 15.5977
41.8146 15.4876
42.0057 15.1654
42.1969 15.0222
42.3882 14.8347
42.5797 14.6206
42.7713 14.4334
42.963 14.2512
43.1549 14.0088
43.3468 13.7883
43.5389 13.6314
43.7312 13.4313
43.9237 13.2458
44.1162 13.1424
44.3088 12.9038
44.5016 12.6994
44.6945 12.6286
44.8875 12.3663
45.0806 12.2107
45.2739 11.9692
45.4673 11.8262
45.6609 11.6853
45.8546 11.5342
46.0484 11.34
46.2424 11.1872
46.4365 11.0637
46.631 10.8847
46.8254 10.6906
47.0199 10.5352
47.2146 10.3709
47.4095 10.2222
47.6044 10.0688
47.7996 9.95071
47.9948 9.77871
48.1902 9.65794
48.3858 9.54521
48.5815 9.384
48.7774 9.21359
48.9734 9.15847
49.1696 8.98285
49.3661 8.84534
49.5626 8.67735
49.7592 8.56864
49.956 8.42321
50.153 8.30009
50.3501 8.19677
50.5474 8.03343
50.7448 7.93025
50.9424 7.796
51.1402 7.72856
51.3381 7.55373
51.5362 7.45615
51.7344 7.3225
51.9328 7.19579
52.1316 7.09642
52.3304 6.96264
52.5293 6.83802
52.7284 6.75013
52.9276 6.62087
53.1271 6.54484
53.3267 6.40664
53.5265 6.28163
53.7264 6.17604
53.9266 6.09594
54.1269 5.95768
54.3274 5.84774
54.528 5.72482
54.7289 5.5289
54.9301 5.4181
55.1314 5.31513
55.3328 5.08563
55.5344 4.90053
55.7361 4.71846