Folder: NiFe_MOF_catalyst_paper/XRD (part 72)

File: Ni3Fe_FD0380.xy
TT I
1.27165 7.78289
1.45013 6.5187
1.62863 6.17572
1.80712 5.1419
1.98562 4.33447
2.16411 5.1489
2.34263 4.63341
2.52115 5.92984
2.69965 7.49682
2.87818 8.36467
3.05672 11.0656
3.23527 15.4854
3.4138 18.8722
3.59237 24.461
3.77094 26.5476
3.9495 30.7586
4.12809 35.7329
4.30669 190.752
4.4853 64.0286
4.6639 56.592
4.84253 68.9919
5.02118 90.2841
5.19981 481.78
5.37848 224.798
5.55716 106.578
5.73586 95.8462
5.91455 99.6952
6.09328 4019.77
6.27201 86.6924
6.45075 69.3337
6.62952 64.5162
6.8083 60.3524
6.98711 56.9953
7.16591 56.7332
7.34475 87.1961
7.5236 56.122
7.70247 57.8475
7.88135 59.4467
8.06026 64.0577
8.23919 71.6742
8.41812 88.09
8.59709 1176.5
8.77609 104.998
8.9551 93.4633
9.13412 84.4524
9.31318 85.4187
9.49226 87.1195
9.67134 100.257
9.85047 102.863
10.0296 401.425
10.2088 514.747
10.388 108.586
10.5672 480.499
10.7465 89.5543
10.9257 80.5113
11.105 73.9743
11.2844 71.8856
11.4637 66.8427
11.6431 65.379
11.8225 64.2407
12.002 65.7572
12.1814 150.375
12.3609 72.2657
12.5405 66.4403
12.72 71.1314
12.8996 73.1982
13.0792 81.6006
13.2589 241.435
13.4386 140.712
13.6183 242.881
13.7981 106.521
13.9779 78.0509
14.1577 74.4167
14.3376 73.5282
14.5175 70.7252
14.6974 72.7407
14.8774 115.815
15.0574 160.85
15.2374 73.092
15.4175 68.3253
15.5976 67.6323
15.7778 99.5756
15.958 166.298
16.1382 64.1936
16.3185 60.2233
16.4988 57.015
16.6792 56.1152
16.8596 56.8564
17.04 57.4206
17.2205 68.4503
17.401 74.2587
17.5815 60.8076
17.7622 63.0194
17.9428 77.5246
18.1237 136.089
18.3044 91.8668
18.4852 82.1618
18.666 62.0725
18.8469 59.714
19.0278 58.5112
19.2088 61.7497
19.3898 76.4421
19.5709 55.988
19.752 54.9379
19.9332 58.0207
20.1144 70.6945
20.2957 64.6087
20.477 55.7842
20.6586 51.0828
20.84 50.1851
21.0215 50.0983
21.203 51.8899
21.3846 50.4158
21.5662 50.1567
21.7479 54.2469
21.9297 65.2869
22.1115 57.2844
22.2933 51.6564
22.4753 50.2809
22.6572 50.4045
22.8393 53.3759
23.0214 58.6291
23.2037 50.3175
23.3859 51.4067
23.5682 57.4225
23.7505 50.267
23.9329 46.6923
24.1154 45.4015
24.2979 44.7921
24.4805 44.1212
24.6631 44.2332
24.8458 43.4468
25.0286 44.0621
25.2114 45.7982
25.3943 45.7092
25.5773 42.0839
25.7605 41.5166
25.9436 41.94
26.1268 42.7777
26.31 41.3049
26.4933 41.9674
26.6767 43.086
26.8601 41.5984
27.0437 40.052
27.2272 39.5541
27.4109 39.5299
27.5946 39.3921
27.7784 39.0533
27.9623 39.2975
28.1462 40.0483
28.3304 38.3843
28.5145 37.0213
28.6987 36.5722
28.8829 36.4862
29.0673 35.6008
29.2517 35.313
29.4361 35.0639
29.6207 34.1644
29.8053 33.8122
29.99 33.5799
30.1748 33.2933
30.3597 33.0859
30.5447 33.0134
30.7297 33.1034
30.915 32.4878
31.1002 32.0075
31.2855 31.7465
31.4708 31.5569
31.6563 31.1941
31.8418 30.9036
32.0275 30.7579
32.2132 30.2068
32.399 29.7817
32.5848 29.2645
32.7708 28.9625
32.9569 28.8158
33.143 28.5691
33.3293 28.1637
33.5158 27.7192
33.7022 27.3796
33.8887 27.0655
34.0753 26.6999
34.262 26.3239
34.4488 25.9596
34.6357 25.6084
34.8227 25.3853
35.0098 25.2203
35.1969 24.8855
35.3842 24.6091
35.5716 24.485
35.759 24.0627
35.9468 23.6589
36.1345 23.4804
36.3222 23.3748
36.5101 23.033
36.6981 22.7321
36.8861 22.4115
37.0743 22.0985
37.2626 21.7883
37.451 21.5611
37.6395 21.3516
37.8281 21.0491
38.0168 20.7813
38.2056 20.5302
38.3945 20.2588
38.5837 19.9628
38.7728 19.7658
38.9621 19.4763
39.1514 19.2143
39.3409 18.9131
39.5304 18.7138
39.7201 18.5777
39.9099 18.2652
40.0999 18.0102
40.2899 17.8459
40.48 17.5779
40.6703 17.3072
40.8607 17.2092
41.0512 16.9461
41.242 16.7336
41.4327 16.4653
41.6236 16.2903
41.8146 16.08
42.0057 15.7963
42.1969 15.5622
42.3882 15.4012
42.5797 15.284
42.7713 15.0246
42.963 14.7679
43.1549 14.6098
43.3468 14.401
43.5389 14.2308
43.7312 13.998
43.9237 13.8223
44.1162 13.6054
44.3088 13.4291
44.5016 13.2093
44.6945 13.0451
44.8875 12.8489
45.0806 12.6967
45.2739 12.4871
45.4673 12.3506
45.6609 12.156
45.8546 12.0226
46.0484 11.8783
46.2424 11.6265
46.4365 11.5416
46.631 11.3135
46.8254 11.13
47.0199 10.9859
47.2146 10.8727
47.4095 10.6809
47.6044 10.5176
47.7996 10.3657
47.9948 10.2112
48.1902 10.0704
48.3858 9.90951
48.5815 9.80779
48.7774 9.66247
48.9734 9.51106
49.1696 9.35555
49.3661 9.18064
49.5626 9.07671
49.7592 8.92378
49.956 8.76559
50.153 8.69471
50.3501 8.51138
50.5474 8.38866
50.7448 8.26288
50.9424 8.15094
51.1402 8.03892
51.3381 7.88918
51.5362 7.76291
51.7344 7.64393
51.9328 7.47444
52.1316 7.33461
52.3304 7.28206
52.5293 7.11862
52.7284 7.01018
52.9276 6.89107
53.1271 6.82249
53.3267 6.64475
53.5265 6.57668
53.7264 6.45924
53.9266 6.30866
54.1269 6.22396
54.3274 6.09011
54.528 5.95355
54.7289 5.77381
54.9301 5.64925
55.1314 5.52271
55.3328 5.24823
55.5344 5.08882
55.7361 4.92091

File: Ni3Fe_FD0381.xy
TT I
1.27165 7.35598
1.45013 6.30513
1.62863 5.49481
1.80712 4.73453
1.98562 4.21798
2.16411 5.16374
2.34263 5.33705
2.52115 5.85206
2.69965 7.19034
2.87818 8.57706
3.05672 11.1137
3.23527 14.9637
3.4138 18.7298
3.59237 24.344
3.77094 26.643
3.9495 30.2231
4.12809 35.508
4.30669 197.672
4.4853 64.1035
4.6639 57.0989
4.84253 69.0708
5.02118 90.1059
5.19981 470.605
5.37848 226.55
5.55716 106.01
5.73586 95.3462
5.91455 99.164
6.09328 3984.55
6.27201 86.7321
6.45075 69.1063
6.62952 64.3404
6.8083 60.2547
6.98711 57.163
7.16591 56.8732
7.34475 88.9005
7.5236 56.1823
7.70247 57.6815
7.88135 59.0798
8.06026 63.7562
8.23919 71.5733
8.41812 88.0032
8.59709 1167.34
8.77609 104.85
8.9551 93.5753
9.13412 84.4086
9.31318 85.3353
9.49226 86.6838
9.67134 100.473
9.85047 102.679
10.0296 396.478
10.2088 511.486
10.388 108.479
10.5672 479.851
10.7465 89.2285
10.9257 80.474
11.105 73.7972
11.2844 71.8205
11.4637 66.7378
11.6431 65.0046
11.8225 64.19
12.002 65.3672
12.1814 149.877
12.3609 72.8233
12.5405 66.3625
12.72 71.3711
12.8996 73.1575
13.0792 81.6523
13.2589 240.059
13.4386 141.737
13.6183 241.306
13.7981 107.195
13.9779 77.97
14.1577 74.2108
14.3376 73.2166
14.5175 70.5207
14.6974 72.5334
14.8774 115.4
15.0574 163.634
15.2374 72.6892
15.4175 68.0354
15.5976 67.674
15.7778 99.1389
15.958 167.021
16.1382 64.4911
16.3185 60.1499
16.4988 56.9966
16.6792 55.9353
16.8596 56.6429
17.04 57.4203
17.2205 68.2837
17.401 74.334
17.5815 60.7359
17.7622 62.921
17.9428 77.1457
18.1237 136.159
18.3044 91.7275
18.4852 82.5729
18.666 62.1829
18.8469 59.6619
19.0278 58.5319
19.2088 61.4434
19.3898 76.5802
19.5709 55.7897
19.752 54.7652
19.9332 57.9361
20.1144 70.4762
20.2957 64.464
20.477 55.8056
20.6586 51.0515
20.84 50.1884
21.0215 50.0218
21.203 51.8667
21.3846 50.4782
21.5662 50.215
21.7479 54.1975
21.9297 65.2615
22.1115 57.1956
22.2933 51.6047
22.4753 50.1416
22.6572 50.2905
22.8393 53.3142
23.0214 58.6597
23.2037 50.1859
23.3859 51.3669
23.5682 57.5294
23.7505 50.1987
23.9329 46.4254
24.1154 45.3234
24.2979 44.7645
24.4805 44.0876
24.6631 44.0033
24.8458 43.464
25.0286 44.0432
25.2114 45.9349
25.3943 45.7064
25.5773 42.0391
25.7605 41.5776
25.9436 41.993
26.1268 42.7647
26.31 41.4179
26.4933 41.7178
26.6767 43.1895
26.8601 41.5815
27.0437 39.8706
27.2272 39.6098
27.4109 39.4857
27.5946 39.4432
27.7784 39.0471
27.9623 39.5379
28.1462 39.9074
28.3304 38.3184
28.5145 37.0519
28.6987 36.6294
28.8829 36.3198
29.0673 35.7681
29.2517 35.3488
29.4361 35.2088
29.6207 34.0513
29.8053 33.7818
29.99 33.5316
30.1748 33.3675
30.3597 33.1577
30.5447 33.0716
30.7297 33.1314
30.915 32.4513
31.1002 31.9938
31.2855 31.7537
31.4708 31.7213
31.6563 31.1599
31.8418 30.9319
32.0275 30.7826
32.2132 30.2447
32.399 29.8016
32.5848 29.2605
32.7708 28.9295
32.9569 28.95
33.143 28.5841
33.3293 28.1637
33.5158 27.8042
33.7022 27.3401
33.8887 26.9423
34.0753 26.7805
34.262 26.2864
34.4488 25.9977
34.6357 25.6781
34.8227 25.3757
35.0098 25.1204
35.1969 24.8178
35.3842 24.623
35.5716 24.3974
35.759 24.1623
35.9468 23.7119
36.1345 23.516
36.3222 23.2609
36.5101 23.0382
36.6981 22.6947
36.8861 22.3749
37.0743 22.0296
37.2626 21.8625
37.451 21.5107
37.6395 21.4145
37.8281 21.041
38.0168 20.6956
38.2056 20.5098
38.3945 20.264
38.5837 19.9729
38.7728 19.6892
38.9621 19.4546
39.1514 19.139
39.3409 18.9944
39.5304 18.7722
39.7201 18.5445
39.9099 18.316
40.0999 18.0822
40.2899 17.7691
40.48 17.6069
40.6703 17.3472
40.8607 17.2192
41.0512 16.9411
41.242 16.6939
41.4327 16.4587
41.6236 16.2488
41.8146 16.07
42.0057 15.8573
42.1969 15.6154
42.3882 15.4392
42.5797 15.2232
42.7713 15.0403
42.963 14.8084
43.1549 14.586
43.3468 14.3791
43.5389 14.2189
43.7312 14.0211
43.9237 13.8046
44.1162 13.5965
44.3088 13.4469
44.5016 13.2201
44.6945 13.0511
44.8875 12.8437
45.0806 12.6558
45.2739 12.5383
45.4673 12.3679
45.6609 12.1743
45.8546 12.0098
46.0484 11.822
46.2424 11.6408
46.4365 11.5163
46.631 11.2721
46.8254 11.141
47.0199 11.004
47.2146 10.8295
47.4095 10.6729
47.6044 10.5121
47.7996 10.3736
47.9948 10.162
48.1902 10.0453
48.3858 9.91478
48.5815 9.77985
48.7774 9.63038
48.9734 9.46494
49.1696 9.33575
49.3661 9.17129
49.5626 9.08798
49.7592 8.93972
49.956 8.81833
50.153 8.67466
50.3501 8.55644
50.5474 8.39529
50.7448 8.28162
50.9424 8.12791
51.1402 8.06437
51.3381 7.87002
51.5362 7.73162
51.7344 7.63701
51.9328 7.50863
52.1316 7.3587
52.3304 7.28743
52.5293 7.1495
52.7284 6.98882
52.9276 6.89805
53.1271 6.79936
53.3267 6.68482
53.5265 6.5302
53.7264 6.45011
53.9266 6.33146
54.1269 6.24656
54.3274 6.05919
54.528 5.96214
54.7289 5.80064
54.9301 5.66369
55.1314 5.54725
55.3328 5.26749
55.5344 5.08901
55.7361 4.95152

File: Ni3Fe_FD0382.xy
TT I
1.27165 7.07934
1.45013 6.27128
1.62863 5.3709
1.80712 4.85502
1.98562 5.09457
2.16411 4.67468
2.34263 4.69286
2.52115 6.21806
2.69965 7.76471
2.87818 8.25289
3.05672 11.4764
3.23527 14.8959
3.4138 19.1997
3.59237 24.1397
3.77094 26.327
3.9495 30.0859
4.12809 35.2483
4.30669 200.763
4.4853 64.2304
4.6639 56.3808
4.84253 68.5876
5.02118 89.7879
5.19981 468.066
5.37848 226.661
5.55716 106.373
5.73586 95.1103
5.91455 98.8515
6.09328 3976.77
6.27201 87.0618
6.45075 69.4121
6.62952 64.2238
6.8083 60.1205
6.98711 57.1348
7.16591 56.7894
7.34475 89.0666
7.5236 56.1829
7.70247 57.295
7.88135 59.2619
8.06026 63.9114
8.23919 71.3838
8.41812 87.6443
8.59709 1169.6
8.77609 105.002
8.9551 93.4943
9.13412 84.0964
9.31318 85.3501
9.49226 86.6187
9.67134 100.451
9.85047 102.752
10.0296 395.144
10.2088 512.32
10.388 108.409
10.5672 481.146
10.7465 89.6618
10.9257 80.1552
11.105 73.6419
11.2844 72.0447
11.4637 66.6378
11.6431 65.4942
11.8225 64.2702
12.002 65.3473
12.1814 149.2
12.3609 72.7604
12.5405 66.2992
12.72 71.241
12.8996 72.6422
13.0792 81.55
13.2589 239.556
13.4386 141.209
13.6183 240.767
13.7981 106.775
13.9779 77.8279
14.1577 74.4382
14.3376 73.276
14.5175 70.7357
14.6974 72.3526
14.8774 115.241
15.0574 163.884
15.2374 72.9043
15.4175 68.3029
15.5976 67.717
15.7778 99.0829
15.958 166.889
16.1382 64.5508
16.3185 60.1169
16.4988 56.9612
16.6792 56.0392
16.8596 56.769
17.04 57.4508
17.2205 68.4138
17.401 74.4833
17.5815 61.1198
17.7622 62.9271
17.9428 77.1392
18.1237 136.653
18.3044 91.9843
18.4852 82.4744
18.666 62.2507
18.8469 59.5856
19.0278 58.3485
19.2088 61.5611
19.3898 76.7253
19.5709 55.8305
19.752 54.9814
19.9332 58.128
20.1144 70.673
20.2957 64.5333
20.477 55.9881
20.6586 51.0978
20.84 50.154
21.0215 50.0636
21.203 51.96
21.3846 50.5513
21.5662 50.1977
21.7479 54.0739
21.9297 65.4565
22.1115 57.1827
22.2933 51.6303
22.4753 50.292
22.6572 50.432
22.8393 53.5149
23.0214 58.6907
23.2037 50.1899
23.3859 51.4282
23.5682 57.3342
23.7505 50.1394
23.9329 46.5635
24.1154 45.355
24.2979 44.5681
24.4805 44.1038
24.6631 44.0179
24.8458 43.4154
25.0286 44.1441
25.2114 45.8329
25.3943 45.8542
25.5773 42.1198
25.7605 41.6325
25.9436 41.9309
26.1268 42.8247
26.31 41.2621
26.4933 41.8474
26.6767 43.0808
26.8601 41.457
27.0437 39.9013
27.2272 39.5543
27.4109 39.4787
27.5946 39.4621
27.7784 38.9292
27.9623 39.3606
28.1462 39.8828
28.3304 38.3406
28.5145 36.9099
28.6987 36.6333
28.8829 36.3488
29.0673 35.6751
29.2517 35.2342
29.4361 34.8838
29.6207 34.1241
29.8053 33.7716
29.99 33.5006
30.1748 33.2551
30.3597 33.1101
30.5447 33.0968
30.7297 33.0099
30.915 32.4878
31.1002 31.8707
31.2855 31.7006
31.4708 31.5637
31.6563 31.1695
31.8418 30.8794
32.0275 30.7049
32.2132 30.1656
32.399 29.8314
32.5848 29.2183
32.7708 28.8872
32.9569 28.7741
33.143 28.5421
33.3293 28.091
33.5158 27.7644
33.7022 27.3429
33.8887 26.991
34.0753 26.6045
34.262 26.2522
34.4488 25.9012
34.6357 25.6068
34.8227 25.361
35.0098 25.1407
35.1969 24.8443
35.3842 24.6234
35.5716 24.3685
35.759 24.1907
35.9468 23.7757
36.1345 23.5867
36.3222 23.2124
36.5101 23.0285
36.6981 22.6532
36.8861 22.3786
37.0743 22.0613
37.2626 21.8272
37.451 21.574
37.6395 21.288
37.8281 21.0568
38.0168 20.7037
38.2056 20.5438
38.3945 20.1614
38.5837 19.9519
38.7728 19.7434
38.9621 19.5124
39.1514 19.139
39.3409 18.9746
39.5304 18.718
39.7201 18.5082
39.9099 18.3176
40.0999 18.0377
40.2899 17.8337
40.48 17.5586
40.6703 17.437
40.8607 17.1956
41.0512 16.9396
41.242 16.6833
41.4327 16.5046
41.6236 16.245
41.8146 16.0208
42.0057 15.8232
42.1969 15.6067
42.3882 15.4832
42.5797 15.2248
42.7713 14.9952
42.963 14.7568
43.1549 14.5932
43.3468 14.3624
43.5389 14.202
43.7312 13.9844
43.9237 13.7948
44.1162 13.5759
44.3088 13.4184
44.5016 13.2221
44.6945 13.046
44.8875 12.8744
45.0806 12.6638
45.2739 12.5308
45.4673 12.3077
45.6609 12.1713
45.8546 11.9799
46.0484 11.8294
46.2424 11.6424
46.4365 11.4473
46.631 11.3217
46.8254 11.1798
47.0199 10.9381
47.2146 10.833
47.4095 10.6843
47.6044 10.4979
47.7996 10.3365
47.9948 10.2101
48.1902 10.0509
48.3858 9.9134
48.5815 9.80523
48.7774 9.6313
48.9734 9.46829
49.1696 9.33662
49.3661 9.16406
49.5626 9.00452
49.7592 8.93692
49.956 8.80254
50.153 8.65471
50.3501 8.51443
50.5474 8.40099
50.7448 8.26564
50.9424 8.15354
51.1402 7.98929
51.3381 7.84405
51.5362 7.72385
51.7344 7.62833
51.9328 7.4721
52.1316 7.36283
52.3304 7.26133
52.5293 7.08679
52.7284 7.04015
52.9276 6.85231
53.1271 6.76462
53.3267 6.65644
53.5265 6.52117
53.7264 6.45214
53.9266 6.29495
54.1269 6.20242
54.3274 6.12704
54.528 6.00484
54.7289 5.76722
54.9301 5.58845
55.1314 5.46886
55.3328 5.29747
55.5344 5.0909
55.7361 4.95102

File: Ni3Fe_FD0385.xy
TT I
1.27165 7.20354
1.45013 6.36705
1.62863 4.97801
1.80712 5.30228
1.98562 4.67827
2.16411 4.42118
2.34263 4.4171
2.52115 6.21468
2.69965 7.16883
2.87818 8.52805
3.05672 11.2467
3.23527 15.017
3.4138 19.0356
3.59237 24.5259
3.77094 26.5526
3.9495 29.9639
4.12809 35.4022
4.30669 207.856
4.4853 65.6766
4.6639 56.6518
4.84253 69.4541
5.02118 89.8377
5.19981 462.23
5.37848 227.342
5.55716 105.785
5.73586 95.1943
5.91455 99.434
6.09328 4030.42
6.27201 87.0833
6.45075 69.4306
6.62952 64.5446
6.8083 60.5453
6.98711 57.4139
7.16591 56.7719
7.34475 90.8884
7.5236 56.2347
7.70247 57.5346
7.88135 59.67
8.06026 64.147
8.23919 71.1424
8.41812 88.0619
8.59709 1152.09
8.77609 105.189
8.9551 94.0949
9.13412 84.3664
9.31318 85.3843
9.49226 86.989
9.67134 101.041
9.85047 103.174
10.0296 389.406
10.2088 505.901
10.388 108.568
10.5672 481.981
10.7465 89.4438
10.9257 80.4295
11.105 73.7764
11.2844 72.1636
11.4637 66.7072
11.6431 65.6539
11.8225 64.3233
12.002 65.7618
12.1814 148.84
12.3609 73.0613
12.5405 66.3843
12.72 71.8274
12.8996 72.67
13.0792 81.5218
13.2589 237.395
13.4386 140.743
13.6183 240.221
13.7981 106.314
13.9779 78.0706
14.1577 74.4444
14.3376 73.4204
14.5175 70.6077
14.6974 72.3774
14.8774 114.617
15.0574 162.754
15.2374 72.841
15.4175 68.1669
15.5976 67.6727
15.7778 98.4378
15.958 167.198
16.1382 64.4592
16.3185 60.3311
16.4988 57.1166
16.6792 55.8442
16.8596 56.8087
17.04 57.365
17.2205 68.1478
17.401 74.6754
17.5815 60.8208
17.7622 62.8156
17.9428 77.0188
18.1237 136.706
18.3044 91.1986
18.4852 81.9068
18.666 62.093
18.8469 59.6245
19.0278 58.5832
19.2088 61.5587
19.3898 76.6877
19.5709 55.851
19.752 54.6276
19.9332 58.1352
20.1144 70.716
20.2957 64.6888
20.477 55.8188
20.6586 51.1782
20.84 50.2177
21.0215 49.9892
21.203 51.8751
21.3846 50.6921
21.5662 50.1334
21.7479 54.0077
21.9297 65.4822
22.1115 57.0307
22.2933 51.6517
22.4753 50.1366
22.6572 50.3092
22.8393 53.2394
23.0214 58.7633
23.2037 50.0942
23.3859 51.2156
23.5682 57.3976
23.7505 50.1019
23.9329 46.5393
24.1154 45.4036
24.2979 44.5503
24.4805 43.9475
24.6631 43.938
24.8458 43.3862
25.0286 43.9932
25.2114 45.7041
25.3943 45.7518
25.5773 42.1272
25.7605 41.4657
25.9436 41.9827
26.1268 42.6957
26.31 41.3132
26.4933 41.7978
26.6767 43.1866
26.8601 41.5283
27.0437 39.9084
27.2272 39.5444
27.4109 39.3915
27.5946 39.3802
27.7784 38.8207
27.9623 39.2592
28.1462 39.8611
28.3304 38.159
28.5145 36.8809
28.6987 36.4485
28.8829 36.465
29.0673 35.6206
29.2517 35.2361
29.4361 34.8958
29.6207 34.0617
29.8053 33.805
29.99 33.4573
30.1748 33.3504
30.3597 33.2108
30.5447 33.0517
30.7297 33.0537
30.915 32.4183
31.1002 31.9192
31.2855 31.7117
31.4708 31.4759
31.6563 31.2274
31.8418 30.9704
32.0275 30.7487
32.2132 30.2196
32.399 29.7379
32.5848 29.194
32.7708 28.9221
32.9569 28.7753
33.143 28.4466
33.3293 28.1768
33.5158 27.7218
33.7022 27.2626
33.8887 27.0408
34.0753 26.717
34.262 26.3497
34.4488 26.0312
34.6357 25.5705
34.8227 25.314
35.0098 25.1443
35.1969 24.9108
35.3842 24.6727
35.5716 24.3895
35.759 24.1457
35.9468 23.6971
36.1345 23.4277
36.3222 23.3189
36.5101 22.9791
36.6981 22.7072
36.8861 22.3661
37.0743 22.095
37.2626 21.7944
37.451 21.5535
37.6395 21.2792
37.8281 21.0015
38.0168 20.6639
38.2056 20.5482
38.3945 20.2189
38.5837 19.9509
38.7728 19.6907
38.9621 19.4805
39.1514 19.1822
39.3409 18.9288
39.5304 18.6719
39.7201 18.5515
39.9099 18.3222
40.0999 18.0136
40.2899 17.842
40.48 17.5384
40.6703 17.3389
40.8607 17.1398
41.0512 16.9097
41.242 16.6659
41.4327 16.4661
41.6236 16.2675
41.8146 16.1091
42.0057 15.7874
42.1969 15.5927
42.3882 15.4233
42.5797 15.2056
42.7713 15.0495
42.963 14.8769
43.1549 14.5745
43.3468 14.363
43.5389 14.1588
43.7312 13.9696
43.9237 13.8393
44.1162 13.6526
44.3088 13.4367
44.5016 13.2353
44.6945 13.0114
44.8875 12.857
45.0806 12.7018
45.2739 12.4961
45.4673 12.331
45.6609 12.1441
45.8546 11.9738
46.0484 11.8267
46.2424 11.6522
46.4365 11.4738
46.631 11.2382
46.8254 11.1121
47.0199 10.9953
47.2146 10.8416
47.4095 10.6421
47.6044 10.491
47.7996 10.3316
47.9948 10.1924
48.1902 10.0547
48.3858 9.91607
48.5815 9.74429
48.7774 9.63224
48.9734 9.46346
49.1696 9.31962
49.3661 9.21138
49.5626 9.0395
49.7592 8.93733
49.956 8.77506
50.153 8.65885
50.3501 8.51966
50.5474 8.36671
50.7448 8.26191
50.9424 8.13256
51.1402 8.04458
51.3381 7.88164
51.5362 7.77212
51.7344 7.60087
51.9328 7.47458
52.1316 7.34359
52.3304 7.24862
52.5293 7.13381
52.7284 7.03421
52.9276 6.88645
53.1271 6.80341
53.3267 6.62777
53.5265 6.54072
53.7264 6.43275
53.9266 6.33068
54.1269 6.23999
54.3274 6.09264
54.528 5.89791
54.7289 5.76885
54.9301 5.6333
55.1314 5.51957
55.3328 5.24872
55.5344 5.05604
55.7361 4.88567

File: Ni3Fe_FD0386.xy
TT I
1.27165 7.64341
1.45013 6.18137
1.62863 5.35133
1.80712 4.77166
1.98562 5.28956
2.16411 5.05116
2.34263 4.99948
2.52115 6.04463
2.69965 7.67011
2.87818 8.52852
3.05672 11.281
3.23527 14.9505
3.4138 18.9387
3.59237 24.2983
3.77094 26.5974
3.9495 30.1182
4.12809 35.4892
4.30669 210.52
4.4853 65.4074
4.6639 56.9338
4.84253 69.1724
5.02118 90.1909
5.19981 462.769
5.37848 225.814
5.55716 105.975
5.73586 95.4328
5.91455 98.9042
6.09328 4023.81
6.27201 87.1903
6.45075 69.2547
6.62952 64.5219
6.8083 60.2011
6.98711 57.0331
7.16591 56.7072
7.34475 91.2831
7.5236 55.9191
7.70247 57.603
7.88135 59.1143
8.06026 64.0487
8.23919 71.4451
8.41812 88.2366
8.59709 1146.1
8.77609 105.038
8.9551 94.0558
9.13412 84.4202
9.31318 85.2761
9.49226 86.5953
9.67134 101.109
9.85047 102.946
10.0296 387.754
10.2088 503.844
10.388 107.995
10.5672 482.196
10.7465 89.4201
10.9257 80.6863
11.105 73.7037
11.2844 71.9415
11.4637 66.5863
11.6431 65.3089
11.8225 64.3928
12.002 65.2925
12.1814 149.221
12.3609 73.0845
12.5405 66.1421
12.72 71.5714
12.8996 72.7708
13.0792 81.437
13.2589 236.745
13.4386 140.537
13.6183 239.791
13.7981 106.354
13.9779 77.7226
14.1577 74.1221
14.3376 73.5391
14.5175 70.6795
14.6974 72.3765
14.8774 114.094
15.0574 162.41
15.2374 73.0494
15.4175 68.1064
15.5976 67.5195
15.7778 98.441
15.958 167.035
16.1382 64.4143
16.3185 60.2874
16.4988 57.0192
16.6792 56.0122
16.8596 56.7004
17.04 57.431
17.2205 68.1755
17.401 74.4891
17.5815 60.8941
17.7622 62.7786
17.9428 76.897
18.1237 137.131
18.3044 91.3247
18.4852 81.9803
18.666 62.0898
18.8469 59.703
19.0278 58.4374
19.2088 61.4278
19.3898 76.4747
19.5709 55.7877
19.752 54.8365
19.9332 57.8613
20.1144 70.5176
20.2957 64.4996
20.477 55.9225
20.6586 51.1949
20.84 50.089
21.0215 49.8504
21.203 51.953
21.3846 50.5438
21.5662 50.142
21.7479 54.1134
21.9297 65.4814
22.1115 56.9532
22.2933 51.5999
22.4753 50.2698
22.6572 50.1834
22.8393 53.157
23.0214 58.7899
23.2037 50.1334
23.3859 51.1895
23.5682 57.2324
23.7505 50.1032
23.9329 46.3994
24.1154 45.1721
24.2979 44.5875
24.4805 44.04
24.6631 43.9116
24.8458 43.3738
25.0286 43.8915
25.2114 45.6048
25.3943 45.6254
25.5773 42.1055
25.7605 41.4132
25.9436 41.9781
26.1268 42.7326
26.31 41.2721
26.4933 41.844
26.6767 43.0386
26.8601 41.4072
27.0437 39.8894
27.2272 39.5601
27.4109 39.4533
27.5946 39.4617
27.7784 38.8171
27.9623 39.279
28.1462 39.8342
28.3304 38.2423
28.5145 36.937
28.6987 36.4946
28.8829 36.304
29.0673 35.6508
29.2517 35.2352
29.4361 34.968
29.6207 34.0526
29.8053 33.9124
29.99 33.5109
30.1748 33.209
30.3597 33.0688
30.5447 33.0091
30.7297 33.0023
30.915 32.4359
31.1002 31.8938
31.2855 31.6972
31.4708 31.6183
31.6563 31.082
31.8418 30.8184
32.0275 30.6114
32.2132 30.1465
32.399 29.6322
32.5848 29.3243
32.7708 28.8188
32.9569 28.792
33.143 28.5243
33.3293 28.1309
33.5158 27.7096
33.7022 27.212
33.8887 26.9637
34.0753 26.6936
34.262 26.2823
34.4488 25.9915
34.6357 25.6661
34.8227 25.2907
35.0098 25.1693
35.1969 24.8546
35.3842 24.6057
35.5716 24.4236
35.759 24.0798
35.9468 23.7734
36.1345 23.4644
36.3222 23.224
36.5101 23.0086
36.6981 22.6744
36.8861 22.4279
37.0743 22.0865
37.2626 21.8589
37.451 21.5632
37.6395 21.3152
37.8281 21.0665
38.0168 20.6887
38.2056 20.5094
38.3945 20.2767
38.5837 19.9399
38.7728 19.7386
38.9621 19.4296
39.1514 19.1874
39.3409 18.881
39.5304 18.6875
39.7201 18.5402
39.9099 18.3612
40.0999 18.0396
40.2899 17.8276
40.48 17.6213
40.6703 17.3518
40.8607 17.1365
41.0512 16.8959
41.242 16.6719
41.4327 16.4427
41.6236 16.2474
41.8146 16.0589
42.0057 15.868
42.1969 15.6013
42.3882 15.3948
42.5797 15.1982
42.7713 15.0102
42.963 14.7879
43.1549 14.5839
43.3468 14.4216
43.5389 14.1468
43.7312 13.9751
43.9237 13.7627
44.1162 13.576
44.3088 13.431
44.5016 13.2171
44.6945 13.03
44.8875 12.8622
45.0806 12.661
45.2739 12.501
45.4673 12.3414
45.6609 12.1475
45.8546 12.0068
46.0484 11.8834
46.2424 11.6429
46.4365 11.4722
46.631 11.3119
46.8254 11.1203
47.0199 10.968
47.2146 10.8015
47.4095 10.6771
47.6044 10.496
47.7996 10.3312
47.9948 10.2041
48.1902 10.0721
48.3858 9.88839
48.5815 9.77857
48.7774 9.66287
48.9734 9.47007
49.1696 9.3536
49.3661 9.18641
49.5626 9.02554
49.7592 8.93809
49.956 8.8188
50.153 8.63916
50.3501 8.52712
50.5474 8.39178
50.7448 8.27312
50.9424 8.16545
51.1402 8.01978
51.3381 7.84161
51.5362 7.74691
51.7344 7.61516
51.9328 7.48643
52.1316 7.30572
52.3304 7.25293
52.5293 7.13553
52.7284 7.01056
52.9276 6.87269
53.1271 6.76372
53.3267 6.63677
53.5265 6.55285
53.7264 6.44567
53.9266 6.3316
54.1269 6.1974
54.3274 6.11107
54.528 5.96703
54.7289 5.77238
54.9301 5.63399
55.1314 5.47632
55.3328 5.25759
55.5344 5.03784
55.7361 4.96623