Folder: NiFe_MOF_catalyst_paper/XRD (part 163)

File: Ni3Fe_FD0884.xy
TT I
1.27165 7.58024
1.45013 6.13729
1.62863 4.81884
1.80712 5.01085
1.98562 4.97652
2.16411 5.11827
2.34263 5.26534
2.52115 7.2364
2.69965 8.07079
2.87818 9.07658
3.05672 10.98
3.23527 15.1818
3.4138 19.1616
3.59237 24.3676
3.77094 26.4955
3.9495 29.4868
4.12809 34.9963
4.30669 271.789
4.4853 70.4258
4.6639 54.6917
4.84253 66.0721
5.02118 83.4302
5.19981 286.113
5.37848 181.551
5.55716 100.358
5.73586 90.1825
5.91455 90.2863
6.09328 4251.13
6.27201 82.1065
6.45075 66.4289
6.62952 62.3899
6.8083 58.2121
6.98711 55.5391
7.16591 54.818
7.34475 102.968
7.5236 54.5711
7.70247 55.3101
7.88135 57.056
8.06026 61.2881
8.23919 68.3665
8.41812 83.5101
8.59709 1073.07
8.77609 97.2629
8.9551 92.2303
9.13412 80.3314
9.31318 81.2558
9.49226 83.3515
9.67134 99.1449
9.85047 97.7604
10.0296 288.049
10.2088 424.384
10.388 102.453
10.5672 504.467
10.7465 85.1356
10.9257 77.5923
11.105 70.7339
11.2844 70.4495
11.4637 63.8865
11.6431 62.5255
11.8225 61.3524
12.002 62.0601
12.1814 148.223
12.3609 71.2076
12.5405 63.4584
12.72 70.2856
12.8996 69.6152
13.0792 76.8031
13.2589 219.145
13.4386 125.385
13.6183 237.432
13.7981 96.8422
13.9779 74.6479
14.1577 71.5115
14.3376 71.0517
14.5175 67.5893
14.6974 69.2642
14.8774 103.276
15.0574 150.234
15.2374 70.6674
15.4175 65.3505
15.5976 64.4883
15.7778 89.0062
15.958 158.92
16.1382 62.2518
16.3185 57.8789
16.4988 54.6028
16.6792 53.6544
16.8596 54.4554
17.04 54.6534
17.2205 64.4586
17.401 70.2157
17.5815 58.286
17.7622 60.2911
17.9428 70.5647
18.1237 137.889
18.3044 88.1823
18.4852 76.8742
18.666 59.3362
18.8469 57.1692
19.0278 56.0723
19.2088 58.1811
19.3898 76.5046
19.5709 53.3963
19.752 52.4096
19.9332 54.9874
20.1144 69.1162
20.2957 63.2163
20.477 53.0763
20.6586 48.8552
20.84 48.0009
21.0215 47.8715
21.203 50.0738
21.3846 48.3032
21.5662 47.8055
21.7479 51.3272
21.9297 64.0364
22.1115 55.415
22.2933 49.2252
22.4753 48.2616
22.6572 47.989
22.8393 50.7198
23.0214 56.8185
23.2037 47.989
23.3859 48.6644
23.5682 56.2889
23.7505 47.7487
23.9329 44.6188
24.1154 43.5901
24.2979 42.8942
24.4805 42.3924
24.6631 42.164
24.8458 41.6777
25.0286 42.1711
25.2114 43.9278
25.3943 44.0786
25.5773 40.3112
25.7605 39.9408
25.9436 40.256
26.1268 41.0945
26.31 39.5685
26.4933 40.1397
26.6767 41.6736
26.8601 39.8317
27.0437 38.4055
27.2272 37.9408
27.4109 37.86
27.5946 37.8337
27.7784 37.2662
27.9623 37.7274
28.1462 38.3029
28.3304 36.6498
28.5145 35.52
28.6987 35.138
28.8829 34.9739
29.0673 34.1422
29.2517 33.7992
29.4361 33.7587
29.6207 32.7198
29.8053 32.4929
29.99 32.0116
30.1748 32.0268
30.3597 31.8878
30.5447 31.7127
30.7297 31.7446
30.915 31.2111
31.1002 30.7303
31.2855 30.4029
31.4708 30.3827
31.6563 29.8781
31.8418 29.7515
32.0275 29.434
32.2132 28.9764
32.399 28.5582
32.5848 28.0955
32.7708 27.7886
32.9569 27.6432
33.143 27.4348
33.3293 27.0602
33.5158 26.6434
33.7022 26.2246
33.8887 26.0128
34.0753 25.6692
34.262 25.2953
34.4488 24.9539
34.6357 24.644
34.8227 24.3862
35.0098 24.1422
35.1969 23.933
35.3842 23.6683
35.5716 23.4428
35.759 23.199
35.9468 22.8485
36.1345 22.6004
36.3222 22.4026
36.5101 22.1859
36.6981 21.8655
36.8861 21.5427
37.0743 21.2356
37.2626 21.0239
37.451 20.702
37.6395 20.5212
37.8281 20.1875
38.0168 19.928
38.2056 19.7395
38.3945 19.4259
38.5837 19.2282
38.7728 18.9938
38.9621 18.7023
39.1514 18.4845
39.3409 18.2045
39.5304 17.9991
39.7201 17.8851
39.9099 17.5992
40.0999 17.348
40.2899 17.1115
40.48 16.8737
40.6703 16.7056
40.8607 16.5135
41.0512 16.3335
41.242 16.0768
41.4327 15.8468
41.6236 15.6349
41.8146 15.4842
42.0057 15.2202
42.1969 15.0281
42.3882 14.8772
42.5797 14.6213
42.7713 14.4988
42.963 14.229
43.1549 14.0736
43.3468 13.8834
43.5389 13.6617
43.7312 13.5113
43.9237 13.2874
44.1162 13.1142
44.3088 12.9312
44.5016 12.7968
44.6945 12.5699
44.8875 12.4166
45.0806 12.225
45.2739 12.0405
45.4673 11.8902
45.6609 11.7183
45.8546 11.5471
46.0484 11.3902
46.2424 11.2305
46.4365 11.0804
46.631 10.9036
46.8254 10.6993
47.0199 10.5546
47.2146 10.4494
47.4095 10.2938
47.6044 10.1109
47.7996 9.93305
47.9948 9.78666
48.1902 9.68554
48.3858 9.5733
48.5815 9.39095
48.7774 9.27462
48.9734 9.12706
49.1696 8.99713
49.3661 8.84868
49.5626 8.68583
49.7592 8.62168
49.956 8.44841
50.153 8.32965
50.3501 8.209
50.5474 8.06179
50.7448 7.99414
50.9424 7.82786
51.1402 7.72707
51.3381 7.56184
51.5362 7.45248
51.7344 7.33089
51.9328 7.24502
52.1316 7.05401
52.3304 6.98519
52.5293 6.92109
52.7284 6.80686
52.9276 6.64664
53.1271 6.5666
53.3267 6.42776
53.5265 6.32886
53.7264 6.19033
53.9266 6.08218
54.1269 5.95573
54.3274 5.89583
54.528 5.71466
54.7289 5.53769
54.9301 5.4094
55.1314 5.26551
55.3328 5.04826
55.5344 4.967
55.7361 4.7811

File: Ni3Fe_FD0886.xy
TT I
1.27165 7.23943
1.45013 5.75959
1.62863 5.05101
1.80712 4.95458
1.98562 5.0857
2.16411 5.10098
2.34263 5.5797
2.52115 7.16368
2.69965 8.14644
2.87818 9.31381
3.05672 11.1904
3.23527 15.3992
3.4138 18.9129
3.59237 24.2528
3.77094 26.2217
3.9495 29.7692
4.12809 34.9776
4.30669 273.993
4.4853 70.89
4.6639 54.505
4.84253 66.2905
5.02118 84.1831
5.19981 287.532
5.37848 181.065
5.55716 100.007
5.73586 90.11
5.91455 90.5227
6.09328 4261.8
6.27201 82.1358
6.45075 66.9001
6.62952 62.4196
6.8083 58.4324
6.98711 55.4688
7.16591 55.1488
7.34475 102.279
7.5236 54.3363
7.70247 55.5751
7.88135 57.2427
8.06026 61.5971
8.23919 68.5192
8.41812 83.9106
8.59709 1078.19
8.77609 97.7581
8.9551 92.327
9.13412 80.7759
9.31318 81.1638
9.49226 83.1898
9.67134 99.3916
9.85047 97.8433
10.0296 290.251
10.2088 412.957
10.388 103.2
10.5672 507.141
10.7465 85.3785
10.9257 77.9019
11.105 71.1546
11.2844 70.4793
11.4637 64.2783
11.6431 63.0055
11.8225 61.7266
12.002 62.6165
12.1814 149.156
12.3609 71.4609
12.5405 63.4729
12.72 70.4374
12.8996 69.712
13.0792 77.1572
13.2589 219.777
13.4386 124.066
13.6183 238.416
13.7981 96.4004
13.9779 74.573
14.1577 71.5386
14.3376 71.2448
14.5175 67.9828
14.6974 69.4319
14.8774 103.572
15.0574 150.36
15.2374 70.9261
15.4175 65.6178
15.5976 64.6163
15.7778 89.0388
15.958 157.167
16.1382 62.5519
16.3185 58.3072
16.4988 54.7494
16.6792 53.7726
16.8596 54.684
17.04 54.9545
17.2205 64.5901
17.401 70.0555
17.5815 58.1004
17.7622 60.0301
17.9428 70.4478
18.1237 137.62
18.3044 87.8303
18.4852 76.8863
18.666 59.559
18.8469 57.2368
19.0278 56.078
19.2088 58.3957
19.3898 76.5003
19.5709 53.4
19.752 52.5205
19.9332 55.0985
20.1144 69.2129
20.2957 63.1797
20.477 53.1543
20.6586 48.9449
20.84 48.0659
21.0215 47.9846
21.203 50.0571
21.3846 48.3277
21.5662 48.0493
21.7479 51.3919
21.9297 64.0437
22.1115 55.5856
22.2933 49.1433
22.4753 48.375
22.6572 47.976
22.8393 50.8699
23.0214 56.8798
23.2037 48.1608
23.3859 48.6553
23.5682 56.3329
23.7505 47.8815
23.9329 44.7445
24.1154 43.5751
24.2979 42.8672
24.4805 42.2925
24.6631 42.0859
24.8458 41.5739
25.0286 42.2012
25.2114 44.1301
25.3943 44.05
25.5773 40.385
25.7605 40.1068
25.9436 40.1903
26.1268 41.2032
26.31 39.4455
26.4933 40.0382
26.6767 41.5726
26.8601 39.918
27.0437 38.4137
27.2272 37.8671
27.4109 37.8524
27.5946 37.8217
27.7784 37.2871
27.9623 37.8257
28.1462 38.32
28.3304 36.8378
28.5145 35.3661
28.6987 35.1195
28.8829 34.9123
29.0673 34.298
29.2517 33.8253
29.4361 33.807
29.6207 32.643
29.8053 32.4773
29.99 32.176
30.1748 31.9324
30.3597 31.8389
30.5447 31.7516
30.7297 31.819
30.915 31.2338
31.1002 30.7156
31.2855 30.4246
31.4708 30.4463
31.6563 29.8701
31.8418 29.8062
32.0275 29.4987
32.2132 28.9938
32.399 28.5338
32.5848 28.0724
32.7708 27.7864
32.9569 27.7261
33.143 27.5007
33.3293 27.0025
33.5158 26.701
33.7022 26.3743
33.8887 26.0255
34.0753 25.656
34.262 25.3493
34.4488 25.0332
34.6357 24.7257
34.8227 24.3659
35.0098 24.2694
35.1969 23.8815
35.3842 23.6632
35.5716 23.4895
35.759 23.2215
35.9468 22.7914
36.1345 22.6137
36.3222 22.4214
36.5101 22.0461
36.6981 21.8098
36.8861 21.5528
37.0743 21.2183
37.2626 21.0452
37.451 20.7618
37.6395 20.5843
37.8281 20.1815
38.0168 20.0195
38.2056 19.7164
38.3945 19.4608
38.5837 19.271
38.7728 19.0005
38.9621 18.7368
39.1514 18.4347
39.3409 18.2627
39.5304 17.9966
39.7201 17.8808
39.9099 17.647
40.0999 17.4124
40.2899 17.1155
40.48 16.912
40.6703 16.7477
40.8607 16.5643
41.0512 16.3138
41.242 16.0407
41.4327 15.8847
41.6236 15.6515
41.8146 15.4891
42.0057 15.2438
42.1969 15.0434
42.3882 14.86
42.5797 14.6849
42.7713 14.4513
42.963 14.2525
43.1549 14.0676
43.3468 13.8785
43.5389 13.6605
43.7312 13.4918
43.9237 13.3482
44.1162 13.1088
44.3088 12.9305
44.5016 12.7564
44.6945 12.5627
44.8875 12.4088
45.0806 12.2591
45.2739 12.0752
45.4673 11.8961
45.6609 11.6905
45.8546 11.538
46.0484 11.4108
46.2424 11.1969
46.4365 11.093
46.631 10.9187
46.8254 10.7287
47.0199 10.6056
47.2146 10.4068
47.4095 10.2478
47.6044 10.0819
47.7996 9.97968
47.9948 9.8048
48.1902 9.68693
48.3858 9.58418
48.5815 9.41982
48.7774 9.28382
48.9734 9.13603
49.1696 8.9955
49.3661 8.89597
49.5626 8.71255
49.7592 8.60768
49.956 8.48301
50.153 8.3886
50.3501 8.19504
50.5474 8.11239
50.7448 7.95866
50.9424 7.82328
51.1402 7.72675
51.3381 7.63242
51.5362 7.48802
51.7344 7.35864
51.9328 7.21346
52.1316 7.10876
52.3304 7.04635
52.5293 6.87176
52.7284 6.76874
52.9276 6.67522
53.1271 6.55199
53.3267 6.44657
53.5265 6.28519
53.7264 6.22884
53.9266 6.07955
54.1269 6.00429
54.3274 5.8349
54.528 5.75041
54.7289 5.61005
54.9301 5.37336
55.1314 5.32914
55.3328 5.13673
55.5344 4.88953
55.7361 4.7809

File: Ni3Fe_FD0887.xy
TT I
1.27165 7.48387
1.45013 6.03972
1.62863 5.39471
1.80712 4.03037
1.98562 5.13721
2.16411 5.07346
2.34263 5.69005
2.52115 7.58475
2.69965 8.51867
2.87818 9.23346
3.05672 10.855
3.23527 15.3266
3.4138 19.1891
3.59237 24.2723
3.77094 26.1757
3.9495 29.8396
4.12809 35.2467
4.30669 275.923
4.4853 71.0002
4.6639 54.8924
4.84253 66.5399
5.02118 84.6185
5.19981 285.916
5.37848 180.823
5.55716 100.181
5.73586 90.1537
5.91455 90.3733
6.09328 4273.91
6.27201 82.3782
6.45075 67.0874
6.62952 62.5704
6.8083 58.3116
6.98711 55.4767
7.16591 55.1188
7.34475 102.586
7.5236 54.5658
7.70247 55.8546
7.88135 57.5284
8.06026 61.2058
8.23919 68.8152
8.41812 83.8947
8.59709 1077.38
8.77609 97.2506
8.9551 92.2459
9.13412 80.6516
9.31318 80.9559
9.49226 82.9007
9.67134 99.6998
9.85047 97.7153
10.0296 289.474
10.2088 411.626
10.388 103.137
10.5672 507.55
10.7465 85.307
10.9257 77.9336
11.105 71.3424
11.2844 70.6896
11.4637 64.2652
11.6431 63.2267
11.8225 61.811
12.002 62.563
12.1814 148.979
12.3609 71.6607
12.5405 63.6709
12.72 70.25
12.8996 69.5102
13.0792 77.1969
13.2589 219.269
13.4386 123.974
13.6183 237.537
13.7981 96.0207
13.9779 74.7733
14.1577 71.631
14.3376 71.1855
14.5175 67.5515
14.6974 69.2901
14.8774 103.789
15.0574 150.485
15.2374 70.9297
15.4175 65.4371
15.5976 64.5418
15.7778 88.9175
15.958 156.798
16.1382 62.3693
16.3185 58.2388
16.4988 54.7518
16.6792 53.9109
16.8596 54.5736
17.04 54.8088
17.2205 64.7644
17.401 69.7308
17.5815 58.418
17.7622 60.3137
17.9428 70.6829
18.1237 137.509
18.3044 87.8464
18.4852 76.6032
18.666 59.5053
18.8469 57.2001
19.0278 56.0858
19.2088 58.3233
19.3898 76.4576
19.5709 53.4213
19.752 52.4337
19.9332 55.151
20.1144 68.9817
20.2957 63.3227
20.477 53.171
20.6586 48.9433
20.84 48.045
21.0215 47.7326
21.203 50.049
21.3846 48.1648
21.5662 47.932
21.7479 51.3104
21.9297 64.0763
22.1115 55.393
22.2933 49.0895
22.4753 48.2939
22.6572 48.0529
22.8393 50.7339
23.0214 56.8418
23.2037 48.0498
23.3859 48.8069
23.5682 56.123
23.7505 47.7119
23.9329 44.6275
24.1154 43.5874
24.2979 42.7992
24.4805 42.4757
24.6631 42.2612
24.8458 41.5818
25.0286 42.1473
25.2114 43.9632
25.3943 44.1356
25.5773 40.3215
25.7605 39.8479
25.9436 40.1619
26.1268 41.266
26.31 39.5559
26.4933 40.0169
26.6767 41.5933
26.8601 40.0396
27.0437 38.4444
27.2272 37.8995
27.4109 37.7558
27.5946 37.8967
27.7784 37.3531
27.9623 37.7834
28.1462 38.2581
28.3304 36.6924
28.5145 35.5251
28.6987 35.3249
28.8829 34.9763
29.0673 34.1262
29.2517 33.838
29.4361 33.6903
29.6207 32.6686
29.8053 32.4629
29.99 32.2287
30.1748 32.0467
30.3597 31.8442
30.5447 31.7303
30.7297 31.7624
30.915 31.2324
31.1002 30.6775
31.2855 30.3974
31.4708 30.3664
31.6563 29.9204
31.8418 29.631
32.0275 29.4705
32.2132 29.0593
32.399 28.5789
32.5848 28.0285
32.7708 27.8684
32.9569 27.6677
33.143 27.4244
33.3293 26.984
33.5158 26.7429
33.7022 26.2786
33.8887 26.0425
34.0753 25.6903
34.262 25.3552
34.4488 24.897
34.6357 24.64
34.8227 24.3979
35.0098 24.1914
35.1969 23.934
35.3842 23.6805
35.5716 23.4302
35.759 23.2116
35.9468 22.8364
36.1345 22.6761
36.3222 22.4177
36.5101 22.0559
36.6981 21.8376
36.8861 21.4889
37.0743 21.2121
37.2626 20.9855
37.451 20.7634
37.6395 20.6349
37.8281 20.2515
38.0168 19.946
38.2056 19.6788
38.3945 19.4611
38.5837 19.2066
38.7728 19.0181
38.9621 18.7207
39.1514 18.4711
39.3409 18.2618
39.5304 18.0125
39.7201 17.8229
39.9099 17.5651
40.0999 17.3824
40.2899 17.127
40.48 16.9234
40.6703 16.6839
40.8607 16.4755
41.0512 16.3254
41.242 16.082
41.4327 15.9027
41.6236 15.6374
41.8146 15.4939
42.0057 15.2294
42.1969 15.0469
42.3882 14.9351
42.5797 14.6615
42.7713 14.4288
42.963 14.2795
43.1549 14.0394
43.3468 13.8374
43.5389 13.7149
43.7312 13.4548
43.9237 13.3214
44.1162 13.1541
44.3088 12.8866
44.5016 12.7227
44.6945 12.5927
44.8875 12.3913
45.0806 12.2216
45.2739 12.0352
45.4673 11.9386
45.6609 11.6846
45.8546 11.5422
46.0484 11.4114
46.2424 11.2218
46.4365 11.0481
46.631 10.9036
46.8254 10.7431
47.0199 10.601
47.2146 10.4179
47.4095 10.2776
47.6044 10.0904
47.7996 9.9383
47.9948 9.85288
48.1902 9.66993
48.3858 9.55287
48.5815 9.4247
48.7774 9.2814
48.9734 9.13432
49.1696 9.0016
49.3661 8.86333
49.5626 8.70004
49.7592 8.56786
49.956 8.52857
50.153 8.36528
50.3501 8.19554
50.5474 8.0766
50.7448 7.95288
50.9424 7.87435
51.1402 7.69173
51.3381 7.56778
51.5362 7.46832
51.7344 7.3547
51.9328 7.18414
52.1316 7.14027
52.3304 6.97848
52.5293 6.89572
52.7284 6.75803
52.9276 6.63105
53.1271 6.53422
53.3267 6.41949
53.5265 6.32186
53.7264 6.25789
53.9266 6.11474
54.1269 6.01376
54.3274 5.87327
54.528 5.70844
54.7289 5.54194
54.9301 5.39275
55.1314 5.29275
55.3328 5.11431
55.5344 4.88896
55.7361 4.73875

File: Ni3Fe_FD0888.xy
TT I
1.27165 6.87042
1.45013 6.51213
1.62863 5.1865
1.80712 4.4771
1.98562 4.14799
2.16411 4.83475
2.34263 5.85721
2.52115 6.97951
2.69965 7.75713
2.87818 8.81707
3.05672 11.2909
3.23527 14.9978
3.4138 18.6418
3.59237 24.2943
3.77094 26.2959
3.9495 29.6931
4.12809 34.4014
4.30669 284.015
4.4853 71.7025
4.6639 54.6924
4.84253 65.7653
5.02118 84.0219
5.19981 282.526
5.37848 182.452
5.55716 99.5189
5.73586 89.6464
5.91455 89.9152
6.09328 4202.53
6.27201 81.6451
6.45075 66.1956
6.62952 62.2672
6.8083 58.4666
6.98711 55.0286
7.16591 55.2568
7.34475 105.297
7.5236 54.302
7.70247 55.5351
7.88135 57.0813
8.06026 61.2501
8.23919 68.3093
8.41812 83.0694
8.59709 1073.56
8.77609 97.527
8.9551 92.2487
9.13412 79.9773
9.31318 80.8571
9.49226 82.724
9.67134 99.4132
9.85047 97.6726
10.0296 286.056
10.2088 435.476
10.388 102.931
10.5672 501.479
10.7465 85.0782
10.9257 77.1389
11.105 70.8354
11.2844 70.4305
11.4637 63.7689
11.6431 62.5996
11.8225 61.3713
12.002 62.2775
12.1814 149.335
12.3609 71.5617
12.5405 63.6563
12.72 70.1273
12.8996 69.4981
13.0792 76.6362
13.2589 217.271
13.4386 126.101
13.6183 234.561
13.7981 97.2037
13.9779 74.4548
14.1577 71.3726
14.3376 71.1547
14.5175 67.779
14.6974 69.1174
14.8774 102.887
15.0574 153.245
15.2374 70.6858
15.4175 65.2919
15.5976 64.4184
15.7778 88.6447
15.958 160.509
16.1382 62.454
16.3185 57.9786
16.4988 54.4539
16.6792 53.6306
16.8596 54.3984
17.04 54.6922
17.2205 64.2199
17.401 70.3534
17.5815 58.1279
17.7622 60.2061
17.9428 70.4015
18.1237 138.0
18.3044 87.7468
18.4852 77.2012
18.666 59.3233
18.8469 57.013
19.0278 56.0712
19.2088 58.1648
19.3898 76.5992
19.5709 53.4233
19.752 52.3983
19.9332 54.9349
20.1144 69.3851
20.2957 63.0096
20.477 53.2843
20.6586 48.9
20.84 48.129
21.0215 47.7653
21.203 50.0858
21.3846 48.1598
21.5662 47.8779
21.7479 51.2047
21.9297 64.1535
22.1115 55.4538
22.2933 49.1913
22.4753 48.304
22.6572 47.7911
22.8393 50.6325
23.0214 57.0972
23.2037 47.9645
23.3859 48.5959
23.5682 56.2501
23.7505 47.8769
23.9329 44.5136
24.1154 43.4132
24.2979 42.7579
24.4805 42.3484
24.6631 42.2262
24.8458 41.7054
25.0286 42.1502
25.2114 44.0798
25.3943 44.0444
25.5773 40.3353
25.7605 39.8275
25.9436 40.2041
26.1268 41.1139
26.31 39.4588
26.4933 40.2068
26.6767 41.7825
26.8601 39.884
27.0437 38.3055
27.2272 37.8337
27.4109 37.8273
27.5946 37.8601
27.7784 37.2329
27.9623 37.9218
28.1462 38.2977
28.3304 36.7241
28.5145 35.4447
28.6987 35.0697
28.8829 34.9406
29.0673 34.1583
29.2517 33.8923
29.4361 33.6331
29.6207 32.6015
29.8053 32.4869
29.99 32.0249
30.1748 32.01
30.3597 31.6914
30.5447 31.7377
30.7297 31.7909
30.915 31.1152
31.1002 30.6217
31.2855 30.4488
31.4708 30.398
31.6563 29.9181
31.8418 29.6549
32.0275 29.5719
32.2132 29.0491
32.399 28.4472
32.5848 28.0611
32.7708 27.7834
32.9569 27.6068
33.143 27.4474
33.3293 27.0508
33.5158 26.6714
33.7022 26.2361
33.8887 25.9976
34.0753 25.5864
34.262 25.3351
34.4488 24.9601
34.6357 24.6396
34.8227 24.3782
35.0098 24.1335
35.1969 23.88
35.3842 23.6861
35.5716 23.5158
35.759 23.1785
35.9468 22.8111
36.1345 22.6497
36.3222 22.3653
36.5101 22.1461
36.6981 21.7611
36.8861 21.5336
37.0743 21.2124
37.2626 21.0371
37.451 20.7199
37.6395 20.5258
37.8281 20.2263
38.0168 19.8995
38.2056 19.6906
38.3945 19.4407
38.5837 19.2008
38.7728 19.0572
38.9621 18.7594
39.1514 18.4997
39.3409 18.2368
39.5304 17.9882
39.7201 17.833
39.9099 17.6265
40.0999 17.3962
40.2899 17.1122
40.48 16.8833
40.6703 16.6965
40.8607 16.5248
41.0512 16.3109
41.242 16.0944
41.4327 15.8414
41.6236 15.6293
41.8146 15.4936
42.0057 15.263
42.1969 15.0185
42.3882 14.8433
42.5797 14.6355
42.7713 14.447
42.963 14.2378
43.1549 14.1091
43.3468 13.8432
43.5389 13.6709
43.7312 13.4775
43.9237 13.2956
44.1162 13.0588
44.3088 12.9106
44.5016 12.747
44.6945 12.5673
44.8875 12.3808
45.0806 12.2053
45.2739 12.0757
45.4673 11.9371
45.6609 11.7046
45.8546 11.527
46.0484 11.4163
46.2424 11.2051
46.4365 11.084
46.631 10.8798
46.8254 10.684
47.0199 10.5629
47.2146 10.4445
47.4095 10.2295
47.6044 10.135
47.7996 9.97512
47.9948 9.78398
48.1902 9.70247
48.3858 9.50916
48.5815 9.40923
48.7774 9.30769
48.9734 9.11768
49.1696 8.9659
49.3661 8.84984
49.5626 8.72823
49.7592 8.57735
49.956 8.45429
50.153 8.33704
50.3501 8.18744
50.5474 8.10656
50.7448 7.98235
50.9424 7.82296
51.1402 7.69948
51.3381 7.57362
51.5362 7.45531
51.7344 7.3699
51.9328 7.24623
52.1316 7.09239
52.3304 6.97623
52.5293 6.86839
52.7284 6.73264
52.9276 6.63676
53.1271 6.56605
53.3267 6.44984
53.5265 6.30196
53.7264 6.17744
53.9266 6.06282
54.1269 5.96306
54.3274 5.89172
54.528 5.75622
54.7289 5.57583
54.9301 5.38845
55.1314 5.28874
55.3328 5.07437
55.5344 4.89329
55.7361 4.72695

File: Ni3Fe_FD0889.xy
TT I
1.27165 7.2675
1.45013 5.96037
1.62863 5.59911
1.80712 4.70814
1.98562 4.63538
2.16411 4.92345
2.34263 5.59155
2.52115 7.58621
2.69965 7.92366
2.87818 8.68684
3.05672 11.1338
3.23527 14.7677
3.4138 19.0881
3.59237 24.1511
3.77094 26.1631
3.9495 29.7677
4.12809 34.7271
4.30669 255.11
4.4853 68.872
4.6639 54.1953
4.84253 65.6286
5.02118 84.9137
5.19981 283.403
5.37848 176.848
5.55716 99.4851
5.73586 89.9737
5.91455 90.4061
6.09328 4353.24
6.27201 81.1464
6.45075 66.5522
6.62952 62.2823
6.8083 57.6397
6.98711 55.2457
7.16591 54.6428
7.34475 98.3536
7.5236 54.3748
7.70247 55.8115
7.88135 56.8133
8.06026 61.1708
8.23919 67.9554
8.41812 83.5222
8.59709 1103.57
8.77609 96.8678
8.9551 91.0347
9.13412 80.3005
9.31318 81.0343
9.49226 82.9092
9.67134 98.3412
9.85047 97.79
10.0296 290.497
10.2088 395.906
10.388 102.336
10.5672 521.178
10.7465 84.8366
10.9257 77.5606
11.105 70.6574
11.2844 70.0251
11.4637 64.221
11.6431 62.5109
11.8225 61.3745
12.002 62.1218
12.1814 153.059
12.3609 70.2279
12.5405 63.4782
12.72 69.7168
12.8996 69.4751
13.0792 77.0001
13.2589 222.279
13.4386 121.895
13.6183 239.646
13.7981 94.3637
13.9779 74.4493
14.1577 71.2815
14.3376 70.8594
14.5175 67.461
14.6974 68.9117
14.8774 103.838
15.0574 146.322
15.2374 70.2189
15.4175 65.0968
15.5976 64.5266
15.7778 89.5074
15.958 156.455
16.1382 62.0764
16.3185 57.8281
16.4988 54.5611
16.6792 53.6274
16.8596 54.439
17.04 54.6631
17.2205 64.5779
17.401 68.9758
17.5815 58.1136
17.7622 60.0591
17.9428 70.2411
18.1237 140.443
18.3044 88.527
18.4852 75.6714
18.666 59.4556
18.8469 57.1053
19.0278 56.0144
19.2088 58.2847
19.3898 76.8349
19.5709 53.2976
19.752 52.2927
19.9332 54.8342
20.1144 69.2092
20.2957 63.509
20.477 52.8803
20.6586 48.9006
20.84 47.9186
21.0215 47.6015
21.203 50.2622
21.3846 48.0029
21.5662 47.8567
21.7479 51.137
21.9297 64.4119
22.1115 55.4218
22.2933 48.9911
22.4753 48.1441
22.6572 47.8843
22.8393 50.8862
23.0214 56.7514
23.2037 47.874
23.3859 48.7841
23.5682 56.7737
23.7505 47.6563
23.9329 44.6668
24.1154 43.5914
24.2979 42.8527
24.4805 42.3659
24.6631 42.2347
24.8458 41.5146
25.0286 42.1375
25.2114 44.0593
25.3943 43.9394
25.5773 40.1785
25.7605 39.6647
25.9436 40.0892
26.1268 41.1985
26.31 39.4404
26.4933 40.1033
26.6767 41.5253
26.8601 39.9123
27.0437 38.0688
27.2272 37.9791
27.4109 37.79
27.5946 37.8144
27.7784 37.3445
27.9623 37.815
28.1462 38.0934
28.3304 36.5418
28.5145 35.3455
28.6987 35.1833
28.8829 34.9497
29.0673 34.1977
29.2517 33.7987
29.4361 33.6977
29.6207 32.6679
29.8053 32.4458
29.99 32.0931
30.1748 31.9485
30.3597 31.7555
30.5447 31.7118
30.7297 31.7654
30.915 31.1167
31.1002 30.728
31.2855 30.3299
31.4708 30.3842
31.6563 29.8911
31.8418 29.7301
32.0275 29.4723
32.2132 28.8648
32.399 28.54
32.5848 28.1072
32.7708 27.6453
32.9569 27.6368
33.143 27.4429
33.3293 26.9683
33.5158 26.6108
33.7022 26.1478
33.8887 25.9411
34.0753 25.6727
34.262 25.2813
34.4488 24.8562
34.6357 24.5526
34.8227 24.2976
35.0098 24.1233
35.1969 23.7924
35.3842 23.6207
35.5716 23.4333
35.759 23.1
35.9468 22.7492
36.1345 22.6039
36.3222 22.2734
36.5101 22.0889
36.6981 21.7583
36.8861 21.4333
37.0743 21.2115
37.2626 20.9777
37.451 20.6544
37.6395 20.5455
37.8281 20.2105
38.0168 19.9243
38.2056 19.6655
38.3945 19.3459
38.5837 19.1419
38.7728 18.9549
38.9621 18.72
39.1514 18.4284
39.3409 18.196
39.5304 18.0026
39.7201 17.7872
39.9099 17.5481
40.0999 17.3367
40.2899 17.1027
40.48 16.8655
40.6703 16.6401
40.8607 16.4903
41.0512 16.2636
41.242 16.0692
41.4327 15.8418
41.6236 15.6863
41.8146 15.4594
42.0057 15.1877
42.1969 15.0221
42.3882 14.8499
42.5797 14.565
42.7713 14.4154
42.963 14.2233
43.1549 14.0385
43.3468 13.8188
43.5389 13.6485
43.7312 13.4809
43.9237 13.2801
44.1162 13.0939
44.3088 12.9246
44.5016 12.6641
44.6945 12.5365
44.8875 12.3697
45.0806 12.221
45.2739 12.0346
45.4673 11.8828
45.6609 11.7117
45.8546 11.5897
46.0484 11.3456
46.2424 11.2329
46.4365 11.0494
46.631 10.8614
46.8254 10.7168
47.0199 10.5567
47.2146 10.435
47.4095 10.2207
47.6044 10.096
47.7996 9.97235
47.9948 9.8314
48.1902 9.68722
48.3858 9.54037
48.5815 9.42461
48.7774 9.2552
48.9734 9.11863
49.1696 8.99558
49.3661 8.84869
49.5626 8.66749
49.7592 8.57145
49.956 8.46386
50.153 8.32784
50.3501 8.1755
50.5474 8.05628
50.7448 7.96311
50.9424 7.80965
51.1402 7.72691
51.3381 7.56304
51.5362 7.4584
51.7344 7.36346
51.9328 7.19046
52.1316 7.06105
52.3304 6.99128
52.5293 6.84403
52.7284 6.72907
52.9276 6.62592
53.1271 6.54434
53.3267 6.39334
53.5265 6.32143
53.7264 6.19921
53.9266 6.08497
54.1269 5.97007
54.3274 5.87953
54.528 5.77032
54.7289 5.54155
54.9301 5.37839
55.1314 5.26236
55.3328 5.07764
55.5344 4.89351
55.7361 4.76281