Folder: NiFe_MOF_catalyst_paper/XRD (part 169)

File: Ni3Fe_FD0917.xy
TT I
1.27165 7.13217
1.45013 6.19288
1.62863 5.27178
1.80712 4.43024
1.98562 4.94988
2.16411 4.8079
2.34263 5.39837
2.52115 7.52043
2.69965 8.94619
2.87818 9.1626
3.05672 11.202
3.23527 14.9924
3.4138 18.4294
3.59237 22.8872
3.77094 26.065
3.9495 29.2928
4.12809 34.0643
4.30669 116.492
4.4853 55.0363
4.6639 55.0033
4.84253 67.3099
5.02118 85.5945
5.19981 357.938
5.37848 186.644
5.55716 100.608
5.73586 91.3831
5.91455 93.0853
6.09328 4629.53
6.27201 79.0463
6.45075 68.5434
6.62952 62.434
6.8083 58.2506
6.98711 54.6326
7.16591 54.7972
7.34475 69.3904
7.5236 53.6893
7.70247 55.9736
7.88135 56.6071
8.06026 61.7934
8.23919 68.3151
8.41812 82.7187
8.59709 1201.99
8.77609 95.4128
8.9551 88.5368
9.13412 81.8057
9.31318 83.1326
9.49226 83.4411
9.67134 94.1526
9.85047 99.9766
10.0296 327.293
10.2088 326.223
10.388 102.881
10.5672 542.404
10.7465 84.7262
10.9257 76.7723
11.105 70.3533
11.2844 67.4152
11.4637 63.8737
11.6431 62.3159
11.8225 61.49
12.002 63.2165
12.1814 158.672
12.3609 66.1614
12.5405 63.5329
12.72 67.3018
12.8996 70.3154
13.0792 78.678
13.2589 243.839
13.4386 114.545
13.6183 257.438
13.7981 91.8341
13.9779 74.3488
14.1577 70.7408
14.3376 68.9425
14.5175 67.6327
14.6974 69.277
14.8774 109.791
15.0574 138.007
15.2374 68.3799
15.4175 65.3779
15.5976 64.7911
15.7778 93.4559
15.958 147.177
16.1382 60.5324
16.3185 56.9545
16.4988 54.4678
16.6792 53.3946
16.8596 53.7041
17.04 54.876
17.2205 65.8727
17.401 67.6657
17.5815 58.1897
17.7622 60.2666
17.9428 72.1639
18.1237 140.073
18.3044 90.6899
18.4852 73.1764
18.666 59.3829
18.8469 56.9531
19.0278 55.8707
19.2088 58.1968
19.3898 75.0154
19.5709 53.1252
19.752 52.2328
19.9332 55.0871
20.1144 69.4513
20.2957 64.0421
20.477 52.0239
20.6586 48.7388
20.84 47.9328
21.0215 47.7375
21.203 50.2017
21.3846 47.91
21.5662 48.0932
21.7479 51.883
21.9297 64.1417
22.1115 55.6189
22.2933 48.5828
22.4753 47.8711
22.6572 48.0607
22.8393 51.1543
23.0214 56.0425
23.2037 48.053
23.3859 48.9017
23.5682 56.987
23.7505 47.1855
23.9329 44.5179
24.1154 43.2923
24.2979 42.6761
24.4805 42.1571
24.6631 41.9767
24.8458 41.4723
25.0286 42.1033
25.2114 44.072
25.3943 43.8905
25.5773 40.1985
25.7605 39.7912
25.9436 40.2125
26.1268 41.0529
26.31 39.415
26.4933 40.1753
26.6767 41.4404
26.8601 39.7441
27.0437 38.2765
27.2272 37.9473
27.4109 37.6405
27.5946 37.7596
27.7784 37.24
27.9623 37.8557
28.1462 38.103
28.3304 36.5589
28.5145 35.3688
28.6987 35.0359
28.8829 34.8111
29.0673 33.9901
29.2517 33.7572
29.4361 33.6389
29.6207 32.5816
29.8053 32.2005
29.99 31.9868
30.1748 31.9537
30.3597 31.7214
30.5447 31.6106
30.7297 31.7131
30.915 30.98
31.1002 30.5158
31.2855 30.4063
31.4708 30.3196
31.6563 29.7773
31.8418 29.6993
32.0275 29.4225
32.2132 28.8927
32.399 28.4268
32.5848 28.0386
32.7708 27.6841
32.9569 27.5223
33.143 27.3359
33.3293 26.8597
33.5158 26.5818
33.7022 26.1735
33.8887 25.8806
34.0753 25.4521
34.262 25.1964
34.4488 24.8848
34.6357 24.5907
34.8227 24.3111
35.0098 24.1323
35.1969 23.8338
35.3842 23.568
35.5716 23.3793
35.759 23.0086
35.9468 22.7872
36.1345 22.5127
36.3222 22.269
36.5101 22.072
36.6981 21.7572
36.8861 21.4356
37.0743 21.1322
37.2626 20.9493
37.451 20.595
37.6395 20.515
37.8281 20.159
38.0168 19.8465
38.2056 19.5797
38.3945 19.3618
38.5837 19.1384
38.7728 18.8631
38.9621 18.6668
39.1514 18.3664
39.3409 18.2334
39.5304 17.9598
39.7201 17.7631
39.9099 17.5023
40.0999 17.3112
40.2899 17.1182
40.48 16.809
40.6703 16.6772
40.8607 16.4431
41.0512 16.2388
41.242 15.9816
41.4327 15.7641
41.6236 15.6166
41.8146 15.4513
42.0057 15.1111
42.1969 14.92
42.3882 14.7474
42.5797 14.5817
42.7713 14.3878
42.963 14.2044
43.1549 14.0429
43.3468 13.8063
43.5389 13.6111
43.7312 13.3877
43.9237 13.1814
44.1162 13.0553
44.3088 12.8523
44.5016 12.7029
44.6945 12.5221
44.8875 12.3332
45.0806 12.1268
45.2739 11.97
45.4673 11.8136
45.6609 11.6292
45.8546 11.5199
46.0484 11.3084
46.2424 11.1856
46.4365 11.0527
46.631 10.8221
46.8254 10.7105
47.0199 10.5112
47.2146 10.4172
47.4095 10.2547
47.6044 10.0546
47.7996 9.94611
47.9948 9.77743
48.1902 9.65641
48.3858 9.51931
48.5815 9.3571
48.7774 9.26317
48.9734 9.11265
49.1696 8.98664
49.3661 8.81808
49.5626 8.67106
49.7592 8.54749
49.956 8.40754
50.153 8.3273
50.3501 8.16429
50.5474 8.02635
50.7448 7.91392
50.9424 7.78575
51.1402 7.70341
51.3381 7.5686
51.5362 7.43702
51.7344 7.28941
51.9328 7.16323
52.1316 7.06424
52.3304 6.9769
52.5293 6.84711
52.7284 6.71724
52.9276 6.5751
53.1271 6.52768
53.3267 6.41412
53.5265 6.27614
53.7264 6.16069
53.9266 6.08314
54.1269 5.95121
54.3274 5.83822
54.528 5.73762
54.7289 5.55273
54.9301 5.44184
55.1314 5.28352
55.3328 5.0724
55.5344 4.88218
55.7361 4.70068

File: Ni3Fe_FD0918.xy
TT I
1.27165 7.11637
1.45013 5.72825
1.62863 5.03
1.80712 4.90405
1.98562 4.74704
2.16411 4.82577
2.34263 6.12522
2.52115 7.36089
2.69965 8.45649
2.87818 9.02949
3.05672 11.5087
3.23527 15.4818
3.4138 18.5904
3.59237 22.9734
3.77094 26.0958
3.9495 29.7273
4.12809 34.6637
4.30669 113.54
4.4853 54.8031
4.6639 54.8567
4.84253 67.3908
5.02118 86.1145
5.19981 361.084
5.37848 186.873
5.55716 100.462
5.73586 91.4342
5.91455 93.3007
6.09328 4632.21
6.27201 79.2017
6.45075 68.582
6.62952 61.9796
6.8083 58.319
6.98711 54.7502
7.16591 55.2633
7.34475 69.2985
7.5236 53.4235
7.70247 55.8613
7.88135 56.8222
8.06026 61.6237
8.23919 68.631
8.41812 82.7519
8.59709 1202.15
8.77609 95.7106
8.9551 88.7219
9.13412 81.7475
9.31318 83.3499
9.49226 83.7106
9.67134 94.2181
9.85047 99.6747
10.0296 328.399
10.2088 322.833
10.388 103.117
10.5672 543.654
10.7465 84.5303
10.9257 76.9602
11.105 70.3234
11.2844 67.5045
11.4637 63.8158
11.6431 62.3669
11.8225 61.6432
12.002 63.2141
12.1814 158.714
12.3609 65.9987
12.5405 63.7365
12.72 67.122
12.8996 70.2362
13.0792 78.9451
13.2589 244.786
13.4386 114.306
13.6183 258.259
13.7981 91.5467
13.9779 74.4836
14.1577 70.645
14.3376 69.2186
14.5175 67.7966
14.6974 69.4646
14.8774 109.78
15.0574 137.108
15.2374 68.6257
15.4175 65.2181
15.5976 64.8384
15.7778 93.8063
15.958 146.237
16.1382 60.5423
16.3185 56.948
16.4988 54.4005
16.6792 53.4564
16.8596 53.85
17.04 55.1532
17.2205 65.907
17.401 67.4919
17.5815 58.296
17.7622 60.3108
17.9428 72.3743
18.1237 139.939
18.3044 90.8316
18.4852 72.8062
18.666 59.194
18.8469 56.9089
19.0278 55.9286
19.2088 58.1861
19.3898 75.2542
19.5709 53.189
19.752 52.4397
19.9332 55.5323
20.1144 69.5134
20.2957 63.9962
20.477 52.0047
20.6586 48.9019
20.84 48.0011
21.0215 47.8334
21.203 50.4439
21.3846 47.8587
21.5662 48.1728
21.7479 51.6643
21.9297 64.363
22.1115 55.4787
22.2933 48.6225
22.4753 47.867
22.6572 48.069
22.8393 51.2705
23.0214 56.1335
23.2037 47.8738
23.3859 48.8386
23.5682 56.9286
23.7505 47.1402
23.9329 44.2872
24.1154 43.3966
24.2979 42.6658
24.4805 42.2681
24.6631 42.0818
24.8458 41.5639
25.0286 42.0664
25.2114 44.017
25.3943 43.7144
25.5773 40.3171
25.7605 39.7394
25.9436 40.1222
26.1268 41.0786
26.31 39.3267
26.4933 40.0818
26.6767 41.5939
26.8601 39.6895
27.0437 38.337
27.2272 37.8373
27.4109 37.7369
27.5946 37.7425
27.7784 37.2919
27.9623 37.8555
28.1462 38.1456
28.3304 36.437
28.5145 35.3849
28.6987 35.1238
28.8829 34.8806
29.0673 34.062
29.2517 33.6895
29.4361 33.5388
29.6207 32.5507
29.8053 32.4009
29.99 32.0345
30.1748 31.7998
30.3597 31.6914
30.5447 31.6058
30.7297 31.7238
30.915 31.0573
31.1002 30.6257
31.2855 30.2738
31.4708 30.4458
31.6563 29.8453
31.8418 29.6244
32.0275 29.415
32.2132 28.8987
32.399 28.4319
32.5848 27.9857
32.7708 27.6302
32.9569 27.5169
33.143 27.3353
33.3293 26.988
33.5158 26.5804
33.7022 26.1138
33.8887 25.9015
34.0753 25.5756
34.262 25.2186
34.4488 24.8552
34.6357 24.5758
34.8227 24.2306
35.0098 24.0263
35.1969 23.7755
35.3842 23.5359
35.5716 23.4043
35.759 23.1362
35.9468 22.7324
36.1345 22.6095
36.3222 22.29
36.5101 22.0469
36.6981 21.7946
36.8861 21.4038
37.0743 21.149
37.2626 20.8828
37.451 20.6742
37.6395 20.4348
37.8281 20.1308
38.0168 19.9318
38.2056 19.5935
38.3945 19.3197
38.5837 19.135
38.7728 18.9091
38.9621 18.6455
39.1514 18.3794
39.3409 18.167
39.5304 17.9897
39.7201 17.7452
39.9099 17.5589
40.0999 17.2941
40.2899 17.0719
40.48 16.823
40.6703 16.6851
40.8607 16.4419
41.0512 16.2488
41.242 15.9656
41.4327 15.819
41.6236 15.5714
41.8146 15.3971
42.0057 15.1729
42.1969 14.9487
42.3882 14.7593
42.5797 14.5995
42.7713 14.3937
42.963 14.1784
43.1549 14.0299
43.3468 13.8091
43.5389 13.6797
43.7312 13.4371
43.9237 13.2958
44.1162 13.0242
44.3088 12.8422
44.5016 12.6914
44.6945 12.5129
44.8875 12.3031
45.0806 12.1811
45.2739 11.9749
45.4673 11.8464
45.6609 11.6933
45.8546 11.5489
46.0484 11.383
46.2424 11.1784
46.4365 11.0035
46.631 10.849
46.8254 10.675
47.0199 10.5069
47.2146 10.4012
47.4095 10.2342
47.6044 10.0491
47.7996 9.95307
47.9948 9.75738
48.1902 9.65085
48.3858 9.49696
48.5815 9.37818
48.7774 9.22252
48.9734 9.06409
49.1696 8.95696
49.3661 8.79905
49.5626 8.65577
49.7592 8.53268
49.956 8.42985
50.153 8.30415
50.3501 8.15093
50.5474 8.04403
50.7448 7.9083
50.9424 7.79271
51.1402 7.71647
51.3381 7.55017
51.5362 7.42972
51.7344 7.32595
51.9328 7.17591
52.1316 7.02842
52.3304 6.97167
52.5293 6.82145
52.7284 6.74064
52.9276 6.61138
53.1271 6.51154
53.3267 6.39074
53.5265 6.27695
53.7264 6.1546
53.9266 6.06442
54.1269 5.95994
54.3274 5.83833
54.528 5.70081
54.7289 5.53402
54.9301 5.38083
55.1314 5.18833
55.3328 4.998
55.5344 4.83278
55.7361 4.70081

File: Ni3Fe_FD0919.xy
TT I
1.27165 7.45183
1.45013 5.65905
1.62863 5.39555
1.80712 4.27869
1.98562 4.36223
2.16411 4.71057
2.34263 6.02683
2.52115 7.29266
2.69965 8.01839
2.87818 9.13316
3.05672 11.2281
3.23527 15.3947
3.4138 18.7119
3.59237 23.0883
3.77094 25.9867
3.9495 29.1903
4.12809 33.951
4.30669 111.222
4.4853 54.6975
4.6639 54.8392
4.84253 68.0877
5.02118 86.1798
5.19981 362.562
5.37848 188.215
5.55716 101.049
5.73586 91.9688
5.91455 93.3951
6.09328 4674.48
6.27201 78.8968
6.45075 69.0343
6.62952 61.8577
6.8083 58.723
6.98711 55.2527
7.16591 55.1533
7.34475 68.3045
7.5236 53.7478
7.70247 55.8804
7.88135 57.1616
8.06026 62.1358
8.23919 68.6037
8.41812 82.6639
8.59709 1202.26
8.77609 95.6471
8.9551 88.6384
9.13412 81.9706
9.31318 83.6664
9.49226 83.5259
9.67134 94.5439
9.85047 100.109
10.0296 330.815
10.2088 322.231
10.388 103.275
10.5672 547.09
10.7465 84.9394
10.9257 77.0166
11.105 70.3292
11.2844 67.827
11.4637 63.9499
11.6431 62.5493
11.8225 61.8253
12.002 63.222
12.1814 158.572
12.3609 65.7787
12.5405 63.7918
12.72 67.2935
12.8996 70.4912
13.0792 78.8934
13.2589 245.198
13.4386 113.761
13.6183 258.54
13.7981 91.3124
13.9779 74.724
14.1577 70.8323
14.3376 69.2602
14.5175 68.0596
14.6974 69.3546
14.8774 110.023
15.0574 137.276
15.2374 68.901
15.4175 65.1381
15.5976 64.6548
15.7778 93.9854
15.958 145.268
16.1382 60.5834
16.3185 57.0071
16.4988 54.5381
16.6792 53.3382
16.8596 53.8928
17.04 54.878
17.2205 66.1264
17.401 67.4945
17.5815 58.093
17.7622 60.3319
17.9428 72.0997
18.1237 139.988
18.3044 90.8083
18.4852 72.9995
18.666 59.2241
18.8469 57.0448
19.0278 55.8035
19.2088 58.0986
19.3898 74.9423
19.5709 53.1503
19.752 52.4072
19.9332 55.4266
20.1144 69.3664
20.2957 64.3573
20.477 51.6005
20.6586 48.894
20.84 48.0303
21.0215 47.8112
21.203 50.3122
21.3846 47.9321
21.5662 48.1722
21.7479 51.8325
21.9297 64.0773
22.1115 55.5727
22.2933 48.8916
22.4753 47.9465
22.6572 48.1745
22.8393 51.1063
23.0214 56.2729
23.2037 47.8992
23.3859 48.8788
23.5682 57.0241
23.7505 46.9619
23.9329 44.4597
24.1154 43.2958
24.2979 42.6848
24.4805 42.2483
24.6631 41.9945
24.8458 41.3781
25.0286 42.1244
25.2114 43.9797
25.3943 43.8869
25.5773 40.2399
25.7605 39.7721
25.9436 40.1979
26.1268 41.1032
26.31 39.4326
26.4933 40.1521
26.6767 41.4968
26.8601 39.6826
27.0437 38.2007
27.2272 37.9519
27.4109 37.816
27.5946 37.7271
27.7784 37.1132
27.9623 37.8694
28.1462 38.0912
28.3304 36.4935
28.5145 35.3715
28.6987 35.0017
28.8829 34.8356
29.0673 34.0658
29.2517 33.7998
29.4361 33.6234
29.6207 32.6473
29.8053 32.2582
29.99 32.083
30.1748 31.8867
30.3597 31.6744
30.5447 31.7035
30.7297 31.6438
30.915 31.0384
31.1002 30.5424
31.2855 30.3811
31.4708 30.3949
31.6563 29.8926
31.8418 29.602
32.0275 29.4251
32.2132 28.9142
32.399 28.4976
32.5848 27.9985
32.7708 27.6263
32.9569 27.6121
33.143 27.3241
33.3293 26.846
33.5158 26.5476
33.7022 26.1122
33.8887 25.7952
34.0753 25.5246
34.262 25.1671
34.4488 24.7946
34.6357 24.5669
34.8227 24.2856
35.0098 24.1066
35.1969 23.7766
35.3842 23.5857
35.5716 23.3884
35.759 23.0249
35.9468 22.7241
36.1345 22.4816
36.3222 22.2745
36.5101 22.019
36.6981 21.6916
36.8861 21.4066
37.0743 21.1442
37.2626 20.8484
37.451 20.5774
37.6395 20.4832
37.8281 20.1334
38.0168 19.904
38.2056 19.5921
38.3945 19.3101
38.5837 19.1232
38.7728 18.9088
38.9621 18.6728
39.1514 18.3294
39.3409 18.1912
39.5304 17.886
39.7201 17.7168
39.9099 17.5268
40.0999 17.3107
40.2899 17.021
40.48 16.8303
40.6703 16.6577
40.8607 16.474
41.0512 16.2075
41.242 15.9808
41.4327 15.8555
41.6236 15.5723
41.8146 15.3962
42.0057 15.214
42.1969 14.9668
42.3882 14.782
42.5797 14.5751
42.7713 14.3551
42.963 14.1402
43.1549 13.973
43.3468 13.7452
43.5389 13.6055
43.7312 13.3666
43.9237 13.2379
44.1162 13.0356
44.3088 12.8506
44.5016 12.66
44.6945 12.5325
44.8875 12.3032
45.0806 12.1423
45.2739 12.0071
45.4673 11.8797
45.6609 11.6583
45.8546 11.4957
46.0484 11.3487
46.2424 11.1671
46.4365 11.0245
46.631 10.8452
46.8254 10.6327
47.0199 10.5056
47.2146 10.3953
47.4095 10.1957
47.6044 10.0798
47.7996 9.90068
47.9948 9.75703
48.1902 9.66116
48.3858 9.4861
48.5815 9.39533
48.7774 9.25212
48.9734 9.06637
49.1696 8.922
49.3661 8.76404
49.5626 8.67195
49.7592 8.54638
49.956 8.42275
50.153 8.29053
50.3501 8.17634
50.5474 8.01424
50.7448 7.93331
50.9424 7.81114
51.1402 7.6854
51.3381 7.54535
51.5362 7.41935
51.7344 7.31083
51.9328 7.19069
52.1316 7.01858
52.3304 6.97458
52.5293 6.86473
52.7284 6.70287
52.9276 6.62157
53.1271 6.52298
53.3267 6.41731
53.5265 6.25211
53.7264 6.17207
53.9266 6.07541
54.1269 5.96194
54.3274 5.83615
54.528 5.66443
54.7289 5.55172
54.9301 5.38966
55.1314 5.29672
55.3328 5.06006
55.5344 4.89921
55.7361 4.74385

File: Ni3Fe_FD0921.xy
TT I
1.27165 6.96434
1.45013 6.0998
1.62863 5.12289
1.80712 4.70226
1.98562 5.53739
2.16411 4.59691
2.34263 5.70966
2.52115 7.37421
2.69965 7.99988
2.87818 9.1532
3.05672 10.9153
3.23527 15.2898
3.4138 19.0719
3.59237 23.1144
3.77094 25.9165
3.9495 29.3619
4.12809 34.4829
4.30669 107.82
4.4853 54.0453
4.6639 55.2522
4.84253 67.518
5.02118 85.696
5.19981 364.283
5.37848 189.377
5.55716 100.514
5.73586 91.5293
5.91455 93.7171
6.09328 4632.83
6.27201 78.982
6.45075 68.7332
6.62952 62.1345
6.8083 58.4889
6.98711 54.8485
7.16591 55.3481
7.34475 67.9502
7.5236 53.5328
7.70247 56.3481
7.88135 56.7252
8.06026 61.9766
8.23919 68.2807
8.41812 82.5384
8.59709 1199.48
8.77609 95.4046
8.9551 88.8866
9.13412 81.8061
9.31318 83.7343
9.49226 83.6217
9.67134 94.5726
9.85047 99.8139
10.0296 330.867
10.2088 324.854
10.388 102.921
10.5672 543.819
10.7465 84.7566
10.9257 76.9202
11.105 70.5376
11.2844 67.3638
11.4637 63.9581
11.6431 62.4482
11.8225 61.915
12.002 63.284
12.1814 158.142
12.3609 65.7044
12.5405 63.6987
12.72 67.1405
12.8996 70.3351
13.0792 78.7615
13.2589 245.772
13.4386 114.218
13.6183 257.996
13.7981 91.277
13.9779 74.4768
14.1577 70.8067
14.3376 68.9892
14.5175 67.878
14.6974 69.43
14.8774 110.153
15.0574 138.013
15.2374 68.4701
15.4175 65.3174
15.5976 64.8851
15.7778 93.7734
15.958 145.677
16.1382 60.4366
16.3185 56.852
16.4988 54.4558
16.6792 53.4719
16.8596 54.1301
17.04 55.1464
17.2205 66.2202
17.401 67.3868
17.5815 58.1945
17.7622 60.3379
17.9428 72.21
18.1237 139.369
18.3044 90.7483
18.4852 72.8815
18.666 59.044
18.8469 57.007
19.0278 55.8069
19.2088 58.1829
19.3898 74.9146
19.5709 53.0101
19.752 52.4759
19.9332 55.1899
20.1144 69.6156
20.2957 64.1707
20.477 51.9805
20.6586 48.8178
20.84 48.0201
21.0215 47.6986
21.203 50.2798
21.3846 47.8825
21.5662 48.2135
21.7479 51.7277
21.9297 64.2346
22.1115 55.5595
22.2933 48.7871
22.4753 47.9123
22.6572 47.9173
22.8393 51.1991
23.0214 56.0252
23.2037 47.9991
23.3859 48.765
23.5682 56.9068
23.7505 46.9461
23.9329 44.4658
24.1154 43.4341
24.2979 42.5855
24.4805 42.258
24.6631 42.1457
24.8458 41.6054
25.0286 42.2349
25.2114 43.9162
25.3943 43.6581
25.5773 40.0615
25.7605 39.6142
25.9436 40.2399
26.1268 40.9703
26.31 39.481
26.4933 39.9294
26.6767 41.387
26.8601 39.8128
27.0437 38.1214
27.2272 37.7217
27.4109 37.7874
27.5946 37.7009
27.7784 37.2664
27.9623 37.92
28.1462 38.1426
28.3304 36.5441
28.5145 35.3892
28.6987 34.911
28.8829 34.8563
29.0673 34.0075
29.2517 33.7276
29.4361 33.6108
29.6207 32.5472
29.8053 32.2989
29.99 31.9768
30.1748 31.9184
30.3597 31.6136
30.5447 31.5823
30.7297 31.6812
30.915 31.0737
31.1002 30.467
31.2855 30.2819
31.4708 30.3381
31.6563 29.7595
31.8418 29.5992
32.0275 29.4622
32.2132 28.8008
32.399 28.4396
32.5848 27.98
32.7708 27.5945
32.9569 27.4905
33.143 27.2685
33.3293 26.9083
33.5158 26.5265
33.7022 26.0868
33.8887 25.816
34.0753 25.5216
34.262 25.2459
34.4488 24.7815
34.6357 24.5563
34.8227 24.297
35.0098 24.1153
35.1969 23.8049
35.3842 23.5353
35.5716 23.3662
35.759 23.0387
35.9468 22.7029
36.1345 22.4991
36.3222 22.3178
36.5101 22.0277
36.6981 21.6766
36.8861 21.3574
37.0743 21.1168
37.2626 20.8972
37.451 20.6056
37.6395 20.4107
37.8281 20.147
38.0168 19.9006
38.2056 19.6171
38.3945 19.328
38.5837 19.0782
38.7728 18.8786
38.9621 18.5967
39.1514 18.3469
39.3409 18.1671
39.5304 17.9063
39.7201 17.769
39.9099 17.5139
40.0999 17.2921
40.2899 17.0573
40.48 16.8314
40.6703 16.6794
40.8607 16.451
41.0512 16.2159
41.242 15.9585
41.4327 15.7403
41.6236 15.5825
41.8146 15.3446
42.0057 15.1027
42.1969 14.9417
42.3882 14.8069
42.5797 14.5552
42.7713 14.4194
42.963 14.1818
43.1549 14.0151
43.3468 13.7486
43.5389 13.5985
43.7312 13.3952
43.9237 13.25
44.1162 13.0152
44.3088 12.8448
44.5016 12.6734
44.6945 12.5327
44.8875 12.3391
45.0806 12.1598
45.2739 11.9984
45.4673 11.862
45.6609 11.6574
45.8546 11.4978
46.0484 11.3504
46.2424 11.1687
46.4365 11.05
46.631 10.8118
46.8254 10.6938
47.0199 10.509
47.2146 10.3895
47.4095 10.2244
47.6044 10.0771
47.7996 9.89146
47.9948 9.78562
48.1902 9.63147
48.3858 9.45589
48.5815 9.35796
48.7774 9.2139
48.9734 9.07775
49.1696 8.95514
49.3661 8.7955
49.5626 8.66958
49.7592 8.5191
49.956 8.44191
50.153 8.31256
50.3501 8.15923
50.5474 8.04964
50.7448 7.89472
50.9424 7.80829
51.1402 7.68934
51.3381 7.49271
51.5362 7.40362
51.7344 7.34382
51.9328 7.18246
52.1316 7.03553
52.3304 6.93565
52.5293 6.83893
52.7284 6.75285
52.9276 6.57573
53.1271 6.51281
53.3267 6.40499
53.5265 6.31104
53.7264 6.18256
53.9266 6.08857
54.1269 5.94656
54.3274 5.88807
54.528 5.70288
54.7289 5.55872
54.9301 5.39381
55.1314 5.24421
55.3328 5.03851
55.5344 4.87824
55.7361 4.7601

File: Ni3Fe_FD0922.xy
TT I
1.27165 7.29988
1.45013 6.43512
1.62863 4.89802
1.80712 4.57392
1.98562 5.06087
2.16411 4.44091
2.34263 5.86148
2.52115 7.41237
2.69965 8.72928
2.87818 8.67499
3.05672 11.1535
3.23527 15.8268
3.4138 18.9119
3.59237 23.089
3.77094 25.5648
3.9495 29.3755
4.12809 33.7116
4.30669 106.761
4.4853 53.7014
4.6639 55.146
4.84253 67.5667
5.02118 85.8906
5.19981 367.785
5.37848 190.35
5.55716 101.318
5.73586 91.514
5.91455 93.8039
6.09328 4664.04
6.27201 79.0783
6.45075 69.1444
6.62952 62.4492
6.8083 58.5952
6.98711 54.8191
7.16591 55.3419
7.34475 67.1988
7.5236 53.5221
7.70247 55.8883
7.88135 56.7194
8.06026 61.7999
8.23919 68.3585
8.41812 82.4837
8.59709 1201.9
8.77609 95.8461
8.9551 88.9428
9.13412 81.8496
9.31318 83.793
9.49226 83.9007
9.67134 94.4444
9.85047 100.295
10.0296 330.781
10.2088 323.992
10.388 103.292
10.5672 547.028
10.7465 84.7742
10.9257 77.0419
11.105 70.1225
11.2844 67.5031
11.4637 63.7764
11.6431 62.4733
11.8225 61.7929
12.002 63.4263
12.1814 158.498
12.3609 65.7837
12.5405 63.8768
12.72 67.032
12.8996 70.3209
13.0792 78.7758
13.2589 246.214
13.4386 114.493
13.6183 257.998
13.7981 91.4457
13.9779 74.4776
14.1577 70.8388
14.3376 69.0721
14.5175 67.6085
14.6974 69.645
14.8774 109.981
15.0574 137.868
15.2374 68.5437
15.4175 65.5239
15.5976 64.8683
15.7778 93.8569
15.958 145.049
16.1382 60.3057
16.3185 56.9009
16.4988 54.4733
16.6792 53.6349
16.8596 54.006
17.04 55.1316
17.2205 65.9322
17.401 67.375
17.5815 58.0847
17.7622 60.3217
17.9428 72.3494
18.1237 139.728
18.3044 90.7943
18.4852 72.9854
18.666 59.3313
18.8469 57.0702
19.0278 55.7937
19.2088 58.2961
19.3898 74.6686
19.5709 53.1129
19.752 52.4734
19.9332 55.2386
20.1144 69.508
20.2957 64.1332
20.477 51.8792
20.6586 48.6058
20.84 48.1091
21.0215 47.9525
21.203 50.0724
21.3846 48.0677
21.5662 48.2815
21.7479 51.8806
21.9297 64.1229
22.1115 55.5726
22.2933 48.733
22.4753 47.757
22.6572 48.0927
22.8393 51.4021
23.0214 56.029
23.2037 47.9148
23.3859 48.8322
23.5682 56.9374
23.7505 47.1104
23.9329 44.3682
24.1154 43.3928
24.2979 42.6404
24.4805 42.276
24.6631 42.2181
24.8458 41.551
25.0286 42.1893
25.2114 44.0799
25.3943 43.8295
25.5773 40.1316
25.7605 39.7237
25.9436 40.2339
26.1268 41.2197
26.31 39.4507
26.4933 40.0622
26.6767 41.5422
26.8601 39.6685
27.0437 38.1891
27.2272 37.8631
27.4109 37.7542
27.5946 37.7924
27.7784 37.3476
27.9623 37.9387
28.1462 38.0377
28.3304 36.4895
28.5145 35.2574
28.6987 34.9852
28.8829 34.9949
29.0673 34.084
29.2517 33.7946
29.4361 33.4401
29.6207 32.532
29.8053 32.3988
29.99 31.976
30.1748 31.989
30.3597 31.71
30.5447 31.508
30.7297 31.8013
30.915 31.0211
31.1002 30.6069
31.2855 30.4043
31.4708 30.3707
31.6563 29.8837
31.8418 29.6838
32.0275 29.4632
32.2132 28.889
32.399 28.4604
32.5848 28.0411
32.7708 27.751
32.9569 27.5623
33.143 27.4286
33.3293 26.937
33.5158 26.5309
33.7022 26.1548
33.8887 25.8778
34.0753 25.5438
34.262 25.2
34.4488 24.8351
34.6357 24.5624
34.8227 24.2967
35.0098 24.1247
35.1969 23.7365
35.3842 23.6271
35.5716 23.3718
35.759 23.0526
35.9468 22.7926
36.1345 22.5701
36.3222 22.2991
36.5101 22.0858
36.6981 21.8138
36.8861 21.4843
37.0743 21.1989
37.2626 20.8695
37.451 20.6474
37.6395 20.5115
37.8281 20.1401
38.0168 19.8824
38.2056 19.6613
38.3945 19.3153
38.5837 19.118
38.7728 18.8558
38.9621 18.6295
39.1514 18.3718
39.3409 18.1073
39.5304 17.9453
39.7201 17.7364
39.9099 17.5358
40.0999 17.2796
40.2899 17.0322
40.48 16.7607
40.6703 16.6877
40.8607 16.4414
41.0512 16.2119
41.242 15.9928
41.4327 15.8371
41.6236 15.6132
41.8146 15.3932
42.0057 15.1735
42.1969 14.9537
42.3882 14.7747
42.5797 14.6035
42.7713 14.4015
42.963 14.1702
43.1549 13.9772
43.3468 13.7574
43.5389 13.6076
43.7312 13.4041
43.9237 13.1956
44.1162 13.042
44.3088 12.8447
44.5016 12.6901
44.6945 12.4897
44.8875 12.3037
45.0806 12.1384
45.2739 11.9794
45.4673 11.8523
45.6609 11.6426
45.8546 11.5156
46.0484 11.311
46.2424 11.1352
46.4365 11.0496
46.631 10.8177
46.8254 10.6768
47.0199 10.5428
47.2146 10.4047
47.4095 10.2215
47.6044 10.0902
47.7996 9.89815
47.9948 9.7528
48.1902 9.66081
48.3858 9.50229
48.5815 9.35426
48.7774 9.19036
48.9734 9.09067
49.1696 8.94913
49.3661 8.80954
49.5626 8.66659
49.7592 8.56717
49.956 8.4182
50.153 8.27447
50.3501 8.13712
50.5474 8.03837
50.7448 7.89815
50.9424 7.76753
51.1402 7.65644
51.3381 7.5355
51.5362 7.41637
51.7344 7.29428
51.9328 7.16732
52.1316 7.05578
52.3304 6.96876
52.5293 6.79538
52.7284 6.7384
52.9276 6.62652
53.1271 6.50785
53.3267 6.40652
53.5265 6.2897
53.7264 6.18534
53.9266 6.07039
54.1269 5.93927
54.3274 5.82475
54.528 5.74086
54.7289 5.50504
54.9301 5.44515
55.1314 5.24621
55.3328 5.09918
55.5344 4.9013
55.7361 4.74023