Folder: NiFe_MOF_catalyst_paper/XRD (part 130)

File: Ni3Fe_FD0701.xy
TT I
1.27165 7.43412
1.45013 5.94836
1.62863 5.00752
1.80712 4.5991
1.98562 4.653
2.16411 4.16108
2.34263 5.36437
2.52115 6.87819
2.69965 8.83891
2.87818 8.13177
3.05672 10.926
3.23527 15.4752
3.4138 19.1168
3.59237 23.1856
3.77094 25.5045
3.9495 29.7062
4.12809 34.254
4.30669 110.804
4.4853 55.239
4.6639 55.6488
4.84253 68.4539
5.02118 87.4199
5.19981 435.871
5.37848 194.439
5.55716 103.12
5.73586 93.2611
5.91455 95.821
6.09328 4644.67
6.27201 80.9216
6.45075 69.2889
6.62952 62.7488
6.8083 59.161
6.98711 55.3854
7.16591 55.56
7.34475 69.3137
7.5236 54.3487
7.70247 56.7665
7.88135 57.5958
8.06026 62.6243
8.23919 69.693
8.41812 84.2035
8.59709 1248.5
8.77609 98.3437
8.9551 89.7955
9.13412 82.6792
9.31318 84.5779
9.49226 85.2021
9.67134 95.723
9.85047 101.38
10.0296 367.663
10.2088 353.217
10.388 106.184
10.5672 518.736
10.7465 86.4149
10.9257 77.9216
11.105 71.5815
11.2844 68.7004
11.4637 64.9003
11.6431 63.7127
11.8225 62.6524
12.002 64.4234
12.1814 156.516
12.3609 67.2022
12.5405 64.9678
12.72 68.2118
12.8996 71.3417
13.0792 80.6107
13.2589 250.697
13.4386 120.133
13.6183 259.233
13.7981 93.9166
13.9779 75.8235
14.1577 72.1034
14.3376 70.2719
14.5175 68.7228
14.6974 70.5756
14.8774 114.294
15.0574 138.814
15.2374 69.7951
15.4175 66.5215
15.5976 65.9918
15.7778 97.2731
15.958 148.412
16.1382 61.5588
16.3185 57.9112
16.4988 55.4208
16.6792 54.3777
16.8596 55.0019
17.04 55.9251
17.2205 67.4509
17.401 69.6801
17.5815 59.3725
17.7622 61.3745
17.9428 74.6733
18.1237 141.51
18.3044 91.4203
18.4852 74.8031
18.666 60.2668
18.8469 57.8475
19.0278 56.5304
19.2088 59.4795
19.3898 76.076
19.5709 53.8904
19.752 53.3078
19.9332 56.3618
20.1144 69.4668
20.2957 64.0844
20.477 52.9022
20.6586 49.4043
20.84 48.8201
21.0215 48.6179
21.203 50.905
21.3846 48.6765
21.5662 48.9077
21.7479 53.0388
21.9297 64.8616
22.1115 55.9684
22.2933 49.5342
22.4753 48.6864
22.6572 48.8429
22.8393 52.1087
23.0214 57.05
23.2037 48.7156
23.3859 49.8717
23.5682 57.2527
23.7505 47.811
23.9329 45.2077
24.1154 44.1586
24.2979 43.2227
24.4805 42.9074
24.6631 42.7989
24.8458 42.1395
25.0286 42.8545
25.2114 44.6531
25.3943 44.4237
25.5773 40.9755
25.7605 40.3087
25.9436 40.7965
26.1268 41.7785
26.31 40.0631
26.4933 40.7889
26.6767 42.2091
26.8601 40.304
27.0437 38.7482
27.2272 38.4363
27.4109 38.384
27.5946 38.1874
27.7784 37.8929
27.9623 38.4178
28.1462 38.6759
28.3304 37.0587
28.5145 35.9235
28.6987 35.4986
28.8829 35.3963
29.0673 34.6083
29.2517 34.3862
29.4361 34.0411
29.6207 33.0413
29.8053 32.8172
29.99 32.5236
30.1748 32.3861
30.3597 32.1421
30.5447 32.1462
30.7297 32.1026
30.915 31.5389
31.1002 31.1117
31.2855 30.7678
31.4708 30.8049
31.6563 30.3212
31.8418 30.0301
32.0275 29.8444
32.2132 29.3829
32.399 28.8462
32.5848 28.4341
32.7708 28.1125
32.9569 27.9073
33.143 27.7368
33.3293 27.3153
33.5158 26.9867
33.7022 26.6163
33.8887 26.316
34.0753 25.9682
34.262 25.5252
34.4488 25.2805
34.6357 24.9281
34.8227 24.6511
35.0098 24.4174
35.1969 24.1242
35.3842 23.9478
35.5716 23.7801
35.759 23.4394
35.9468 23.0444
36.1345 22.9289
36.3222 22.6396
36.5101 22.3312
36.6981 22.0754
36.8861 21.79
37.0743 21.5131
37.2626 21.1951
37.451 20.9494
37.6395 20.7522
37.8281 20.4381
38.0168 20.1167
38.2056 19.9199
38.3945 19.6691
38.5837 19.3944
38.7728 19.1934
38.9621 18.8729
39.1514 18.6908
39.3409 18.4023
39.5304 18.2555
39.7201 18.0742
39.9099 17.7844
40.0999 17.5356
40.2899 17.3104
40.48 17.1062
40.6703 16.9306
40.8607 16.6837
41.0512 16.5209
41.242 16.1823
41.4327 16.0244
41.6236 15.7628
41.8146 15.6291
42.0057 15.3856
42.1969 15.1705
42.3882 15.0042
42.5797 14.7872
42.7713 14.6009
42.963 14.3657
43.1549 14.1976
43.3468 14.0181
43.5389 13.82
43.7312 13.6013
43.9237 13.3892
44.1162 13.263
44.3088 13.0505
44.5016 12.8073
44.6945 12.7313
44.8875 12.556
45.0806 12.3509
45.2739 12.1973
45.4673 12.0497
45.6609 11.8024
45.8546 11.6657
46.0484 11.5003
46.2424 11.3744
46.4365 11.1915
46.631 10.9777
46.8254 10.8485
47.0199 10.6803
47.2146 10.5433
47.4095 10.3694
47.6044 10.2375
47.7996 10.0996
47.9948 9.91941
48.1902 9.77532
48.3858 9.63575
48.5815 9.53689
48.7774 9.40355
48.9734 9.2351
49.1696 9.11328
49.3661 8.97309
49.5626 8.77806
49.7592 8.66024
49.956 8.54892
50.153 8.42118
50.3501 8.27033
50.5474 8.14651
50.7448 8.03457
50.9424 7.91436
51.1402 7.78401
51.3381 7.65769
51.5362 7.52859
51.7344 7.39618
51.9328 7.28577
52.1316 7.14596
52.3304 7.07124
52.5293 6.9434
52.7284 6.81402
52.9276 6.68727
53.1271 6.63339
53.3267 6.50019
53.5265 6.3322
53.7264 6.28264
53.9266 6.15996
54.1269 6.05528
54.3274 5.90131
54.528 5.79688
54.7289 5.63412
54.9301 5.48598
55.1314 5.35736
55.3328 5.16834
55.5344 4.97748
55.7361 4.79732

File: Ni3Fe_FD0702.xy
TT I
1.27165 7.26495
1.45013 6.26074
1.62863 5.0325
1.80712 5.4171
1.98562 4.45589
2.16411 4.60512
2.34263 5.33356
2.52115 7.08395
2.69965 7.686
2.87818 8.88832
3.05672 11.3678
3.23527 15.2346
3.4138 18.7303
3.59237 23.4719
3.77094 26.0719
3.9495 29.7931
4.12809 34.2416
4.30669 111.594
4.4853 54.304
4.6639 55.2048
4.84253 68.372
5.02118 87.6492
5.19981 434.732
5.37848 195.302
5.55716 102.396
5.73586 92.8328
5.91455 96.3985
6.09328 4605.15
6.27201 80.9407
6.45075 69.1912
6.62952 62.3403
6.8083 59.1739
6.98711 55.4512
7.16591 55.5154
7.34475 68.7482
7.5236 54.1739
7.70247 56.4775
7.88135 57.4254
8.06026 62.7433
8.23919 69.4492
8.41812 84.3164
8.59709 1248.09
8.77609 97.9454
8.9551 89.9431
9.13412 82.4889
9.31318 84.4765
9.49226 85.212
9.67134 95.7085
9.85047 101.37
10.0296 366.267
10.2088 356.274
10.388 106.071
10.5672 518.33
10.7465 86.2503
10.9257 77.6492
11.105 71.4316
11.2844 68.4921
11.4637 64.5527
11.6431 63.3643
11.8225 62.5026
12.002 64.39
12.1814 155.81
12.3609 66.9559
12.5405 64.9009
12.72 68.0663
12.8996 71.3249
13.0792 80.3691
13.2589 249.865
13.4386 120.455
13.6183 258.989
13.7981 93.885
13.9779 75.6649
14.1577 72.1227
14.3376 70.2489
14.5175 69.068
14.6974 70.8752
14.8774 114.633
15.0574 139.602
15.2374 69.6703
15.4175 66.3861
15.5976 65.8494
15.7778 97.4177
15.958 148.773
16.1382 61.5407
16.3185 57.856
16.4988 55.1854
16.6792 54.496
16.8596 54.8932
17.04 56.1101
17.2205 67.3629
17.401 69.7529
17.5815 59.0519
17.7622 61.5451
17.9428 74.3584
18.1237 141.97
18.3044 91.5968
18.4852 75.0174
18.666 60.1935
18.8469 57.9508
19.0278 56.555
19.2088 59.2669
19.3898 75.9867
19.5709 53.8094
19.752 53.2133
19.9332 56.3946
20.1144 69.5886
20.2957 64.1192
20.477 52.7842
20.6586 49.5182
20.84 48.8991
21.0215 48.4948
21.203 50.9433
21.3846 48.7556
21.5662 49.1344
21.7479 53.1153
21.9297 64.9756
22.1115 56.0109
22.2933 49.557
22.4753 48.6079
22.6572 48.9718
22.8393 52.0054
23.0214 56.955
23.2037 48.7594
23.3859 49.7877
23.5682 57.4108
23.7505 47.9605
23.9329 45.0533
24.1154 43.9874
24.2979 43.3604
24.4805 42.8933
24.6631 42.7119
24.8458 42.1546
25.0286 42.9317
25.2114 44.6776
25.3943 44.5003
25.5773 40.7746
25.7605 40.3649
25.9436 40.7408
26.1268 41.6272
26.31 39.9794
26.4933 40.7116
26.6767 42.1351
26.8601 40.356
27.0437 38.8413
27.2272 38.5501
27.4109 38.3637
27.5946 38.2714
27.7784 37.777
27.9623 38.4869
28.1462 38.7712
28.3304 37.0208
28.5145 35.905
28.6987 35.7404
28.8829 35.3516
29.0673 34.6699
29.2517 34.3173
29.4361 34.0779
29.6207 33.0617
29.8053 32.7779
29.99 32.437
30.1748 32.4657
30.3597 32.1922
30.5447 32.1866
30.7297 32.1426
30.915 31.5948
31.1002 31.049
31.2855 30.8899
31.4708 30.8126
31.6563 30.2037
31.8418 30.1647
32.0275 29.8325
32.2132 29.2798
32.399 28.8823
32.5848 28.4533
32.7708 28.0458
32.9569 27.9889
33.143 27.7643
33.3293 27.3264
33.5158 26.9714
33.7022 26.5627
33.8887 26.2531
34.0753 25.9601
34.262 25.5797
34.4488 25.2175
34.6357 24.8877
34.8227 24.7086
35.0098 24.4971
35.1969 24.1722
35.3842 23.922
35.5716 23.7361
35.759 23.5036
35.9468 23.1181
36.1345 22.9079
36.3222 22.6501
36.5101 22.3625
36.6981 22.1036
36.8861 21.6927
37.0743 21.4304
37.2626 21.1537
37.451 20.9298
37.6395 20.8273
37.8281 20.3993
38.0168 20.2085
38.2056 19.9695
38.3945 19.615
38.5837 19.4104
38.7728 19.1837
38.9621 18.9316
39.1514 18.6656
39.3409 18.4482
39.5304 18.1677
39.7201 18.0054
39.9099 17.7666
40.0999 17.5534
40.2899 17.3419
40.48 17.1156
40.6703 16.8656
40.8607 16.7112
41.0512 16.4907
41.242 16.2304
41.4327 16.0019
41.6236 15.794
41.8146 15.6394
42.0057 15.3531
42.1969 15.1897
42.3882 15.0022
42.5797 14.8185
42.7713 14.6015
42.963 14.4052
43.1549 14.2076
43.3468 13.9894
43.5389 13.8095
43.7312 13.5907
43.9237 13.4231
44.1162 13.2228
44.3088 13.0576
44.5016 12.878
44.6945 12.6776
44.8875 12.5341
45.0806 12.3394
45.2739 12.1822
45.4673 11.9837
45.6609 11.857
45.8546 11.6434
46.0484 11.5174
46.2424 11.3416
46.4365 11.2404
46.631 11.0328
46.8254 10.8078
47.0199 10.7062
47.2146 10.5607
47.4095 10.3673
47.6044 10.2428
47.7996 10.0874
47.9948 9.90154
48.1902 9.81386
48.3858 9.63137
48.5815 9.48686
48.7774 9.38479
48.9734 9.22917
49.1696 9.08683
49.3661 8.93019
49.5626 8.78015
49.7592 8.66697
49.956 8.52899
50.153 8.40857
50.3501 8.27642
50.5474 8.13881
50.7448 8.02854
50.9424 7.94447
51.1402 7.81257
51.3381 7.64822
51.5362 7.51768
51.7344 7.42799
51.9328 7.26661
52.1316 7.16008
52.3304 7.05831
52.5293 6.93292
52.7284 6.84602
52.9276 6.73823
53.1271 6.58031
53.3267 6.49024
53.5265 6.35942
53.7264 6.25517
53.9266 6.12328
54.1269 6.05387
54.3274 5.93956
54.528 5.7835
54.7289 5.60329
54.9301 5.48752
55.1314 5.37872
55.3328 5.12081
55.5344 4.95132
55.7361 4.80466

File: Ni3Fe_FD0703.xy
TT I
1.27165 6.70257
1.45013 6.14766
1.62863 5.19362
1.80712 4.53473
1.98562 4.79319
2.16411 4.61551
2.34263 5.17641
2.52115 7.06288
2.69965 7.86251
2.87818 8.90624
3.05672 11.02
3.23527 14.8775
3.4138 18.5525
3.59237 23.0091
3.77094 25.4168
3.9495 29.4857
4.12809 33.9311
4.30669 109.623
4.4853 54.0629
4.6639 55.5162
4.84253 68.3871
5.02118 87.6901
5.19981 435.166
5.37848 195.75
5.55716 102.746
5.73586 93.3052
5.91455 96.5511
6.09328 4609.14
6.27201 80.5137
6.45075 69.1706
6.62952 62.9213
6.8083 59.2796
6.98711 55.4713
7.16591 55.7635
7.34475 68.7418
7.5236 54.3337
7.70247 56.6163
7.88135 57.6058
8.06026 62.7581
8.23919 69.4639
8.41812 84.328
8.59709 1246.36
8.77609 98.3916
8.9551 89.3974
9.13412 82.92
9.31318 84.4995
9.49226 85.1122
9.67134 95.8133
9.85047 101.481
10.0296 366.493
10.2088 356.234
10.388 105.927
10.5672 518.687
10.7465 86.1706
10.9257 77.9183
11.105 71.1507
11.2844 68.4949
11.4637 64.5517
11.6431 63.5671
11.8225 62.4658
12.002 64.5035
12.1814 155.904
12.3609 67.3318
12.5405 64.9268
12.72 68.2574
12.8996 71.5278
13.0792 80.4808
13.2589 249.994
13.4386 120.426
13.6183 259.06
13.7981 94.3187
13.9779 75.7536
14.1577 72.0531
14.3376 70.3826
14.5175 68.8125
14.6974 70.7731
14.8774 114.707
15.0574 139.645
15.2374 69.7303
15.4175 66.4691
15.5976 65.9824
15.7778 97.2533
15.958 148.906
16.1382 61.5299
16.3185 58.1245
16.4988 55.2116
16.6792 54.2272
16.8596 54.8607
17.04 56.2642
17.2205 67.5509
17.401 69.7306
17.5815 59.3294
17.7622 61.3168
17.9428 74.4707
18.1237 141.923
18.3044 91.6221
18.4852 74.9313
18.666 60.2607
18.8469 58.1279
19.0278 56.6532
19.2088 59.359
19.3898 75.9334
19.5709 54.0255
19.752 53.2933
19.9332 56.368
20.1144 69.7987
20.2957 64.2039
20.477 52.8519
20.6586 49.5806
20.84 48.7996
21.0215 48.6402
21.203 50.8047
21.3846 48.6887
21.5662 48.9933
21.7479 53.0417
21.9297 64.844
22.1115 55.941
22.2933 49.5818
22.4753 48.5825
22.6572 48.9339
22.8393 52.1131
23.0214 57.0187
23.2037 48.7665
23.3859 49.8814
23.5682 57.3494
23.7505 47.8137
23.9329 45.0233
24.1154 43.9854
24.2979 43.381
24.4805 42.72
24.6631 42.6804
24.8458 42.1803
25.0286 42.9013
25.2114 44.6365
25.3943 44.4761
25.5773 40.7856
25.7605 40.3765
25.9436 40.8271
26.1268 41.6022
26.31 40.0791
26.4933 40.7325
26.6767 42.092
26.8601 40.4782
27.0437 38.8316
27.2272 38.4709
27.4109 38.3982
27.5946 38.4238
27.7784 37.8554
27.9623 38.5672
28.1462 38.8132
28.3304 36.9474
28.5145 35.8543
28.6987 35.574
28.8829 35.3998
29.0673 34.4954
29.2517 34.2739
29.4361 34.0992
29.6207 33.0455
29.8053 32.7926
29.99 32.4843
30.1748 32.3698
30.3597 32.1701
30.5447 32.1813
30.7297 32.1745
30.915 31.5775
31.1002 31.1127
31.2855 30.855
31.4708 30.7471
31.6563 30.3323
31.8418 30.1092
32.0275 29.858
32.2132 29.3198
32.399 28.9009
32.5848 28.4503
32.7708 28.104
32.9569 27.9903
33.143 27.7707
33.3293 27.3243
33.5158 26.8787
33.7022 26.518
33.8887 26.2667
34.0753 25.9383
34.262 25.5939
34.4488 25.2387
34.6357 24.8453
34.8227 24.6549
35.0098 24.4107
35.1969 24.1314
35.3842 23.9141
35.5716 23.7851
35.759 23.3989
35.9468 23.0942
36.1345 22.892
36.3222 22.5897
36.5101 22.4323
36.6981 22.1529
36.8861 21.6976
37.0743 21.3839
37.2626 21.2105
37.451 20.9183
37.6395 20.7541
37.8281 20.4351
38.0168 20.1847
38.2056 19.9155
38.3945 19.6502
38.5837 19.4101
38.7728 19.2337
38.9621 18.9191
39.1514 18.6682
39.3409 18.436
39.5304 18.1861
39.7201 17.9654
39.9099 17.7798
40.0999 17.5531
40.2899 17.2786
40.48 17.102
40.6703 16.8519
40.8607 16.6757
41.0512 16.5117
41.242 16.2294
41.4327 15.9774
41.6236 15.8254
41.8146 15.5751
42.0057 15.4227
42.1969 15.2308
42.3882 14.9742
42.5797 14.7843
42.7713 14.61
42.963 14.4339
43.1549 14.1955
43.3468 13.9098
43.5389 13.7969
43.7312 13.564
43.9237 13.4172
44.1162 13.2014
44.3088 13.0435
44.5016 12.8492
44.6945 12.6959
44.8875 12.5617
45.0806 12.358
45.2739 12.1393
45.4673 12.0085
45.6609 11.8052
45.8546 11.723
46.0484 11.533
46.2424 11.3499
46.4365 11.1765
46.631 10.9851
46.8254 10.8275
47.0199 10.7066
47.2146 10.5382
47.4095 10.3546
47.6044 10.1883
47.7996 10.0628
47.9948 9.90059
48.1902 9.77271
48.3858 9.65286
48.5815 9.50052
48.7774 9.41547
48.9734 9.23265
49.1696 9.10981
49.3661 8.94281
49.5626 8.77581
49.7592 8.64466
49.956 8.55855
50.153 8.39275
50.3501 8.27314
50.5474 8.13554
50.7448 8.05953
50.9424 7.90745
51.1402 7.76805
51.3381 7.63881
51.5362 7.51799
51.7344 7.40495
51.9328 7.27847
52.1316 7.17004
52.3304 7.05053
52.5293 6.93297
52.7284 6.84478
52.9276 6.72528
53.1271 6.61306
53.3267 6.51387
53.5265 6.34145
53.7264 6.24547
53.9266 6.14552
54.1269 6.05303
54.3274 5.92827
54.528 5.79143
54.7289 5.64334
54.9301 5.45285
55.1314 5.32685
55.3328 5.13111
55.5344 4.92544
55.7361 4.78855

File: Ni3Fe_FD0704.xy
TT I
1.27165 7.54936
1.45013 5.89169
1.62863 5.03758
1.80712 5.20638
1.98562 4.895
2.16411 4.62434
2.34263 5.66801
2.52115 6.98385
2.69965 7.52981
2.87818 8.19219
3.05672 10.92
3.23527 15.0517
3.4138 18.3638
3.59237 23.5641
3.77094 25.8925
3.9495 29.4362
4.12809 34.5234
4.30669 107.846
4.4853 54.4707
4.6639 55.8464
4.84253 68.6516
5.02118 88.1334
5.19981 438.89
5.37848 195.251
5.55716 102.71
5.73586 93.6173
5.91455 96.0568
6.09328 4655.06
6.27201 81.1245
6.45075 69.8779
6.62952 63.0129
6.8083 59.0681
6.98711 55.8319
7.16591 56.0011
7.34475 68.2186
7.5236 54.2595
7.70247 56.932
7.88135 57.7031
8.06026 62.6072
8.23919 69.4346
8.41812 84.6846
8.59709 1257.01
8.77609 98.4045
8.9551 90.0395
9.13412 82.9991
9.31318 84.9455
9.49226 85.4589
9.67134 95.7971
9.85047 101.651
10.0296 369.399
10.2088 354.088
10.388 106.073
10.5672 519.673
10.7465 86.2954
10.9257 77.8577
11.105 71.4577
11.2844 68.4453
11.4637 64.8037
11.6431 63.4801
11.8225 63.0075
12.002 64.6986
12.1814 156.052
12.3609 67.0109
12.5405 64.7299
12.72 68.1052
12.8996 71.4615
13.0792 80.9883
13.2589 252.519
13.4386 120.05
13.6183 258.988
13.7981 93.8306
13.9779 76.1134
14.1577 72.0094
14.3376 70.4308
14.5175 69.0444
14.6974 71.0007
14.8774 114.652
15.0574 138.759
15.2374 69.7184
15.4175 66.35
15.5976 66.0084
15.7778 97.342
15.958 147.437
16.1382 61.2805
16.3185 57.7481
16.4988 55.2248
16.6792 54.3984
16.8596 54.955
17.04 56.0277
17.2205 67.6118
17.401 69.4013
17.5815 59.2574
17.7622 61.4644
17.9428 74.5917
18.1237 141.582
18.3044 91.7264
18.4852 74.6982
18.666 60.1391
18.8469 58.1619
19.0278 56.6697
19.2088 59.6335
19.3898 75.8711
19.5709 53.991
19.752 53.3998
19.9332 56.3488
20.1144 69.738
20.2957 63.9783
20.477 53.0317
20.6586 49.6901
20.84 48.7345
21.0215 48.6077
21.203 50.8935
21.3846 48.7715
21.5662 48.8832
21.7479 52.7661
21.9297 64.7711
22.1115 55.9621
22.2933 49.3409
22.4753 48.6224
22.6572 48.9086
22.8393 52.2386
23.0214 56.9027
23.2037 48.81
23.3859 49.9333
23.5682 57.2157
23.7505 47.824
23.9329 45.0827
24.1154 43.9577
24.2979 43.3785
24.4805 43.0085
24.6631 42.6919
24.8458 42.0575
25.0286 42.9406
25.2114 44.8028
25.3943 44.5654
25.5773 40.8741
25.7605 40.3733
25.9436 40.8268
26.1268 41.6858
26.31 39.973
26.4933 40.8879
26.6767 42.0721
26.8601 40.3977
27.0437 38.7837
27.2272 38.4421
27.4109 38.3538
27.5946 38.2902
27.7784 37.8075
27.9623 38.4727
28.1462 38.6566
28.3304 36.9762
28.5145 35.7733
28.6987 35.4747
28.8829 35.3493
29.0673 34.6976
29.2517 34.3399
29.4361 34.1665
29.6207 33.0098
29.8053 32.755
29.99 32.4956
30.1748 32.413
30.3597 32.288
30.5447 32.2298
30.7297 32.171
30.915 31.5443
31.1002 31.1008
31.2855 30.7292
31.4708 30.7453
31.6563 30.2602
31.8418 30.1686
32.0275 29.8842
32.2132 29.2839
32.399 28.9258
32.5848 28.4739
32.7708 28.1623
32.9569 27.9838
33.143 27.6412
33.3293 27.3804
33.5158 26.8581
33.7022 26.5701
33.8887 26.2916
34.0753 25.9011
34.262 25.5586
34.4488 25.3072
34.6357 24.9451
34.8227 24.684
35.0098 24.5142
35.1969 24.1507
35.3842 23.9985
35.5716 23.7131
35.759 23.4637
35.9468 23.0954
36.1345 22.8378
36.3222 22.5988
36.5101 22.462
36.6981 22.0942
36.8861 21.7184
37.0743 21.4675
37.2626 21.193
37.451 20.9267
37.6395 20.755
37.8281 20.4075
38.0168 20.1292
38.2056 19.9495
38.3945 19.5948
38.5837 19.3777
38.7728 19.1212
38.9621 18.9778
39.1514 18.6607
39.3409 18.4864
39.5304 18.2605
39.7201 18.0677
39.9099 17.7599
40.0999 17.5586
40.2899 17.3111
40.48 17.0558
40.6703 16.8889
40.8607 16.7293
41.0512 16.4999
41.242 16.2718
41.4327 15.9844
41.6236 15.7616
41.8146 15.6031
42.0057 15.3594
42.1969 15.1368
42.3882 15.002
42.5797 14.7624
42.7713 14.5793
42.963 14.3791
43.1549 14.174
43.3468 13.9968
43.5389 13.814
43.7312 13.5796
43.9237 13.3829
44.1162 13.1978
44.3088 13.0593
44.5016 12.852
44.6945 12.6698
44.8875 12.4969
45.0806 12.3608
45.2739 12.1267
45.4673 11.9886
45.6609 11.8574
45.8546 11.6694
46.0484 11.4828
46.2424 11.3279
46.4365 11.1831
46.631 10.9643
46.8254 10.8348
47.0199 10.6915
47.2146 10.5605
47.4095 10.3571
47.6044 10.2096
47.7996 10.0618
47.9948 9.9137
48.1902 9.74655
48.3858 9.63907
48.5815 9.53631
48.7774 9.39425
48.9734 9.20041
49.1696 9.10061
49.3661 8.95781
49.5626 8.78831
49.7592 8.66325
49.956 8.55102
50.153 8.42326
50.3501 8.2385
50.5474 8.15535
50.7448 8.0236
50.9424 7.92187
51.1402 7.77742
51.3381 7.67243
51.5362 7.51969
51.7344 7.41182
51.9328 7.29584
52.1316 7.13381
52.3304 7.06258
52.5293 6.93848
52.7284 6.84068
52.9276 6.6892
53.1271 6.63428
53.3267 6.46955
53.5265 6.361
53.7264 6.21059
53.9266 6.14579
54.1269 6.05814
54.3274 5.92391
54.528 5.80072
54.7289 5.63563
54.9301 5.47745
55.1314 5.36595
55.3328 5.10703
55.5344 4.90942
55.7361 4.86685

File: Ni3Fe_FD0705.xy
TT I
1.27165 7.66478
1.45013 6.65642
1.62863 5.09832
1.80712 4.71634
1.98562 4.93738
2.16411 5.3759
2.34263 5.30473
2.52115 6.86909
2.69965 8.46199
2.87818 8.83422
3.05672 10.6839
3.23527 14.9281
3.4138 18.8323
3.59237 23.1189
3.77094 25.6915
3.9495 29.1883
4.12809 34.4242
4.30669 107.878
4.4853 53.9593
4.6639 55.3623
4.84253 68.9817
5.02118 87.9254
5.19981 432.811
5.37848 195.968
5.55716 102.636
5.73586 93.3354
5.91455 95.8333
6.09328 4584.0
6.27201 81.0716
6.45075 69.2322
6.62952 62.7836
6.8083 59.285
6.98711 55.7657
7.16591 55.9123
7.34475 68.3103
7.5236 53.9391
7.70247 56.5931
7.88135 57.7567
8.06026 62.1955
8.23919 69.5611
8.41812 84.2097
8.59709 1256.25
8.77609 98.2464
8.9551 89.513
9.13412 82.6202
9.31318 84.6753
9.49226 84.8295
9.67134 95.6391
9.85047 101.69
10.0296 366.445
10.2088 355.882
10.388 105.856
10.5672 514.028
10.7465 86.1723
10.9257 77.9442
11.105 71.244
11.2844 68.3768
11.4637 64.5081
11.6431 63.4627
11.8225 62.514
12.002 64.4553
12.1814 155.389
12.3609 66.9517
12.5405 64.875
12.72 67.9488
12.8996 71.6465
13.0792 80.5088
13.2589 250.253
13.4386 120.752
13.6183 260.705
13.7981 93.9981
13.9779 75.7892
14.1577 71.8015
14.3376 70.3439
14.5175 68.9661
14.6974 70.6583
14.8774 114.462
15.0574 139.454
15.2374 69.3141
15.4175 66.3662
15.5976 65.9231
15.7778 97.1957
15.958 148.655
16.1382 61.2086
16.3185 57.8046
16.4988 55.2029
16.6792 54.3661
16.8596 54.9367
17.04 56.0545
17.2205 67.6301
17.401 69.4599
17.5815 59.0031
17.7622 61.4737
17.9428 74.4214
18.1237 141.96
18.3044 91.4826
18.4852 74.9492
18.666 59.9184
18.8469 57.8895
19.0278 56.6252
19.2088 59.3055
19.3898 75.9639
19.5709 54.0561
19.752 53.2652
19.9332 56.275
20.1144 69.6747
20.2957 64.0416
20.477 52.6876
20.6586 49.3623
20.84 48.7782
21.0215 48.582
21.203 51.0311
21.3846 48.7856
21.5662 49.0213
21.7479 52.783
21.9297 64.8779
22.1115 55.7989
22.2933 49.5311
22.4753 48.7697
22.6572 48.867
22.8393 52.1143
23.0214 57.123
23.2037 48.6534
23.3859 49.6302
23.5682 57.301
23.7505 47.8506
23.9329 45.1538
24.1154 44.0113
24.2979 43.2542
24.4805 42.814
24.6631 42.6476
24.8458 42.2706
25.0286 42.8805
25.2114 44.6293
25.3943 44.3966
25.5773 40.76
25.7605 40.2484
25.9436 40.8421
26.1268 41.5362
26.31 40.0101
26.4933 40.6272
26.6767 42.0511
26.8601 40.2361
27.0437 38.8822
27.2272 38.4303
27.4109 38.5166
27.5946 38.3139
27.7784 37.886
27.9623 38.3499
28.1462 38.7174
28.3304 37.0858
28.5145 35.8368
28.6987 35.5307
28.8829 35.2946
29.0673 34.647
29.2517 34.2711
29.4361 34.0078
29.6207 33.0613
29.8053 32.8673
29.99 32.4778
30.1748 32.3935
30.3597 32.196
30.5447 32.1726
30.7297 32.2008
30.915 31.5702
31.1002 31.0559
31.2855 30.8292
31.4708 30.7615
31.6563 30.2147
31.8418 30.0153
32.0275 29.8359
32.2132 29.4336
32.399 28.8698
32.5848 28.3801
32.7708 28.1543
32.9569 27.9483
33.143 27.7324
33.3293 27.3237
33.5158 26.9928
33.7022 26.5409
33.8887 26.2581
34.0753 25.9686
34.262 25.565
34.4488 25.2585
34.6357 24.9132
34.8227 24.6561
35.0098 24.4082
35.1969 24.1648
35.3842 23.897
35.5716 23.7124
35.759 23.3223
35.9468 23.1128
36.1345 22.8543
36.3222 22.6084
36.5101 22.3899
36.6981 22.0107
36.8861 21.7976
37.0743 21.3958
37.2626 21.2047
37.451 20.9664
37.6395 20.7603
37.8281 20.4176
38.0168 20.1285
38.2056 19.869
38.3945 19.6574
38.5837 19.3921
38.7728 19.1246
38.9621 18.9213
39.1514 18.5695
39.3409 18.3751
39.5304 18.2075
39.7201 18.0552
39.9099 17.8407
40.0999 17.6136
40.2899 17.3128
40.48 17.072
40.6703 16.8711
40.8607 16.7086
41.0512 16.4744
41.242 16.2028
41.4327 16.0222
41.6236 15.804
41.8146 15.5689
42.0057 15.3829
42.1969 15.2002
42.3882 14.9763
42.5797 14.7624
42.7713 14.5469
42.963 14.3837
43.1549 14.2012
43.3468 13.9744
43.5389 13.7748
43.7312 13.5658
43.9237 13.4561
44.1162 13.242
44.3088 13.0677
44.5016 12.8314
44.6945 12.6789
44.8875 12.5099
45.0806 12.3679
45.2739 12.2224
45.4673 11.9773
45.6609 11.789
45.8546 11.6439
46.0484 11.4634
46.2424 11.3637
46.4365 11.1519
46.631 11.0003
46.8254 10.8389
47.0199 10.6834
47.2146 10.5258
47.4095 10.34
47.6044 10.2161
47.7996 10.0856
47.9948 9.92042
48.1902 9.74318
48.3858 9.60223
48.5815 9.4984
48.7774 9.3657
48.9734 9.2602
49.1696 9.08041
49.3661 8.9293
49.5626 8.78347
49.7592 8.66194
49.956 8.52205
50.153 8.40778
50.3501 8.24843
50.5474 8.17797
50.7448 8.02786
50.9424 7.9195
51.1402 7.80867
51.3381 7.62132
51.5362 7.54832
51.7344 7.4093
51.9328 7.254
52.1316 7.15352
52.3304 7.04413
52.5293 6.92609
52.7284 6.82838
52.9276 6.68505
53.1271 6.59645
53.3267 6.4748
53.5265 6.36118
53.7264 6.27463
53.9266 6.15736
54.1269 6.06844
54.3274 5.92862
54.528 5.77975
54.7289 5.63062
54.9301 5.46129
55.1314 5.32775
55.3328 5.15702
55.5344 5.00976
55.7361 4.82184