Folder: NiFe_MOF_catalyst_paper/XRD (part 10)

File: Ni3Fe_FD0049.xy
TT I
1.27165 33.2634
1.45013 27.8313
1.62863 23.805
1.80712 21.7399
1.98562 20.9307
2.16411 20.6486
2.34263 21.8955
2.52115 22.3623
2.69965 25.9377
2.87818 37.0528
3.05672 63.8937
3.23527 67.7244
3.4138 35.2943
3.59237 27.0633
3.77094 25.7247
3.9495 26.9018
4.12809 29.5166
4.30669 37.7144
4.4853 37.0114
4.6639 41.8843
4.84253 54.2116
5.02118 103.262
5.19981 305.99
5.37848 3260.7
5.55716 151.827
5.73586 102.723
5.91455 118.292
6.09328 556.478
6.27201 228.699
6.45075 64.6199
6.62952 46.896
6.8083 41.3126
6.98711 40.8207
7.16591 43.3687
7.34475 38.7677
7.5236 57.6776
7.70247 43.6164
7.88135 38.1038
8.06026 40.4975
8.23919 45.8539
8.41812 58.0643
8.59709 182.726
8.77609 398.267
8.9551 74.4933
9.13412 64.6835
9.31318 333.776
9.49226 58.0036
9.67134 56.6611
9.85047 62.6149
10.0296 116.133
10.2088 674.656
10.388 101.907
10.5672 98.0157
10.7465 208.121
10.9257 51.3051
11.105 44.5236
11.2844 42.6245
11.4637 39.478
11.6431 38.6941
11.8225 39.4919
12.002 113.683
12.1814 49.8081
12.3609 87.9101
12.5405 42.3064
12.72 39.6329
12.8996 41.0595
13.0792 47.2933
13.2589 68.5172
13.4386 187.486
13.6183 81.5878
13.7981 186.23
13.9779 55.3871
14.1577 62.0206
14.3376 46.7647
14.5175 41.5021
14.6974 41.3288
14.8774 48.2708
15.0574 74.8315
15.2374 62.7226
15.4175 41.8986
15.5976 40.3187
15.7778 45.2281
15.958 63.0061
16.1382 83.7489
16.3185 38.3953
16.4988 34.9295
16.6792 33.6026
16.8596 33.6542
17.04 42.4576
17.2205 35.4417
17.401 40.2653
17.5815 39.9039
17.7622 37.6184
17.9428 40.8977
18.1237 45.5526
18.3044 85.4243
18.4852 55.7079
18.666 50.1602
18.8469 36.9009
19.0278 35.3899
19.2088 35.574
19.3898 46.8337
19.5709 45.2566
19.752 34.3689
19.9332 33.1557
20.1144 34.0695
20.2957 43.4569
20.477 39.4286
20.6586 33.5428
20.84 34.8954
21.0215 30.3865
21.203 30.0788
21.3846 31.0287
21.5662 31.5678
21.7479 30.8716
21.9297 32.2719
22.1115 41.5821
22.2933 38.0666
22.4753 31.8743
22.6572 30.5674
22.8393 31.9964
23.0214 31.8928
23.2037 37.9001
23.3859 31.8638
23.5682 33.7532
23.7505 35.7404
23.9329 32.3816
24.1154 29.4037
24.2979 27.9676
24.4805 27.4189
24.6631 27.5659
24.8458 27.5217
25.0286 26.8057
25.2114 27.1483
25.3943 28.8835
25.5773 29.4352
25.7605 26.55
25.9436 26.8547
26.1268 25.9049
26.31 26.9432
26.4933 26.1499
26.6767 25.8821
26.8601 27.6836
27.0437 27.8742
27.2272 25.6211
27.4109 24.9722
27.5946 24.9274
27.7784 25.1216
27.9623 24.6202
28.1462 25.514
28.3304 26.0663
28.5145 25.0088
28.6987 23.8922
28.8829 23.0225
29.0673 22.8215
29.2517 22.744
29.4361 22.1239
29.6207 22.1182
29.8053 21.7989
29.99 21.3414
30.1748 21.5169
30.3597 21.0927
30.5447 21.232
30.7297 20.8398
30.915 21.0775
31.1002 21.3154
31.2855 20.6743
31.4708 20.4111
31.6563 20.4141
31.8418 20.391
32.0275 19.9271
32.2132 20.0306
32.399 19.6526
32.5848 19.1118
32.7708 18.7912
32.9569 18.7961
33.143 18.5125
33.3293 18.3321
33.5158 18.4249
33.7022 17.9408
33.8887 17.7176
34.0753 17.4549
34.262 17.2704
34.4488 16.9436
34.6357 16.8421
34.8227 16.5518
35.0098 16.4076
35.1969 16.2457
35.3842 16.1003
35.5716 16.0243
35.759 16.0296
35.9468 15.7893
36.1345 15.5042
36.3222 15.3568
36.5101 15.2624
36.6981 15.0136
36.8861 14.8547
37.0743 14.6638
37.2626 14.4413
37.451 14.2441
37.6395 14.1865
37.8281 13.9353
38.0168 13.8296
38.2056 13.6026
38.3945 13.3662
38.5837 13.2464
38.7728 13.0745
38.9621 12.9275
39.1514 12.7571
39.3409 12.6344
39.5304 12.4674
39.7201 12.3377
39.9099 12.188
40.0999 12.0755
40.2899 11.9439
40.48 11.75
40.6703 11.6662
40.8607 11.5085
41.0512 11.3592
41.242 11.1994
41.4327 11.0581
41.6236 10.9376
41.8146 10.7982
42.0057 10.6316
42.1969 10.5651
42.3882 10.4003
42.5797 10.3006
42.7713 10.1193
42.963 9.98292
43.1549 9.85485
43.3468 9.69249
43.5389 9.62554
43.7312 9.4717
43.9237 9.36008
44.1162 9.2305
44.3088 9.11614
44.5016 8.95193
44.6945 8.88858
44.8875 8.75719
45.0806 8.62101
45.2739 8.53139
45.4673 8.45714
45.6609 8.28124
45.8546 8.18445
46.0484 8.0866
46.2424 7.9572
46.4365 7.83565
46.631 7.74954
46.8254 7.63852
47.0199 7.52779
47.2146 7.41328
47.4095 7.28414
47.6044 7.17095
47.7996 7.05891
47.9948 6.99789
48.1902 6.89135
48.3858 6.80704
48.5815 6.71126
48.7774 6.58874
48.9734 6.5328
49.1696 6.41477
49.3661 6.30719
49.5626 6.26517
49.7592 6.12998
49.956 6.08116
50.153 5.98129
50.3501 5.88622
50.5474 5.81574
50.7448 5.72748
50.9424 5.63383
51.1402 5.56607
51.3381 5.44887
51.5362 5.37103
51.7344 5.3033
51.9328 5.18542
52.1316 5.10783
52.3304 5.05384
52.5293 4.96397
52.7284 4.89826
52.9276 4.81457
53.1271 4.74481
53.3267 4.64675
53.5265 4.55802
53.7264 4.53393
53.9266 4.45853
54.1269 4.32513
54.3274 4.25071
54.528 4.10009
54.7289 3.98872
54.9301 3.90544
55.1314 3.74844
55.3328 3.56138
55.5344 3.44226
55.7361 3.37193

File: Ni3Fe_FD0050.xy
TT I
1.27165 33.0557
1.45013 27.1124
1.62863 23.8017
1.80712 21.0925
1.98562 21.2899
2.16411 20.645
2.34263 21.0451
2.52115 21.8584
2.69965 25.7082
2.87818 37.0961
3.05672 63.4348
3.23527 67.0542
3.4138 34.5745
3.59237 27.1132
3.77094 25.9926
3.9495 26.7119
4.12809 29.4034
4.30669 37.2088
4.4853 37.2687
4.6639 42.1731
4.84253 54.2454
5.02118 103.651
5.19981 307.741
5.37848 3222.55
5.55716 151.598
5.73586 102.881
5.91455 118.494
6.09328 561.058
6.27201 225.467
6.45075 64.254
6.62952 47.2228
6.8083 41.3089
6.98711 40.6666
7.16591 43.5593
7.34475 38.7843
7.5236 58.0474
7.70247 43.8011
7.88135 38.7957
8.06026 40.5863
8.23919 45.8756
8.41812 58.9547
8.59709 183.264
8.77609 388.958
8.9551 74.6333
9.13412 64.2699
9.31318 331.997
9.49226 58.4262
9.67134 56.8964
9.85047 62.8519
10.0296 116.684
10.2088 679.53
10.388 101.52
10.5672 97.7165
10.7465 205.252
10.9257 51.3579
11.105 44.583
11.2844 42.6024
11.4637 39.7228
11.6431 38.9086
11.8225 39.4063
12.002 114.344
12.1814 50.1594
12.3609 87.1198
12.5405 42.3483
12.72 39.7309
12.8996 41.3255
13.0792 47.5458
13.2589 68.6853
13.4386 188.338
13.6183 81.5605
13.7981 185.697
13.9779 55.0987
14.1577 62.6308
14.3376 46.953
14.5175 41.394
14.6974 41.3055
14.8774 48.6559
15.0574 75.6355
15.2374 62.1402
15.4175 41.8618
15.5976 40.7241
15.7778 45.385
15.958 63.5451
16.1382 82.5439
16.3185 38.4171
16.4988 34.915
16.6792 33.8922
16.8596 33.7525
17.04 42.5385
17.2205 35.6472
17.401 40.6461
17.5815 39.9808
17.7622 37.8814
17.9428 41.1979
18.1237 45.7324
18.3044 84.3342
18.4852 55.6604
18.666 49.8732
18.8469 37.1459
19.0278 35.5368
19.2088 35.678
19.3898 47.1139
19.5709 44.981
19.752 34.3011
19.9332 33.3098
20.1144 34.0413
20.2957 43.2373
20.477 39.4205
20.6586 33.5513
20.84 34.9268
21.0215 30.5625
21.203 29.9873
21.3846 31.1136
21.5662 31.5236
21.7479 30.9704
21.9297 32.2448
22.1115 41.3014
22.2933 37.9729
22.4753 31.8811
22.6572 30.5337
22.8393 32.1136
23.0214 31.8944
23.2037 37.718
23.3859 31.8099
23.5682 33.8113
23.7505 35.8912
23.9329 32.1229
24.1154 29.4696
24.2979 28.0593
24.4805 27.2781
24.6631 27.6949
24.8458 27.554
25.0286 26.971
25.2114 27.1719
25.3943 28.7158
25.5773 29.4845
25.7605 26.6255
25.9436 26.7641
26.1268 25.8458
26.31 26.9998
26.4933 26.1925
26.6767 25.8138
26.8601 27.6772
27.0437 27.7259
27.2272 25.5581
27.4109 24.9347
27.5946 24.964
27.7784 25.3011
27.9623 24.4618
28.1462 25.4676
28.3304 25.935
28.5145 24.9135
28.6987 23.9031
28.8829 23.0879
29.0673 22.9197
29.2517 22.6657
29.4361 22.0816
29.6207 22.1472
29.8053 21.7315
29.99 21.375
30.1748 21.519
30.3597 21.1483
30.5447 21.1198
30.7297 20.8692
30.915 21.1207
31.1002 21.3582
31.2855 20.5231
31.4708 20.3086
31.6563 20.4398
31.8418 20.3867
32.0275 19.8828
32.2132 19.9472
32.399 19.5774
32.5848 19.2651
32.7708 18.8269
32.9569 18.798
33.143 18.5761
33.3293 18.3092
33.5158 18.3414
33.7022 18.0199
33.8887 17.6714
34.0753 17.5469
34.262 17.2638
34.4488 16.9531
34.6357 16.8741
34.8227 16.6237
35.0098 16.4173
35.1969 16.269
35.3842 16.116
35.5716 16.0849
35.759 16.0892
35.9468 15.7048
36.1345 15.477
36.3222 15.3555
36.5101 15.2761
36.6981 14.9845
36.8861 14.9134
37.0743 14.6579
37.2626 14.5015
37.451 14.2844
37.6395 14.1678
37.8281 13.9398
38.0168 13.7457
38.2056 13.546
38.3945 13.3856
38.5837 13.2111
38.7728 13.0586
38.9621 12.9754
39.1514 12.7458
39.3409 12.5653
39.5304 12.5042
39.7201 12.3442
39.9099 12.225
40.0999 12.0848
40.2899 11.9087
40.48 11.6878
40.6703 11.6533
40.8607 11.4984
41.0512 11.3311
41.242 11.2168
41.4327 11.0619
41.6236 10.8937
41.8146 10.8268
42.0057 10.6547
42.1969 10.4844
42.3882 10.3678
42.5797 10.2773
42.7713 10.11
42.963 9.96707
43.1549 9.87841
43.3468 9.6681
43.5389 9.58832
43.7312 9.46765
43.9237 9.34446
44.1162 9.20078
44.3088 9.09298
44.5016 8.96748
44.6945 8.86311
44.8875 8.71761
45.0806 8.6419
45.2739 8.51299
45.4673 8.37391
45.6609 8.27346
45.8546 8.19768
46.0484 8.05099
46.2424 7.91811
46.4365 7.87577
46.631 7.72569
46.8254 7.61048
47.0199 7.51014
47.2146 7.42334
47.4095 7.26233
47.6044 7.1667
47.7996 7.0712
47.9948 7.00832
48.1902 6.87945
48.3858 6.80105
48.5815 6.68641
48.7774 6.61412
48.9734 6.5107
49.1696 6.39096
49.3661 6.28408
49.5626 6.2184
49.7592 6.14864
49.956 6.06071
50.153 5.95608
50.3501 5.87299
50.5474 5.81547
50.7448 5.71508
50.9424 5.62885
51.1402 5.54313
51.3381 5.48942
51.5362 5.37261
51.7344 5.31224
51.9328 5.21028
52.1316 5.13463
52.3304 5.05338
52.5293 4.94933
52.7284 4.86907
52.9276 4.81568
53.1271 4.77941
53.3267 4.66949
53.5265 4.57528
53.7264 4.51017
53.9266 4.38583
54.1269 4.32611
54.3274 4.25128
54.528 4.08814
54.7289 4.00907
54.9301 3.83488
55.1314 3.73578
55.3328 3.59096
55.5344 3.4348
55.7361 3.42415

File: Ni3Fe_FD0051.xy
TT I
1.27165 33.0656
1.45013 26.9821
1.62863 23.4565
1.80712 21.5915
1.98562 20.4401
2.16411 20.2621
2.34263 21.3031
2.52115 21.6065
2.69965 25.7252
2.87818 36.3123
3.05672 63.5692
3.23527 66.7657
3.4138 34.3553
3.59237 26.657
3.77094 25.7589
3.9495 26.8893
4.12809 29.0622
4.30669 37.8744
4.4853 37.4454
4.6639 42.1365
4.84253 54.4127
5.02118 104.049
5.19981 310.206
5.37848 3182.24
5.55716 151.855
5.73586 102.954
5.91455 118.858
6.09328 563.785
6.27201 222.902
6.45075 64.3327
6.62952 47.2319
6.8083 41.4233
6.98711 40.6801
7.16591 43.8353
7.34475 39.3055
7.5236 58.7198
7.70247 43.8041
7.88135 38.4564
8.06026 40.5824
8.23919 46.2545
8.41812 58.9966
8.59709 184.401
8.77609 380.154
8.9551 74.5246
9.13412 64.9694
9.31318 330.344
9.49226 58.6848
9.67134 57.2045
9.85047 63.1895
10.0296 118.174
10.2088 683.022
10.388 100.728
10.5672 98.055
10.7465 202.069
10.9257 51.5795
11.105 44.904
11.2844 42.7776
11.4637 39.8742
11.6431 39.0136
11.8225 39.8811
12.002 114.803
12.1814 50.3463
12.3609 86.4685
12.5405 42.3166
12.72 39.7466
12.8996 41.4289
13.0792 47.7701
13.2589 68.6142
13.4386 188.817
13.6183 81.1963
13.7981 184.749
13.9779 54.9131
14.1577 63.8266
14.3376 46.7683
14.5175 41.4908
14.6974 41.3067
14.8774 48.6496
15.0574 76.6115
15.2374 61.4816
15.4175 41.9304
15.5976 40.7421
15.7778 45.7394
15.958 63.9807
16.1382 81.3702
16.3185 38.316
16.4988 35.0203
16.6792 33.6611
16.8596 33.9929
17.04 42.4212
17.2205 35.6945
17.401 40.75
17.5815 39.5133
17.7622 38.0713
17.9428 41.0674
18.1237 45.7169
18.3044 83.2732
18.4852 56.0361
18.666 49.4137
18.8469 37.2417
19.0278 35.4301
19.2088 35.6149
19.3898 47.3079
19.5709 44.7138
19.752 34.4413
19.9332 33.4039
20.1144 34.3556
20.2957 42.8168
20.477 39.5341
20.6586 33.3862
20.84 35.0124
21.0215 30.4113
21.203 30.1212
21.3846 31.1015
21.5662 31.6543
21.7479 30.9534
21.9297 32.338
22.1115 41.2039
22.2933 37.5471
22.4753 31.9062
22.6572 30.7058
22.8393 31.9482
23.0214 31.8887
23.2037 37.3792
23.3859 31.8506
23.5682 33.5461
23.7505 35.7678
23.9329 31.9436
24.1154 29.6265
24.2979 27.9791
24.4805 27.4052
24.6631 27.6529
24.8458 27.5442
25.0286 26.9079
25.2114 27.1589
25.3943 28.6734
25.5773 29.2858
25.7605 26.5972
25.9436 26.8293
26.1268 25.8719
26.31 26.9215
26.4933 26.2156
26.6767 25.8514
26.8601 27.5863
27.0437 27.7287
27.2272 25.6065
27.4109 24.904
27.5946 24.9959
27.7784 25.1194
27.9623 24.5829
28.1462 25.4039
28.3304 25.8974
28.5145 24.6711
28.6987 23.8387
28.8829 23.0577
29.0673 22.8614
29.2517 22.7179
29.4361 22.0848
29.6207 22.1372
29.8053 21.7049
29.99 21.4156
30.1748 21.5569
30.3597 21.1674
30.5447 21.1153
30.7297 20.86
30.915 21.1265
31.1002 21.1689
31.2855 20.53
31.4708 20.2816
31.6563 20.3609
31.8418 20.3325
32.0275 19.8897
32.2132 20.0374
32.399 19.5673
32.5848 19.1391
32.7708 18.8246
32.9569 18.7797
33.143 18.4959
33.3293 18.2254
33.5158 18.3261
33.7022 17.9752
33.8887 17.5862
34.0753 17.4641
34.262 17.2347
34.4488 17.038
34.6357 16.851
34.8227 16.5621
35.0098 16.3686
35.1969 16.2279
35.3842 16.1192
35.5716 15.9331
35.759 15.9873
35.9468 15.7385
36.1345 15.4925
36.3222 15.3189
36.5101 15.2827
36.6981 14.9709
36.8861 14.8222
37.0743 14.5869
37.2626 14.4281
37.451 14.2495
37.6395 14.1062
37.8281 13.9434
38.0168 13.752
38.2056 13.4992
38.3945 13.328
38.5837 13.2017
38.7728 13.1033
38.9621 12.9435
39.1514 12.7366
39.3409 12.6305
39.5304 12.4456
39.7201 12.3294
39.9099 12.1845
40.0999 12.0321
40.2899 11.8987
40.48 11.6991
40.6703 11.632
40.8607 11.4932
41.0512 11.3745
41.242 11.1393
41.4327 11.0976
41.6236 10.864
41.8146 10.7768
42.0057 10.6463
42.1969 10.5056
42.3882 10.3527
42.5797 10.2378
42.7713 10.0995
42.963 9.98771
43.1549 9.78804
43.3468 9.67202
43.5389 9.55867
43.7312 9.47614
43.9237 9.28689
44.1162 9.23458
44.3088 9.12593
44.5016 8.94921
44.6945 8.84862
44.8875 8.71708
45.0806 8.62471
45.2739 8.514
45.4673 8.3853
45.6609 8.2552
45.8546 8.16763
46.0484 8.05455
46.2424 7.91997
46.4365 7.84868
46.631 7.72328
46.8254 7.60577
47.0199 7.44618
47.2146 7.3943
47.4095 7.29759
47.6044 7.20842
47.7996 7.08986
47.9948 6.97731
48.1902 6.87692
48.3858 6.77544
48.5815 6.70102
48.7774 6.60666
48.9734 6.51705
49.1696 6.4121
49.3661 6.3141
49.5626 6.23295
49.7592 6.16522
49.956 6.07331
50.153 5.96403
50.3501 5.90033
50.5474 5.80305
50.7448 5.73183
50.9424 5.62039
51.1402 5.56213
51.3381 5.43548
51.5362 5.38103
51.7344 5.30025
51.9328 5.20014
52.1316 5.10903
52.3304 5.01256
52.5293 4.97726
52.7284 4.88913
52.9276 4.80923
53.1271 4.75722
53.3267 4.6714
53.5265 4.54221
53.7264 4.4919
53.9266 4.42689
54.1269 4.34244
54.3274 4.23081
54.528 4.10702
54.7289 3.95331
54.9301 3.84784
55.1314 3.78144
55.3328 3.57533
55.5344 3.41248
55.7361 3.36245

File: Ni3Fe_FD0052.xy
TT I
1.27165 33.0728
1.45013 26.4982
1.62863 23.3931
1.80712 21.2653
1.98562 20.9972
2.16411 20.2957
2.34263 20.7121
2.52115 22.0127
2.69965 25.9705
2.87818 36.2124
3.05672 63.9577
3.23527 66.8015
3.4138 34.6526
3.59237 26.7598
3.77094 26.1569
3.9495 26.6041
4.12809 29.4245
4.30669 37.4943
4.4853 37.5018
4.6639 42.222
4.84253 54.4907
5.02118 103.96
5.19981 312.756
5.37848 3148.91
5.55716 151.105
5.73586 103.182
5.91455 118.825
6.09328 568.404
6.27201 220.051
6.45075 64.4044
6.62952 47.3338
6.8083 41.6565
6.98711 40.7244
7.16591 43.5694
7.34475 39.1699
7.5236 59.5229
7.70247 44.0895
7.88135 38.6917
8.06026 40.7519
8.23919 46.3721
8.41812 59.1889
8.59709 185.247
8.77609 371.553
8.9551 74.6289
9.13412 65.2441
9.31318 327.676
9.49226 58.9873
9.67134 57.4561
9.85047 63.6557
10.0296 119.237
10.2088 686.264
10.388 100.025
10.5672 98.3676
10.7465 199.365
10.9257 51.7802
11.105 44.9812
11.2844 42.9557
11.4637 39.9315
11.6431 39.2391
11.8225 39.9301
12.002 115.182
12.1814 50.3018
12.3609 85.3713
12.5405 42.6747
12.72 39.9822
12.8996 41.5377
13.0792 47.8026
13.2589 68.6394
13.4386 189.017
13.6183 80.5915
13.7981 184.261
13.9779 54.8425
14.1577 64.4561
14.3376 46.8087
14.5175 41.9898
14.6974 41.4388
14.8774 48.8348
15.0574 77.2773
15.2374 60.8055
15.4175 42.1976
15.5976 40.6423
15.7778 45.7819
15.958 64.6831
16.1382 80.6331
16.3185 38.4897
16.4988 34.9834
16.6792 34.0456
16.8596 33.9782
17.04 42.3108
17.2205 35.8496
17.401 40.8472
17.5815 39.5338
17.7622 38.2269
17.9428 41.1921
18.1237 45.8714
18.3044 82.2774
18.4852 56.3291
18.666 49.1136
18.8469 37.4471
19.0278 35.5716
19.2088 35.8223
19.3898 47.2511
19.5709 44.6017
19.752 34.4427
19.9332 33.5402
20.1144 34.4105
20.2957 42.9054
20.477 39.4498
20.6586 33.5633
20.84 35.0008
21.0215 30.6978
21.203 30.202
21.3846 31.2729
21.5662 31.764
21.7479 30.9878
21.9297 32.4237
22.1115 41.1175
22.2933 37.6318
22.4753 31.8578
22.6572 30.7486
22.8393 32.1591
23.0214 31.8996
23.2037 37.4256
23.3859 31.8142
23.5682 33.4805
23.7505 35.8392
23.9329 31.7493
24.1154 29.5579
24.2979 27.944
24.4805 27.4641
24.6631 27.771
24.8458 27.644
25.0286 26.8884
25.2114 27.1797
25.3943 28.6225
25.5773 29.1794
25.7605 26.5373
25.9436 26.7923
26.1268 26.0351
26.31 26.9677
26.4933 26.0489
26.6767 25.9868
26.8601 27.5869
27.0437 27.5878
27.2272 25.5033
27.4109 24.877
27.5946 24.9439
27.7784 25.1673
27.9623 24.6358
28.1462 25.354
28.3304 25.8096
28.5145 24.7956
28.6987 23.6765
28.8829 22.9537
29.0673 22.919
29.2517 22.6933
29.4361 22.1102
29.6207 22.1864
29.8053 21.6983
29.99 21.4082
30.1748 21.5119
30.3597 21.1444
30.5447 21.1067
30.7297 20.8882
30.915 21.1022
31.1002 21.1981
31.2855 20.577
31.4708 20.2682
31.6563 20.389
31.8418 20.2427
32.0275 19.8532
32.2132 19.9274
32.399 19.5638
32.5848 19.1535
32.7708 18.8224
32.9569 18.7023
33.143 18.4758
33.3293 18.1982
33.5158 18.3237
33.7022 17.921
33.8887 17.6019
34.0753 17.3463
34.262 17.227
34.4488 16.9575
34.6357 16.8825
34.8227 16.6003
35.0098 16.3685
35.1969 16.2075
35.3842 16.0437
35.5716 15.9313
35.759 16.0056
35.9468 15.6979
36.1345 15.5032
36.3222 15.3067
36.5101 15.2597
36.6981 15.0305
36.8861 14.8444
37.0743 14.5503
37.2626 14.4007
37.451 14.2324
37.6395 14.1237
37.8281 13.9629
38.0168 13.7597
38.2056 13.5982
38.3945 13.3544
38.5837 13.2662
38.7728 13.1022
38.9621 12.9414
39.1514 12.7929
39.3409 12.6249
39.5304 12.4995
39.7201 12.3059
39.9099 12.1738
40.0999 12.0422
40.2899 11.8753
40.48 11.7101
40.6703 11.6246
40.8607 11.4904
41.0512 11.3415
41.242 11.1645
41.4327 11.0836
41.6236 10.9095
41.8146 10.7952
42.0057 10.6268
42.1969 10.4876
42.3882 10.382
42.5797 10.2201
42.7713 10.108
42.963 9.92084
43.1549 9.82781
43.3468 9.70504
43.5389 9.57166
43.7312 9.41092
43.9237 9.30149
44.1162 9.21576
44.3088 9.07016
44.5016 8.97419
44.6945 8.87056
44.8875 8.71264
45.0806 8.58983
45.2739 8.49805
45.4673 8.3703
45.6609 8.25746
45.8546 8.17315
46.0484 8.08442
46.2424 7.98803
46.4365 7.83534
46.631 7.69269
46.8254 7.56668
47.0199 7.50435
47.2146 7.43277
47.4095 7.2643
47.6044 7.18063
47.7996 7.09274
47.9948 6.9343
48.1902 6.87365
48.3858 6.78872
48.5815 6.66808
48.7774 6.60401
48.9734 6.49893
49.1696 6.44448
49.3661 6.28935
49.5626 6.22414
49.7592 6.14889
49.956 6.06042
50.153 5.95277
50.3501 5.87556
50.5474 5.81278
50.7448 5.74605
50.9424 5.64146
51.1402 5.53139
51.3381 5.46045
51.5362 5.38581
51.7344 5.26778
51.9328 5.21791
52.1316 5.11253
52.3304 5.05811
52.5293 4.94856
52.7284 4.906
52.9276 4.82147
53.1271 4.74783
53.3267 4.69163
53.5265 4.56141
53.7264 4.47749
53.9266 4.42001
54.1269 4.32313
54.3274 4.23178
54.528 4.08513
54.7289 3.97526
54.9301 3.82893
55.1314 3.77011
55.3328 3.56603
55.5344 3.41948
55.7361 3.40254

File: Ni3Fe_FD0053.xy
TT I
1.27165 33.2575
1.45013 26.6115
1.62863 23.3058
1.80712 21.1901
1.98562 21.2681
2.16411 20.9086
2.34263 21.6868
2.52115 22.3487
2.69965 25.9181
2.87818 37.1808
3.05672 63.8761
3.23527 66.7988
3.4138 34.425
3.59237 27.2808
3.77094 26.0179
3.9495 27.2217
4.12809 29.2241
4.30669 37.5476
4.4853 37.6022
4.6639 42.8153
4.84253 55.0922
5.02118 104.873
5.19981 314.241
5.37848 3114.72
5.55716 150.598
5.73586 103.022
5.91455 118.684
6.09328 573.8
6.27201 218.419
6.45075 64.3911
6.62952 47.3688
6.8083 42.1209
6.98711 40.743
7.16591 43.2542
7.34475 39.4691
7.5236 59.5178
7.70247 43.6698
7.88135 38.7661
8.06026 40.7866
8.23919 46.6901
8.41812 59.2744
8.59709 186.788
8.77609 364.698
8.9551 74.44
9.13412 65.2324
9.31318 325.63
9.49226 58.8277
9.67134 57.4987
9.85047 63.809
10.0296 120.385
10.2088 690.635
10.388 99.6616
10.5672 98.8853
10.7465 196.602
10.9257 52.0401
11.105 45.1497
11.2844 42.8361
11.4637 40.2672
11.6431 39.5016
11.8225 39.8308
12.002 115.467
12.1814 50.5407
12.3609 85.4094
12.5405 42.278
12.72 40.0252
12.8996 41.7149
13.0792 48.2969
13.2589 68.9013
13.4386 189.132
13.6183 80.5896
13.7981 183.362
13.9779 54.6775
14.1577 65.1715
14.3376 47.0696
14.5175 42.0632
14.6974 41.7069
14.8774 49.1562
15.0574 77.9696
15.2374 60.2278
15.4175 42.0553
15.5976 40.9508
15.7778 45.8451
15.958 64.8422
16.1382 79.2114
16.3185 38.5301
16.4988 35.2491
16.6792 34.0915
16.8596 34.0831
17.04 42.0467
17.2205 35.7934
17.401 41.2588
17.5815 39.4586
17.7622 38.4021
17.9428 41.3231
18.1237 45.9917
18.3044 81.2666
18.4852 56.2128
18.666 48.5309
18.8469 37.4127
19.0278 35.6565
19.2088 35.95
19.3898 47.3444
19.5709 44.411
19.752 34.5651
19.9332 33.587
20.1144 34.2917
20.2957 42.59
20.477 39.4254
20.6586 33.451
20.84 35.0843
21.0215 30.5932
21.203 30.2989
21.3846 31.3428
21.5662 31.5634
21.7479 31.1287
21.9297 32.3423
22.1115 40.9468
22.2933 37.4433
22.4753 31.7344
22.6572 30.7401
22.8393 32.214
23.0214 31.8855
23.2037 37.1158
23.3859 31.84
23.5682 33.4177
23.7505 35.8828
23.9329 31.6552
24.1154 29.5065
24.2979 28.0546
24.4805 27.3115
24.6631 27.89
24.8458 27.5677
25.0286 26.9346
25.2114 27.1712
25.3943 28.6615
25.5773 29.1276
25.7605 26.524
25.9436 26.7857
26.1268 25.8691
26.31 26.9176
26.4933 26.1838
26.6767 25.966
26.8601 27.5025
27.0437 27.5444
27.2272 25.5103
27.4109 24.9607
27.5946 25.0303
27.7784 25.0787
27.9623 24.5727
28.1462 25.2375
28.3304 25.685
28.5145 24.5975
28.6987 23.7043
28.8829 23.0694
29.0673 22.7195
29.2517 22.6466
29.4361 22.1189
29.6207 22.1084
29.8053 21.7186
29.99 21.3897
30.1748 21.5454
30.3597 21.166
30.5447 21.0639
30.7297 20.9362
30.915 21.1743
31.1002 21.1216
31.2855 20.5742
31.4708 20.3158
31.6563 20.2866
31.8418 20.1933
32.0275 19.9133
32.2132 19.8626
32.399 19.5275
32.5848 19.0493
32.7708 18.7755
32.9569 18.7212
33.143 18.5137
33.3293 18.2223
33.5158 18.2422
33.7022 17.9085
33.8887 17.7199
34.0753 17.3997
34.262 17.1967
34.4488 16.969
34.6357 16.7946
34.8227 16.5786
35.0098 16.3572
35.1969 16.1549
35.3842 16.0235
35.5716 15.9148
35.759 15.9501
35.9468 15.707
36.1345 15.4716
36.3222 15.3492
36.5101 15.1805
36.6981 14.9397
36.8861 14.7813
37.0743 14.6296
37.2626 14.3742
37.451 14.172
37.6395 14.1154
37.8281 13.8603
38.0168 13.7376
38.2056 13.5371
38.3945 13.3907
38.5837 13.2341
38.7728 13.066
38.9621 12.8447
39.1514 12.7637
39.3409 12.577
39.5304 12.4257
39.7201 12.3191
39.9099 12.1261
40.0999 12.0828
40.2899 11.8851
40.48 11.6831
40.6703 11.607
40.8607 11.4979
41.0512 11.358
41.242 11.1735
41.4327 11.0012
41.6236 10.9323
41.8146 10.7651
42.0057 10.6201
42.1969 10.5379
42.3882 10.4045
42.5797 10.189
42.7713 10.0886
42.963 9.98712
43.1549 9.84793
43.3468 9.67163
43.5389 9.56349
43.7312 9.47628
43.9237 9.32061
44.1162 9.17212
44.3088 9.06957
44.5016 8.94
44.6945 8.8538
44.8875 8.71913
45.0806 8.58548
45.2739 8.51036
45.4673 8.37585
45.6609 8.26708
45.8546 8.13948
46.0484 8.04132
46.2424 7.92878
46.4365 7.81323
46.631 7.6876
46.8254 7.61132
47.0199 7.4953
47.2146 7.41172
47.4095 7.28998
47.6044 7.14995
47.7996 7.06782
47.9948 6.98372
48.1902 6.86294
48.3858 6.76277
48.5815 6.71152
48.7774 6.60689
48.9734 6.48276
49.1696 6.37638
49.3661 6.28558
49.5626 6.1979
49.7592 6.09822
49.956 6.03467
50.153 5.9693
50.3501 5.88462
50.5474 5.79356
50.7448 5.72222
50.9424 5.63034
51.1402 5.53556
51.3381 5.46282
51.5362 5.37484
51.7344 5.28211
51.9328 5.20975
52.1316 5.09571
52.3304 5.06331
52.5293 4.94752
52.7284 4.89136
52.9276 4.79162
53.1271 4.74704
53.3267 4.65921
53.5265 4.58888
53.7264 4.52003
53.9266 4.4223
54.1269 4.33321
54.3274 4.19822
54.528 4.12614
54.7289 3.97406
54.9301 3.85817
55.1314 3.72958
55.3328 3.6071
55.5344 3.42223
55.7361 3.35702