Folder: NiFe_MOF_catalyst_paper/XRD (part 21)

File: Ni3Fe_FD0105.xy
TT I
1.27165 8.44018
1.45013 6.63703
1.62863 5.58184
1.80712 5.56046
1.98562 5.06133
2.16411 4.82395
2.34263 4.29297
2.52115 4.38746
2.69965 5.41774
2.87818 7.59954
3.05672 10.9595
3.23527 14.6687
3.4138 18.4071
3.59237 21.4352
3.77094 24.9729
3.9495 28.2461
4.12809 32.3562
4.30669 37.0153
4.4853 44.437
4.6639 53.5729
4.84253 65.6691
5.02118 92.1729
5.19981 648.295
5.37848 628.214
5.55716 110.834
5.73586 97.0896
5.91455 110.247
6.09328 2266.22
6.27201 94.3648
6.45075 67.0478
6.62952 59.1104
6.8083 55.4921
6.98711 52.5312
7.16591 51.5379
7.34475 51.229
7.5236 57.7334
7.70247 53.1845
7.88135 55.1889
8.06026 59.9479
8.23919 67.1636
8.41812 84.1742
8.59709 779.26
8.77609 126.361
8.9551 84.8323
9.13412 80.5725
9.31318 92.6315
9.49226 82.4492
9.67134 87.9107
9.85047 98.2316
10.0296 584.091
10.2088 1140.36
10.388 104.983
10.5672 274.687
10.7465 93.8773
10.9257 75.003
11.105 69.3858
11.2844 65.4058
11.4637 62.7788
11.6431 61.3879
11.8225 60.1997
12.002 67.924
12.1814 106.72
12.3609 79.8074
12.5405 61.9987
12.72 64.157
12.8996 68.709
13.0792 78.9062
13.2589 187.603
13.4386 243.581
13.6183 172.252
13.7981 176.482
13.9779 75.3685
14.1577 76.0051
14.3376 67.8384
14.5175 67.2906
14.6974 68.7205
14.8774 119.952
15.0574 206.203
15.2374 68.5281
15.4175 65.445
15.5976 64.7628
15.7778 107.74
15.958 176.653
16.1382 61.8512
16.3185 56.5151
16.4988 54.1007
16.6792 53.2936
16.8596 53.5008
17.04 54.6307
17.2205 63.3662
17.401 81.0778
17.5815 58.2783
17.7622 60.6773
17.9428 84.6175
18.1237 102.894
18.3044 87.2761
18.4852 98.1905
18.666 60.0403
18.8469 57.3597
19.0278 55.857
19.2088 61.4863
19.3898 65.6274
19.5709 56.6904
19.752 52.5576
19.9332 57.839
20.1144 63.9774
20.2957 59.592
20.477 60.3311
20.6586 49.2337
20.84 48.5283
21.0215 48.4522
21.203 48.6452
21.3846 50.139
21.5662 48.2946
21.7479 53.4954
21.9297 59.1468
22.1115 55.8406
22.2933 52.6499
22.4753 48.098
22.6572 48.3408
22.8393 50.9235
23.0214 54.9021
23.2037 49.459
23.3859 51.3537
23.5682 51.4389
23.7505 54.1587
23.9329 45.2879
24.1154 43.6651
24.2979 43.045
24.4805 42.4591
24.6631 42.5797
24.8458 41.8954
25.0286 42.3257
25.2114 43.5685
25.3943 43.8108
25.5773 41.3743
25.7605 40.3538
25.9436 40.5433
26.1268 40.6914
26.31 40.7086
26.4933 40.3292
26.6767 41.1291
26.8601 40.9813
27.0437 39.1639
27.2272 38.437
27.4109 38.0342
27.5946 38.1722
27.7784 38.0631
27.9623 37.7708
28.1462 38.5366
28.3304 37.6663
28.5145 35.9872
28.6987 35.4203
28.8829 35.0076
29.0673 34.6356
29.2517 34.1059
29.4361 33.7436
29.6207 33.19
29.8053 32.6654
29.99 32.4319
30.1748 32.0802
30.3597 32.0901
30.5447 31.8895
30.7297 31.7961
30.915 31.679
31.1002 31.0488
31.2855 30.7078
31.4708 30.4211
31.6563 30.5496
31.8418 29.9478
32.0275 29.7064
32.2132 29.3436
32.399 28.7084
32.5848 28.2831
32.7708 28.0246
32.9569 27.8536
33.143 27.4876
33.3293 27.2199
33.5158 27.0185
33.7022 26.3661
33.8887 26.0989
34.0753 25.8705
34.262 25.3953
34.4488 25.1525
34.6357 24.806
34.8227 24.4995
35.0098 24.2614
35.1969 23.9973
35.3842 23.7535
35.5716 23.5863
35.759 23.2931
35.9468 22.9198
36.1345 22.7103
36.3222 22.4664
36.5101 22.1783
36.6981 21.9686
36.8861 21.609
37.0743 21.3007
37.2626 21.1467
37.451 20.7835
37.6395 20.6236
37.8281 20.2503
38.0168 20.0637
38.2056 19.7664
38.3945 19.5188
38.5837 19.2508
38.7728 19.0878
38.9621 18.8015
39.1514 18.4697
39.3409 18.2857
39.5304 18.1443
39.7201 17.9613
39.9099 17.6808
40.0999 17.441
40.2899 17.2146
40.48 16.9505
40.6703 16.7876
40.8607 16.565
41.0512 16.4144
41.242 16.1703
41.4327 15.9404
41.6236 15.7069
41.8146 15.5257
42.0057 15.2848
42.1969 15.1395
42.3882 14.8987
42.5797 14.7277
42.7713 14.5039
42.963 14.2597
43.1549 14.0961
43.3468 13.8678
43.5389 13.7039
43.7312 13.53
43.9237 13.3637
44.1162 13.1508
44.3088 12.971
44.5016 12.7552
44.6945 12.6369
44.8875 12.4374
45.0806 12.2494
45.2739 12.1133
45.4673 11.9064
45.6609 11.7158
45.8546 11.575
46.0484 11.4121
46.2424 11.2502
46.4365 11.1188
46.631 10.953
46.8254 10.7564
47.0199 10.6215
47.2146 10.5066
47.4095 10.2858
47.6044 10.1506
47.7996 9.99932
47.9948 9.86468
48.1902 9.72699
48.3858 9.57858
48.5815 9.45007
48.7774 9.35046
48.9734 9.18386
49.1696 9.04272
49.3661 8.90343
49.5626 8.77005
49.7592 8.64013
49.956 8.53141
50.153 8.3811
50.3501 8.26942
50.5474 8.12435
50.7448 8.01841
50.9424 7.86637
51.1402 7.74579
51.3381 7.63006
51.5362 7.50531
51.7344 7.39325
51.9328 7.25791
52.1316 7.1326
52.3304 7.02798
52.5293 6.90168
52.7284 6.8091
52.9276 6.72105
53.1271 6.58101
53.3267 6.47604
53.5265 6.34955
53.7264 6.22018
53.9266 6.14336
54.1269 6.01747
54.3274 5.87928
54.528 5.71327
54.7289 5.53758
54.9301 5.38452
55.1314 5.23357
55.3328 4.96384
55.5344 4.80087
55.7361 4.74065

File: Ni3Fe_FD0106.xy
TT I
1.27165 8.17298
1.45013 7.07216
1.62863 6.25375
1.80712 5.31328
1.98562 5.13027
2.16411 4.7831
2.34263 3.89837
2.52115 4.52047
2.69965 4.69085
2.87818 7.63666
3.05672 10.3491
3.23527 15.0398
3.4138 18.4072
3.59237 21.1431
3.77094 24.6607
3.9495 28.0225
4.12809 32.2045
4.30669 36.9536
4.4853 44.2373
4.6639 52.7788
4.84253 65.2618
5.02118 91.8425
5.19981 638.918
5.37848 627.049
5.55716 110.385
5.73586 96.8679
5.91455 109.694
6.09328 2287.18
6.27201 93.8106
6.45075 66.3939
6.62952 59.5686
6.8083 55.0719
6.98711 52.8292
7.16591 51.7403
7.34475 51.5343
7.5236 57.4687
7.70247 53.1018
7.88135 55.5138
8.06026 59.744
8.23919 67.0208
8.41812 83.9039
8.59709 783.095
8.77609 125.957
8.9551 84.713
9.13412 80.9328
9.31318 91.7631
9.49226 82.4733
9.67134 87.4058
9.85047 98.1255
10.0296 580.829
10.2088 1151.39
10.388 104.598
10.5672 277.04
10.7465 93.3317
10.9257 74.7368
11.105 69.1246
11.2844 65.0495
11.4637 62.6586
11.6431 61.1801
11.8225 60.2799
12.002 67.7563
12.1814 106.623
12.3609 79.6066
12.5405 62.3586
12.72 64.3022
12.8996 68.698
13.0792 78.5103
13.2589 188.605
13.4386 241.302
13.6183 173.045
13.7981 174.838
13.9779 74.9647
14.1577 75.5953
14.3376 68.0115
14.5175 67.527
14.6974 68.7631
14.8774 120.037
15.0574 206.856
15.2374 68.6046
15.4175 65.0638
15.5976 64.8957
15.7778 107.488
15.958 177.707
16.1382 62.0533
16.3185 56.5615
16.4988 54.0395
16.6792 53.2419
16.8596 53.412
17.04 54.4887
17.2205 63.3798
17.401 81.2642
17.5815 58.1378
17.7622 60.3851
17.9428 84.4212
18.1237 103.403
18.3044 87.4013
18.4852 98.3417
18.666 60.1626
18.8469 57.4626
19.0278 55.9408
19.2088 61.4798
19.3898 65.5734
19.5709 56.7028
19.752 52.5574
19.9332 57.7957
20.1144 64.3848
20.2957 59.6519
20.477 60.2648
20.6586 49.1707
20.84 48.3912
21.0215 48.3495
21.203 48.5534
21.3846 50.1827
21.5662 48.1991
21.7479 53.3695
21.9297 59.1573
22.1115 55.869
22.2933 52.6904
22.4753 48.2748
22.6572 48.3585
22.8393 51.0916
23.0214 55.1031
23.2037 49.6684
23.3859 51.4907
23.5682 51.4969
23.7505 54.195
23.9329 44.932
24.1154 43.794
24.2979 43.078
24.4805 42.3592
24.6631 42.6354
24.8458 41.8569
25.0286 42.3353
25.2114 43.6186
25.3943 43.7782
25.5773 41.4477
25.7605 40.1749
25.9436 40.4618
26.1268 40.7276
26.31 40.5793
26.4933 40.1935
26.6767 41.1675
26.8601 40.9124
27.0437 39.0834
27.2272 38.3217
27.4109 38.1277
27.5946 38.1746
27.7784 38.0159
27.9623 37.8647
28.1462 38.6649
28.3304 37.5607
28.5145 35.8158
28.6987 35.4231
28.8829 34.9477
29.0673 34.7043
29.2517 34.0053
29.4361 33.6402
29.6207 33.2011
29.8053 32.5415
29.99 32.4063
30.1748 32.0714
30.3597 32.1192
30.5447 31.8848
30.7297 31.7175
30.915 31.6307
31.1002 30.9876
31.2855 30.6324
31.4708 30.4191
31.6563 30.4979
31.8418 29.926
32.0275 29.7432
32.2132 29.3382
32.399 28.71
32.5848 28.3381
32.7708 27.9505
32.9569 27.7663
33.143 27.5374
33.3293 27.213
33.5158 26.9639
33.7022 26.4543
33.8887 26.1161
34.0753 25.7691
34.262 25.4129
34.4488 25.0886
34.6357 24.7415
34.8227 24.4382
35.0098 24.2546
35.1969 23.9684
35.3842 23.7409
35.5716 23.5923
35.759 23.3458
35.9468 22.9303
36.1345 22.6478
36.3222 22.467
36.5101 22.3252
36.6981 21.9961
36.8861 21.7398
37.0743 21.3256
37.2626 21.0376
37.451 20.8212
37.6395 20.6427
37.8281 20.3296
38.0168 20.0482
38.2056 19.808
38.3945 19.5009
38.5837 19.2711
38.7728 19.0664
38.9621 18.8
39.1514 18.5313
39.3409 18.2802
39.5304 18.0954
39.7201 17.985
39.9099 17.6424
40.0999 17.4773
40.2899 17.2055
40.48 16.9851
40.6703 16.8011
40.8607 16.5916
41.0512 16.3792
41.242 16.1686
41.4327 15.9641
41.6236 15.712
41.8146 15.5134
42.0057 15.3358
42.1969 15.0516
42.3882 14.9416
42.5797 14.6726
42.7713 14.481
42.963 14.2974
43.1549 14.1306
43.3468 13.9069
43.5389 13.7462
43.7312 13.553
43.9237 13.3323
44.1162 13.1946
44.3088 12.9774
44.5016 12.766
44.6945 12.6079
44.8875 12.4298
45.0806 12.2584
45.2739 12.0897
45.4673 11.9243
45.6609 11.7074
45.8546 11.5894
46.0484 11.4622
46.2424 11.2732
46.4365 11.1217
46.631 10.9388
46.8254 10.7305
47.0199 10.6117
47.2146 10.4409
47.4095 10.3418
47.6044 10.1588
47.7996 9.99934
47.9948 9.85028
48.1902 9.69352
48.3858 9.55223
48.5815 9.43328
48.7774 9.29905
48.9734 9.19064
49.1696 9.05662
49.3661 8.88529
49.5626 8.74082
49.7592 8.64445
49.956 8.53189
50.153 8.35298
50.3501 8.242
50.5474 8.1269
50.7448 7.99773
50.9424 7.88902
51.1402 7.81793
51.3381 7.59036
51.5362 7.48363
51.7344 7.36992
51.9328 7.25182
52.1316 7.11991
52.3304 7.00223
52.5293 6.88468
52.7284 6.83017
52.9276 6.67378
53.1271 6.56921
53.3267 6.4619
53.5265 6.33656
53.7264 6.25745
53.9266 6.11656
54.1269 6.01886
54.3274 5.86806
54.528 5.75477
54.7289 5.52594
54.9301 5.33142
55.1314 5.21707
55.3328 4.94689
55.5344 4.80009
55.7361 4.69723

File: Ni3Fe_FD0107.xy
TT I
1.27165 8.20581
1.45013 7.01296
1.62863 6.36024
1.80712 5.5545
1.98562 5.43977
2.16411 5.10372
2.34263 4.26612
2.52115 4.21986
2.69965 5.2646
2.87818 7.50719
3.05672 10.6258
3.23527 14.546
3.4138 18.55
3.59237 21.4495
3.77094 24.6713
3.9495 28.5541
4.12809 32.3525
4.30669 36.8813
4.4853 44.0246
4.6639 53.4059
4.84253 65.6444
5.02118 91.9251
5.19981 634.06
5.37848 614.526
5.55716 110.124
5.73586 96.9115
5.91455 109.618
6.09328 2304.87
6.27201 93.907
6.45075 66.0261
6.62952 59.0068
6.8083 54.8887
6.98711 52.8144
7.16591 51.837
7.34475 51.4737
7.5236 57.7022
7.70247 53.2059
7.88135 55.6077
8.06026 59.9299
8.23919 66.7192
8.41812 83.8694
8.59709 786.545
8.77609 125.588
8.9551 84.8282
9.13412 80.633
9.31318 91.6294
9.49226 82.3036
9.67134 87.3393
9.85047 98.2238
10.0296 577.741
10.2088 1143.78
10.388 105.209
10.5672 279.285
10.7465 93.3769
10.9257 74.7446
11.105 69.3995
11.2844 65.2103
11.4637 62.5203
11.6431 61.3163
11.8225 60.2863
12.002 67.5706
12.1814 107.42
12.3609 79.2032
12.5405 62.4778
12.72 64.3759
12.8996 68.666
13.0792 78.7169
13.2589 189.192
13.4386 242.805
13.6183 173.627
13.7981 177.71
13.9779 75.313
14.1577 75.6532
14.3376 67.9942
14.5175 67.4972
14.6974 68.8979
14.8774 120.284
15.0574 207.257
15.2374 68.489
15.4175 65.2565
15.5976 64.6895
15.7778 107.865
15.958 178.399
16.1382 61.9723
16.3185 56.4142
16.4988 54.2426
16.6792 53.1548
16.8596 53.536
17.04 54.6955
17.2205 63.4558
17.401 80.7417
17.5815 58.2535
17.7622 60.4936
17.9428 84.5342
18.1237 103.65
18.3044 87.785
18.4852 98.3351
18.666 60.3644
18.8469 57.5889
19.0278 56.0033
19.2088 61.4435
19.3898 65.9014
19.5709 56.8461
19.752 52.5097
19.9332 57.8056
20.1144 64.3613
20.2957 59.8293
20.477 60.1214
20.6586 49.1776
20.84 48.4777
21.0215 48.3456
21.203 48.5547
21.3846 50.198
21.5662 48.3708
21.7479 53.4536
21.9297 59.4108
22.1115 55.9252
22.2933 52.8417
22.4753 48.4165
22.6572 48.5373
22.8393 51.1226
23.0214 55.0827
23.2037 49.7151
23.3859 51.3375
23.5682 51.7176
23.7505 54.2961
23.9329 45.132
24.1154 43.7449
24.2979 43.0705
24.4805 42.3123
24.6631 42.5625
24.8458 42.0337
25.0286 42.276
25.2114 43.8011
25.3943 43.8626
25.5773 41.4329
25.7605 40.2171
25.9436 40.3978
26.1268 40.8409
26.31 40.6652
26.4933 40.291
26.6767 41.1937
26.8601 41.0231
27.0437 39.1382
27.2272 38.4898
27.4109 38.1001
27.5946 38.1722
27.7784 38.0938
27.9623 37.8739
28.1462 38.6519
28.3304 37.652
28.5145 35.9042
28.6987 35.4404
28.8829 35.0364
29.0673 34.6959
29.2517 34.0522
29.4361 33.7134
29.6207 33.1031
29.8053 32.584
29.99 32.3969
30.1748 32.2307
30.3597 32.1651
30.5447 31.9184
30.7297 31.7751
30.915 31.6624
31.1002 31.0112
31.2855 30.6327
31.4708 30.5344
31.6563 30.5259
31.8418 29.9582
32.0275 29.7548
32.2132 29.3545
32.399 28.7864
32.5848 28.305
32.7708 27.9231
32.9569 27.803
33.143 27.4938
33.3293 27.1952
33.5158 27.0691
33.7022 26.3979
33.8887 26.1526
34.0753 25.96
34.262 25.4825
34.4488 25.1136
34.6357 24.798
34.8227 24.4688
35.0098 24.3586
35.1969 24.0159
35.3842 23.7776
35.5716 23.6474
35.759 23.3548
35.9468 22.9804
36.1345 22.6824
36.3222 22.5295
36.5101 22.3088
36.6981 21.9657
36.8861 21.6627
37.0743 21.3189
37.2626 21.121
37.451 20.8585
37.6395 20.7316
37.8281 20.4098
38.0168 20.0252
38.2056 19.7478
38.3945 19.5842
38.5837 19.3224
38.7728 19.1117
38.9621 18.8665
39.1514 18.5953
39.3409 18.3096
39.5304 18.0934
39.7201 17.9151
39.9099 17.7294
40.0999 17.4093
40.2899 17.3005
40.48 17.0276
40.6703 16.7606
40.8607 16.6583
41.0512 16.4018
41.242 16.1283
41.4327 15.9755
41.6236 15.7107
41.8146 15.5154
42.0057 15.3419
42.1969 15.0923
42.3882 14.9046
42.5797 14.7324
42.7713 14.4919
42.963 14.3135
43.1549 14.1516
43.3468 13.9623
43.5389 13.7667
43.7312 13.5357
43.9237 13.366
44.1162 13.1956
44.3088 12.9798
44.5016 12.8102
44.6945 12.6448
44.8875 12.4354
45.0806 12.2659
45.2739 12.0706
45.4673 11.9343
45.6609 11.7809
45.8546 11.6357
46.0484 11.4161
46.2424 11.3032
46.4365 11.178
46.631 10.9589
46.8254 10.7612
47.0199 10.6509
47.2146 10.5005
47.4095 10.3075
47.6044 10.1484
47.7996 10.0278
47.9948 9.86797
48.1902 9.74321
48.3858 9.62039
48.5815 9.43783
48.7774 9.36714
48.9734 9.18157
49.1696 9.03725
49.3661 8.93665
49.5626 8.72672
49.7592 8.63886
49.956 8.51529
50.153 8.37684
50.3501 8.24889
50.5474 8.14181
50.7448 8.02276
50.9424 7.86969
51.1402 7.75563
51.3381 7.63479
51.5362 7.51326
51.7344 7.39447
51.9328 7.24027
52.1316 7.15004
52.3304 7.05867
52.5293 6.91708
52.7284 6.8248
52.9276 6.67584
53.1271 6.5813
53.3267 6.47233
53.5265 6.34229
53.7264 6.19278
53.9266 6.11899
54.1269 5.98902
54.3274 5.92427
54.528 5.70428
54.7289 5.52939
54.9301 5.35749
55.1314 5.19064
55.3328 4.98965
55.5344 4.78025
55.7361 4.71464

File: Ni3Fe_FD0108.xy
TT I
1.27165 8.38388
1.45013 7.4421
1.62863 5.95167
1.80712 5.17874
1.98562 5.5439
2.16411 4.61297
2.34263 4.13892
2.52115 4.51323
2.69965 5.18667
2.87818 8.02235
3.05672 10.8825
3.23527 15.3928
3.4138 18.5263
3.59237 21.6026
3.77094 24.6537
3.9495 27.6526
4.12809 32.5092
4.30669 37.4927
4.4853 44.1858
4.6639 53.4283
4.84253 65.3285
5.02118 92.4027
5.19981 631.179
5.37848 605.508
5.55716 109.604
5.73586 96.9724
5.91455 109.507
6.09328 2324.14
6.27201 93.3355
6.45075 66.3292
6.62952 59.5087
6.8083 54.8545
6.98711 52.7344
7.16591 51.587
7.34475 51.1853
7.5236 57.7117
7.70247 53.258
7.88135 55.428
8.06026 59.6758
8.23919 66.9984
8.41812 84.0052
8.59709 791.642
8.77609 124.364
8.9551 84.6915
9.13412 80.8569
9.31318 91.6031
9.49226 82.4642
9.67134 87.6327
9.85047 98.3965
10.0296 577.071
10.2088 1147.48
10.388 104.281
10.5672 281.711
10.7465 92.9967
10.9257 74.6992
11.105 69.4522
11.2844 65.2279
11.4637 62.6109
11.6431 61.3395
11.8225 60.0825
12.002 67.543
12.1814 107.876
12.3609 79.1683
12.5405 62.127
12.72 64.4027
12.8996 68.3588
13.0792 78.7059
13.2589 190.293
13.4386 241.042
13.6183 174.642
13.7981 174.398
13.9779 75.1345
14.1577 75.6884
14.3376 68.0927
14.5175 67.2999
14.6974 68.8923
14.8774 120.538
15.0574 207.125
15.2374 68.5209
15.4175 65.3528
15.5976 64.8861
15.7778 107.769
15.958 179.024
16.1382 61.679
16.3185 56.6858
16.4988 54.3678
16.6792 53.2285
16.8596 53.6753
17.04 54.5457
17.2205 63.705
17.401 81.2133
17.5815 58.2462
17.7622 60.7413
17.9428 84.371
18.1237 104.268
18.3044 87.6547
18.4852 98.1754
18.666 60.1984
18.8469 57.4736
19.0278 56.0238
19.2088 61.5235
19.3898 66.0119
19.5709 56.8145
19.752 52.6449
19.9332 57.8007
20.1144 64.3378
20.2957 59.7191
20.477 60.1254
20.6586 49.2115
20.84 48.6978
21.0215 48.6502
21.203 48.6031
21.3846 50.3397
21.5662 48.4412
21.7479 53.431
21.9297 59.5779
22.1115 55.9193
22.2933 52.7233
22.4753 48.2338
22.6572 48.51
22.8393 50.9956
23.0214 55.1485
23.2037 49.6601
23.3859 51.4618
23.5682 51.7324
23.7505 54.0157
23.9329 45.19
24.1154 43.7766
24.2979 43.2478
24.4805 42.4947
24.6631 42.6653
24.8458 42.0347
25.0286 42.3945
25.2114 43.7075
25.3943 44.0584
25.5773 41.6135
25.7605 40.3459
25.9436 40.3793
26.1268 40.9109
26.31 40.7462
26.4933 40.3403
26.6767 41.3126
26.8601 40.9428
27.0437 39.1366
27.2272 38.4432
27.4109 38.139
27.5946 38.1952
27.7784 38.1855
27.9623 37.9648
28.1462 38.6898
28.3304 37.6455
28.5145 36.0011
28.6987 35.4682
28.8829 34.9614
29.0673 34.781
29.2517 33.9606
29.4361 33.7195
29.6207 33.197
29.8053 32.5961
29.99 32.3612
30.1748 32.0897
30.3597 32.2196
30.5447 31.921
30.7297 31.8214
30.915 31.6587
31.1002 31.1446
31.2855 30.7467
31.4708 30.6377
31.6563 30.5265
31.8418 30.043
32.0275 29.8576
32.2132 29.324
32.399 28.8353
32.5848 28.372
32.7708 27.9183
32.9569 27.8837
33.143 27.5398
33.3293 27.3096
33.5158 26.9698
33.7022 26.4417
33.8887 26.1569
34.0753 25.8588
34.262 25.4928
34.4488 25.1701
34.6357 24.821
34.8227 24.5599
35.0098 24.3592
35.1969 24.0807
35.3842 23.7799
35.5716 23.6137
35.759 23.3699
35.9468 23.0437
36.1345 22.7538
36.3222 22.5135
36.5101 22.3282
36.6981 22.0379
36.8861 21.714
37.0743 21.4172
37.2626 21.1497
37.451 20.8668
37.6395 20.6773
37.8281 20.3804
38.0168 20.131
38.2056 19.7606
38.3945 19.521
38.5837 19.3492
38.7728 19.0694
38.9621 18.8588
39.1514 18.5219
39.3409 18.3529
39.5304 18.115
39.7201 17.888
39.9099 17.6917
40.0999 17.457
40.2899 17.2137
40.48 17.0111
40.6703 16.7423
40.8607 16.6719
41.0512 16.4013
41.242 16.1641
41.4327 16.0127
41.6236 15.7137
41.8146 15.4831
42.0057 15.3756
42.1969 15.0711
42.3882 14.8917
42.5797 14.7093
42.7713 14.5361
42.963 14.3416
43.1549 14.1805
43.3468 13.9532
43.5389 13.7163
43.7312 13.5615
43.9237 13.3799
44.1162 13.1671
44.3088 13.0064
44.5016 12.7898
44.6945 12.6445
44.8875 12.4724
45.0806 12.2877
45.2739 12.0909
45.4673 11.9652
45.6609 11.8084
45.8546 11.5876
46.0484 11.4698
46.2424 11.2919
46.4365 11.177
46.631 10.9895
46.8254 10.7644
47.0199 10.6098
47.2146 10.4894
47.4095 10.3004
47.6044 10.1819
47.7996 10.0005
47.9948 9.86341
48.1902 9.78077
48.3858 9.58318
48.5815 9.46026
48.7774 9.32853
48.9734 9.18485
49.1696 9.09751
49.3661 8.90401
49.5626 8.78041
49.7592 8.67283
49.956 8.523
50.153 8.39319
50.3501 8.24677
50.5474 8.15037
50.7448 8.02865
50.9424 7.91002
51.1402 7.77639
51.3381 7.60922
51.5362 7.53651
51.7344 7.37797
51.9328 7.28261
52.1316 7.12223
52.3304 7.05753
52.5293 6.92811
52.7284 6.79729
52.9276 6.69049
53.1271 6.61828
53.3267 6.47009
53.5265 6.37135
53.7264 6.227
53.9266 6.11828
54.1269 5.97332
54.3274 5.85462
54.528 5.72388
54.7289 5.56023
54.9301 5.34831
55.1314 5.20329
55.3328 5.00659
55.5344 4.84518
55.7361 4.72687

File: Ni3Fe_FD0109.xy
TT I
1.27165 8.36992
1.45013 6.65393
1.62863 6.23404
1.80712 5.36043
1.98562 5.01982
2.16411 4.72168
2.34263 4.0233
2.52115 4.0413
2.69965 5.35583
2.87818 7.59308
3.05672 11.1405
3.23527 14.9232
3.4138 18.2216
3.59237 21.4874
3.77094 24.6742
3.9495 28.2625
4.12809 32.3032
4.30669 37.4455
4.4853 44.1403
4.6639 53.1343
4.84253 65.1544
5.02118 91.6483
5.19981 621.741
5.37848 607.103
5.55716 109.805
5.73586 96.4673
5.91455 108.782
6.09328 2329.2
6.27201 93.1581
6.45075 66.2976
6.62952 59.326
6.8083 55.094
6.98711 52.6782
7.16591 51.5732
7.34475 51.2628
7.5236 57.0769
7.70247 53.3821
7.88135 55.5028
8.06026 59.6401
8.23919 67.4085
8.41812 83.3374
8.59709 796.367
8.77609 123.801
8.9551 84.8304
9.13412 80.493
9.31318 90.9338
9.49226 82.3939
9.67134 87.6428
9.85047 98.1622
10.0296 574.424
10.2088 1134.7
10.388 104.695
10.5672 282.844
10.7465 93.0976
10.9257 74.6831
11.105 69.1822
11.2844 65.189
11.4637 62.1844
11.6431 61.1224
11.8225 60.2071
12.002 67.2483
12.1814 107.743
12.3609 79.336
12.5405 62.1456
12.72 64.1785
12.8996 68.7412
13.0792 78.531
13.2589 190.516
13.4386 242.217
13.6183 175.235
13.7981 175.419
13.9779 74.9492
14.1577 75.288
14.3376 68.0328
14.5175 67.1284
14.6974 68.7139
14.8774 120.314
15.0574 207.333
15.2374 68.2719
15.4175 65.295
15.5976 64.8989
15.7778 107.846
15.958 179.131
16.1382 61.8898
16.3185 56.6767
16.4988 54.3618
16.6792 53.1693
16.8596 53.4165
17.04 54.6992
17.2205 63.6967
17.401 80.8448
17.5815 58.0672
17.7622 60.5393
17.9428 84.3348
18.1237 104.471
18.3044 88.0965
18.4852 98.3165
18.666 60.2637
18.8469 57.2625
19.0278 55.8739
19.2088 61.3979
19.3898 65.9732
19.5709 56.83
19.752 52.771
19.9332 57.7224
20.1144 64.3103
20.2957 59.8792
20.477 60.0152
20.6586 49.081
20.84 48.4589
21.0215 48.4719
21.203 48.775
21.3846 50.2129
21.5662 48.392
21.7479 53.4841
21.9297 59.5442
22.1115 56.0056
22.2933 52.6425
22.4753 48.2555
22.6572 48.5509
22.8393 51.2124
23.0214 55.3397
23.2037 49.7366
23.3859 51.5223
23.5682 51.9026
23.7505 54.318
23.9329 45.1431
24.1154 43.7321
24.2979 43.1432
24.4805 42.4716
24.6631 42.6179
24.8458 41.9194
25.0286 42.4839
25.2114 43.7095
25.3943 44.0414
25.5773 41.4791
25.7605 40.204
25.9436 40.4468
26.1268 40.834
26.31 40.7315
26.4933 40.3268
26.6767 41.3025
26.8601 41.0125
27.0437 39.2712
27.2272 38.5297
27.4109 38.0674
27.5946 38.1195
27.7784 38.2012
27.9623 37.9462
28.1462 38.8063
28.3304 37.6678
28.5145 35.909
28.6987 35.4121
28.8829 35.1
29.0673 34.8649
29.2517 34.0755
29.4361 33.7972
29.6207 33.2731
29.8053 32.7151
29.99 32.2732
30.1748 32.0357
30.3597 32.3301
30.5447 31.9626
30.7297 31.7792
30.915 31.7288
31.1002 31.101
31.2855 30.7828
31.4708 30.5346
31.6563 30.6019
31.8418 29.9425
32.0275 29.7795
32.2132 29.4178
32.399 28.8248
32.5848 28.3421
32.7708 28.04
32.9569 27.9061
33.143 27.5901
33.3293 27.2126
33.5158 27.0108
33.7022 26.5255
33.8887 26.2352
34.0753 25.8369
34.262 25.4652
34.4488 25.2188
34.6357 24.8514
34.8227 24.5429
35.0098 24.326
35.1969 24.0135
35.3842 23.8933
35.5716 23.5954
35.759 23.3653
35.9468 23.0198
36.1345 22.6844
36.3222 22.5507
36.5101 22.2558
36.6981 22.0446
36.8861 21.684
37.0743 21.3424
37.2626 21.0798
37.451 20.876
37.6395 20.7309
37.8281 20.3615
38.0168 20.0913
38.2056 19.9081
38.3945 19.5763
38.5837 19.3027
38.7728 19.0871
38.9621 18.8307
39.1514 18.6107
39.3409 18.2773
39.5304 18.0816
39.7201 17.8933
39.9099 17.743
40.0999 17.4388
40.2899 17.2714
40.48 17.0095
40.6703 16.8192
40.8607 16.6976
41.0512 16.4288
41.242 16.166
41.4327 15.9818
41.6236 15.6876
41.8146 15.5324
42.0057 15.3323
42.1969 15.0877
42.3882 14.9129
42.5797 14.767
42.7713 14.5232
42.963 14.2833
43.1549 14.1172
43.3468 13.9259
43.5389 13.7645
43.7312 13.4938
43.9237 13.3975
44.1162 13.2119
44.3088 13.0391
44.5016 12.7477
44.6945 12.6802
44.8875 12.4297
45.0806 12.2642
45.2739 12.1569
45.4673 11.9676
45.6609 11.8213
45.8546 11.6009
46.0484 11.4445
46.2424 11.3371
46.4365 11.1596
46.631 10.962
46.8254 10.7527
47.0199 10.6294
47.2146 10.4564
47.4095 10.337
47.6044 10.1863
47.7996 10.031
47.9948 9.87605
48.1902 9.74182
48.3858 9.60653
48.5815 9.45138
48.7774 9.32173
48.9734 9.16234
49.1696 9.06489
49.3661 8.92411
49.5626 8.77893
49.7592 8.65376
49.956 8.53367
50.153 8.3755
50.3501 8.26764
50.5474 8.12918
50.7448 8.04227
50.9424 7.89444
51.1402 7.79713
51.3381 7.66253
51.5362 7.52736
51.7344 7.4173
51.9328 7.27896
52.1316 7.11435
52.3304 7.04612
52.5293 6.89138
52.7284 6.79626
52.9276 6.69132
53.1271 6.56352
53.3267 6.45925
53.5265 6.37261
53.7264 6.24504
53.9266 6.11623
54.1269 5.9778
54.3274 5.87357
54.528 5.72176
54.7289 5.52174
54.9301 5.42645
55.1314 5.22773
55.3328 5.01432
55.5344 4.84479
55.7361 4.66771