Folder: NiFe_MOF_catalyst_paper/XRD (part 6)

File: Ni3Fe_FD0026.xy
TT I
1.27165 32.975
1.45013 29.2453
1.62863 25.7537
1.80712 23.2846
1.98562 22.9576
2.16411 25.0062
2.34263 25.835
2.52115 24.876
2.69965 27.6115
2.87818 38.7249
3.05672 65.1209
3.23527 74.9083
3.4138 41.061
3.59237 38.8533
3.77094 39.2413
3.9495 36.3634
4.12809 49.4312
4.30669 91.4544
4.4853 60.9202
4.6639 45.9524
4.84253 52.0017
5.02118 86.7416
5.19981 280.147
5.37848 3695.58
5.55716 155.181
5.73586 100.383
5.91455 111.86
6.09328 467.313
6.27201 304.264
6.45075 71.925
6.62952 56.2085
6.8083 55.3213
6.98711 44.4404
7.16591 47.4474
7.34475 75.7919
7.5236 55.5813
7.70247 45.4122
7.88135 37.5387
8.06026 39.2647
8.23919 44.662
8.41812 57.1007
8.59709 162.291
8.77609 630.597
8.9551 77.456
9.13412 59.2956
9.31318 248.341
9.49226 53.2634
9.67134 53.5043
9.85047 61.3373
10.0296 102.416
10.2088 512.374
10.388 127.904
10.5672 91.6289
10.7465 260.492
10.9257 49.3423
11.105 43.3757
11.2844 42.3243
11.4637 38.6502
11.6431 38.0618
11.8225 37.0437
12.002 73.6989
12.1814 47.168
12.3609 95.4623
12.5405 44.6701
12.72 41.7625
12.8996 40.1553
13.0792 42.9133
13.2589 64.0209
13.4386 154.315
13.6183 90.6785
13.7981 163.962
13.9779 60.5975
14.1577 48.4207
14.3376 47.0274
14.5175 38.6886
14.6974 38.7805
14.8774 43.5251
15.0574 61.6374
15.2374 87.287
15.4175 41.2828
15.5976 38.5809
15.7778 41.6268
15.958 55.0529
16.1382 112.083
16.3185 39.7071
16.4988 34.0648
16.6792 32.0663
16.8596 32.0179
17.04 39.7903
17.2205 33.8027
17.401 36.8175
17.5815 46.5948
17.7622 35.6717
17.9428 40.2111
18.1237 43.2918
18.3044 91.3111
18.4852 55.7342
18.666 61.9061
18.8469 36.2757
19.0278 33.7797
19.2088 33.836
19.3898 40.2503
19.5709 47.0579
19.752 35.4598
19.9332 31.9476
20.1144 32.6776
20.2957 42.9369
20.477 38.8165
20.6586 37.8219
20.84 32.0611
21.0215 29.7768
21.203 28.9153
21.3846 29.3406
21.5662 31.9555
21.7479 29.7891
21.9297 31.3071
22.1115 41.2547
22.2933 41.486
22.4753 34.7841
22.6572 30.1611
22.8393 30.5811
23.0214 31.0726
23.2037 39.2938
23.3859 33.47
23.5682 33.8942
23.7505 34.4428
23.9329 39.7568
24.1154 29.3302
24.2979 27.4764
24.4805 26.6183
24.6631 26.691
24.8458 27.784
25.0286 26.2507
25.2114 26.4689
25.3943 28.7906
25.5773 30.3349
25.7605 28.292
25.9436 26.8123
26.1268 25.6526
26.31 26.686
26.4933 27.511
26.6767 25.8601
26.8601 27.3556
27.0437 29.8464
27.2272 26.5875
27.4109 24.7696
27.5946 24.6508
27.7784 25.0264
27.9623 25.1473
28.1462 25.5936
28.3304 26.9519
28.5145 26.834
28.6987 24.7617
28.8829 23.0292
29.0673 22.7
29.2517 23.322
29.4361 22.1884
29.6207 21.9688
29.8053 22.5101
29.99 21.3248
30.1748 21.364
30.3597 21.1723
30.5447 21.4305
30.7297 21.0851
30.915 21.3224
31.1002 22.6302
31.2855 21.4569
31.4708 20.468
31.6563 20.6462
31.8418 21.3303
32.0275 20.4231
32.2132 20.4151
32.399 20.6
32.5848 19.6958
32.7708 18.9609
32.9569 18.8337
33.143 18.7585
33.3293 18.4418
33.5158 18.7854
33.7022 18.823
33.8887 18.0011
34.0753 17.7468
34.262 17.6575
34.4488 17.2531
34.6357 16.9983
34.8227 16.931
35.0098 16.6062
35.1969 16.3507
35.3842 16.2304
35.5716 16.223
35.759 16.46
35.9468 16.5155
36.1345 15.8791
36.3222 15.6294
36.5101 15.5638
36.6981 15.419
36.8861 15.1648
37.0743 15.192
37.2626 14.7666
37.451 14.53
37.6395 14.3872
37.8281 14.1806
38.0168 14.0465
38.2056 13.9031
38.3945 13.5985
38.5837 13.4718
38.7728 13.4342
38.9621 13.2012
39.1514 13.1092
39.3409 12.8242
39.5304 12.6519
39.7201 12.5104
39.9099 12.4099
40.0999 12.3086
40.2899 12.2393
40.48 11.9586
40.6703 11.9107
40.8607 11.7751
41.0512 11.6289
41.242 11.4848
41.4327 11.3323
41.6236 11.1531
41.8146 11.0193
42.0057 10.9059
42.1969 10.8153
42.3882 10.6785
42.5797 10.4835
42.7713 10.3518
42.963 10.1875
43.1549 10.0738
43.3468 9.89839
43.5389 9.80456
43.7312 9.67247
43.9237 9.54333
44.1162 9.43941
44.3088 9.33452
44.5016 9.14574
44.6945 9.10358
44.8875 8.93156
45.0806 8.82131
45.2739 8.72788
45.4673 8.55986
45.6609 8.50386
45.8546 8.37635
46.0484 8.27127
46.2424 8.14193
46.4365 8.04498
46.631 7.90516
46.8254 7.82132
47.0199 7.67548
47.2146 7.55926
47.4095 7.45422
47.6044 7.36197
47.7996 7.24979
47.9948 7.18167
48.1902 7.07439
48.3858 6.98772
48.5815 6.85861
48.7774 6.76297
48.9734 6.65967
49.1696 6.56163
49.3661 6.47421
49.5626 6.38575
49.7592 6.26608
49.956 6.2036
50.153 6.12465
50.3501 6.02693
50.5474 5.97777
50.7448 5.87575
50.9424 5.78944
51.1402 5.68692
51.3381 5.59556
51.5362 5.53622
51.7344 5.43445
51.9328 5.36747
52.1316 5.26995
52.3304 5.18761
52.5293 5.10927
52.7284 4.99206
52.9276 4.94252
53.1271 4.90393
53.3267 4.75867
53.5265 4.66491
53.7264 4.64903
53.9266 4.53585
54.1269 4.43436
54.3274 4.36178
54.528 4.24419
54.7289 4.09028
54.9301 3.97959
55.1314 3.86345
55.3328 3.70743
55.5344 3.55019
55.7361 3.4378

File: Ni3Fe_FD0027.xy
TT I
1.27165 33.6133
1.45013 28.1189
1.62863 25.6523
1.80712 23.1455
1.98562 23.1448
2.16411 24.354
2.34263 25.832
2.52115 24.9784
2.69965 28.1103
2.87818 37.9124
3.05672 64.5769
3.23527 74.1527
3.4138 40.2317
3.59237 38.7063
3.77094 38.9877
3.9495 36.629
4.12809 49.0215
4.30669 91.963
4.4853 60.1073
4.6639 45.5724
4.84253 51.9668
5.02118 87.0493
5.19981 282.296
5.37848 3672.27
5.55716 154.721
5.73586 100.176
5.91455 112.114
6.09328 469.611
6.27201 301.455
6.45075 71.6843
6.62952 56.1907
6.8083 55.8254
6.98711 44.4903
7.16591 47.4219
7.34475 76.8669
7.5236 55.6488
7.70247 45.3016
7.88135 37.5034
8.06026 39.5604
8.23919 44.7396
8.41812 57.5633
8.59709 163.748
8.77609 624.714
8.9551 77.2827
9.13412 59.0608
9.31318 248.523
9.49226 53.4043
9.67134 53.8068
9.85047 61.0272
10.0296 102.428
10.2088 517.317
10.388 127.419
10.5672 91.6318
10.7465 257.391
10.9257 49.1587
11.105 43.202
11.2844 42.4341
11.4637 38.5224
11.6431 38.1239
11.8225 36.9927
12.002 73.8465
12.1814 47.3599
12.3609 95.3934
12.5405 44.6572
12.72 42.0019
12.8996 40.2575
13.0792 43.0699
13.2589 64.4151
13.4386 155.984
13.6183 90.3031
13.7981 165.51
13.9779 60.3345
14.1577 48.7024
14.3376 46.9347
14.5175 38.6549
14.6974 38.8694
14.8774 43.6991
15.0574 61.8669
15.2374 86.3019
15.4175 41.5685
15.5976 38.8418
15.7778 41.6861
15.958 55.0821
16.1382 111.033
16.3185 39.4648
16.4988 34.0496
16.6792 32.164
16.8596 32.1746
17.04 39.8638
17.2205 34.0298
17.401 36.9266
17.5815 46.3537
17.7622 35.4807
17.9428 40.1137
18.1237 43.3171
18.3044 91.5662
18.4852 55.6059
18.666 61.3748
18.8469 36.289
19.0278 33.9284
19.2088 33.9816
19.3898 40.3417
19.5709 46.8272
19.752 35.2035
19.9332 31.9865
20.1144 32.7263
20.2957 43.215
20.477 38.8297
20.6586 37.7624
20.84 31.9857
21.0215 29.744
21.203 28.8164
21.3846 29.3463
21.5662 31.9629
21.7479 29.8402
21.9297 31.3316
22.1115 41.3056
22.2933 41.2351
22.4753 34.8501
22.6572 30.2327
22.8393 30.5366
23.0214 31.2975
23.2037 39.3749
23.3859 33.2112
23.5682 34.1159
23.7505 34.4114
23.9329 39.6207
24.1154 29.2733
24.2979 27.6221
24.4805 26.7065
24.6631 26.7133
24.8458 27.6761
25.0286 26.2836
25.2114 26.5318
25.3943 28.7547
25.5773 30.2098
25.7605 28.2257
25.9436 26.808
26.1268 25.6134
26.31 26.6174
26.4933 27.4548
26.6767 25.9341
26.8601 27.5492
27.0437 29.7568
27.2272 26.5944
27.4109 24.7718
27.5946 24.588
27.7784 25.0176
27.9623 25.057
28.1462 25.5574
28.3304 26.9746
28.5145 26.7858
28.6987 24.6658
28.8829 23.0498
29.0673 22.628
29.2517 23.3868
29.4361 22.1414
29.6207 22.1542
29.8053 22.5654
29.99 21.3148
30.1748 21.4176
30.3597 21.0524
30.5447 21.3626
30.7297 20.9965
30.915 21.2241
31.1002 22.5563
31.2855 21.429
31.4708 20.457
31.6563 20.5659
31.8418 21.2389
32.0275 20.3693
32.2132 20.4277
32.399 20.6573
32.5848 19.5707
32.7708 18.9555
32.9569 18.7586
33.143 18.8314
33.3293 18.4276
33.5158 18.7902
33.7022 18.8729
33.8887 17.9204
34.0753 17.6119
34.262 17.5892
34.4488 17.1838
34.6357 17.0383
34.8227 16.8888
35.0098 16.609
35.1969 16.3438
35.3842 16.2657
35.5716 16.2006
35.759 16.3667
35.9468 16.3807
36.1345 15.8792
36.3222 15.6229
36.5101 15.5709
36.6981 15.4378
36.8861 15.1879
37.0743 15.0647
37.2626 14.7901
37.451 14.5355
37.6395 14.4201
37.8281 14.1497
38.0168 14.024
38.2056 13.9488
38.3945 13.6104
38.5837 13.4924
38.7728 13.3769
38.9621 13.1816
39.1514 13.0996
39.3409 12.8398
39.5304 12.6105
39.7201 12.5433
39.9099 12.4445
40.0999 12.2836
40.2899 12.2144
40.48 11.9733
40.6703 11.8633
40.8607 11.8187
41.0512 11.6326
41.242 11.5283
41.4327 11.3224
41.6236 11.1601
41.8146 11.0043
42.0057 10.9074
42.1969 10.8279
42.3882 10.648
42.5797 10.46
42.7713 10.3386
42.963 10.2052
43.1549 10.0605
43.3468 9.8801
43.5389 9.80152
43.7312 9.65461
43.9237 9.5087
44.1162 9.46703
44.3088 9.30437
44.5016 9.15115
44.6945 9.06877
44.8875 8.92944
45.0806 8.89843
45.2739 8.68361
45.4673 8.58555
45.6609 8.43193
45.8546 8.39591
46.0484 8.26433
46.2424 8.15185
46.4365 8.0296
46.631 7.90217
46.8254 7.83055
47.0199 7.66525
47.2146 7.56015
47.4095 7.44581
47.6044 7.33019
47.7996 7.21281
47.9948 7.13737
48.1902 7.04204
48.3858 6.94633
48.5815 6.84004
48.7774 6.78384
48.9734 6.6721
49.1696 6.57027
49.3661 6.44882
49.5626 6.35815
49.7592 6.27167
49.956 6.21576
50.153 6.14743
50.3501 6.01726
50.5474 5.96325
50.7448 5.85302
50.9424 5.74888
51.1402 5.70573
51.3381 5.59612
51.5362 5.5206
51.7344 5.40399
51.9328 5.34789
52.1316 5.26171
52.3304 5.19041
52.5293 5.08983
52.7284 4.99898
52.9276 4.94872
53.1271 4.87946
53.3267 4.74669
53.5265 4.69447
53.7264 4.60568
53.9266 4.55936
54.1269 4.43606
54.3274 4.31879
54.528 4.26176
54.7289 4.1076
54.9301 4.00737
55.1314 3.87822
55.3328 3.68576
55.5344 3.58157
55.7361 3.51466

File: Ni3Fe_FD0028.xy
TT I
1.27165 33.1583
1.45013 28.8756
1.62863 25.358
1.80712 23.2023
1.98562 23.2423
2.16411 24.9459
2.34263 25.0533
2.52115 23.7168
2.69965 27.887
2.87818 37.9243
3.05672 64.2942
3.23527 74.3047
3.4138 40.3904
3.59237 38.4205
3.77094 38.7817
3.9495 35.9874
4.12809 48.83
4.30669 92.3077
4.4853 60.6135
4.6639 45.7651
4.84253 52.7825
5.02118 87.5969
5.19981 285.695
5.37848 3623.25
5.55716 154.695
5.73586 100.859
5.91455 112.504
6.09328 475.175
6.27201 296.177
6.45075 71.6615
6.62952 56.2853
6.8083 55.5722
6.98711 44.3006
7.16591 47.4241
7.34475 77.0909
7.5236 55.4176
7.70247 44.9632
7.88135 37.5309
8.06026 39.554
8.23919 45.1712
8.41812 57.9539
8.59709 165.789
8.77609 609.463
8.9551 77.2143
9.13412 59.268
9.31318 249.162
9.49226 53.6318
9.67134 54.4544
9.85047 61.8049
10.0296 104.14
10.2088 528.62
10.388 125.931
10.5672 92.4375
10.7465 252.426
10.9257 49.1815
11.105 43.4855
11.2844 42.5615
11.4637 38.8965
11.6431 38.0457
11.8225 37.238
12.002 74.7992
12.1814 47.5374
12.3609 95.6691
12.5405 44.7166
12.72 42.2889
12.8996 40.3005
13.0792 43.1245
13.2589 64.7848
13.4386 158.808
13.6183 89.6987
13.7981 167.969
13.9779 59.8345
14.1577 48.8981
14.3376 46.5208
14.5175 39.0232
14.6974 39.2154
14.8774 44.0747
15.0574 62.7602
15.2374 84.2069
15.4175 41.5958
15.5976 38.9039
15.7778 42.0794
15.958 55.5548
16.1382 108.269
16.3185 39.567
16.4988 34.2315
16.6792 32.2287
16.8596 32.3089
17.04 39.9364
17.2205 33.9491
17.401 37.0942
17.5815 45.902
17.7622 35.7083
17.9428 40.1017
18.1237 43.6897
18.3044 92.0317
18.4852 55.4246
18.666 60.2514
18.8469 36.2008
19.0278 33.9278
19.2088 33.9677
19.3898 40.4588
19.5709 47.1622
19.752 35.3225
19.9332 32.0365
20.1144 32.7727
20.2957 43.4884
20.477 38.7791
20.6586 37.2442
20.84 32.3047
21.0215 29.7757
21.203 28.8905
21.3846 29.6084
21.5662 31.9644
21.7479 29.9397
21.9297 31.3343
22.1115 41.4668
22.2933 41.0621
22.4753 34.5884
22.6572 30.1963
22.8393 30.7792
23.0214 31.3527
23.2037 39.3969
23.3859 33.0228
23.5682 34.059
23.7505 34.5188
23.9329 38.9656
24.1154 29.318
24.2979 27.5434
24.4805 26.7275
24.6631 26.7261
24.8458 27.8126
25.0286 26.3866
25.2114 26.4703
25.3943 28.9378
25.5773 30.2635
25.7605 28.0796
25.9436 26.8391
26.1268 25.7171
26.31 26.7616
26.4933 27.3397
26.6767 25.9086
26.8601 27.576
27.0437 29.6341
27.2272 26.5186
27.4109 24.8758
27.5946 24.6865
27.7784 25.0986
27.9623 24.9645
28.1462 25.4323
28.3304 26.9809
28.5145 26.6732
28.6987 24.5472
28.8829 23.1306
29.0673 22.7715
29.2517 23.3456
29.4361 22.1534
29.6207 22.0755
29.8053 22.4742
29.99 21.3845
30.1748 21.4415
30.3597 21.0259
30.5447 21.4593
30.7297 21.096
30.915 21.2534
31.1002 22.4801
31.2855 21.5025
31.4708 20.5129
31.6563 20.5691
31.8418 21.2183
32.0275 20.3654
32.2132 20.4584
32.399 20.524
32.5848 19.5241
32.7708 18.95
32.9569 18.8919
33.143 18.8306
33.3293 18.4161
33.5158 18.8072
33.7022 18.7524
33.8887 17.8514
34.0753 17.7649
34.262 17.5658
34.4488 17.2202
34.6357 17.085
34.8227 16.8482
35.0098 16.5459
35.1969 16.3661
35.3842 16.3017
35.5716 16.2295
35.759 16.3864
35.9468 16.3645
36.1345 15.8946
36.3222 15.6425
36.5101 15.5823
36.6981 15.3676
36.8861 15.1806
37.0743 15.0962
37.2626 14.76
37.451 14.5203
37.6395 14.4089
37.8281 14.1995
38.0168 13.987
38.2056 13.9279
38.3945 13.6052
38.5837 13.5147
38.7728 13.4269
38.9621 13.173
39.1514 13.1035
39.3409 12.8631
39.5304 12.6773
39.7201 12.5422
39.9099 12.3413
40.0999 12.3213
40.2899 12.2071
40.48 12.0035
40.6703 11.9042
40.8607 11.7772
41.0512 11.6505
41.242 11.5128
41.4327 11.2897
41.6236 11.1587
41.8146 11.0354
42.0057 10.8879
42.1969 10.7785
42.3882 10.6754
42.5797 10.5014
42.7713 10.3446
42.963 10.1945
43.1549 10.1043
43.3468 9.93501
43.5389 9.80734
43.7312 9.6601
43.9237 9.52263
44.1162 9.44881
44.3088 9.29708
44.5016 9.15337
44.6945 9.11523
44.8875 8.9233
45.0806 8.81186
45.2739 8.70943
45.4673 8.56876
45.6609 8.5025
45.8546 8.38176
46.0484 8.21153
46.2424 8.11101
46.4365 8.03672
46.631 7.89124
46.8254 7.79199
47.0199 7.72099
47.2146 7.56213
47.4095 7.47953
47.6044 7.37466
47.7996 7.26354
47.9948 7.1342
48.1902 7.03619
48.3858 6.92008
48.5815 6.8705
48.7774 6.78247
48.9734 6.67263
49.1696 6.54365
49.3661 6.47797
49.5626 6.39331
49.7592 6.30132
49.956 6.21769
50.153 6.11144
50.3501 6.02984
50.5474 5.94898
50.7448 5.86173
50.9424 5.77141
51.1402 5.69672
51.3381 5.60535
51.5362 5.52683
51.7344 5.43413
51.9328 5.3334
52.1316 5.24061
52.3304 5.18504
52.5293 5.10286
52.7284 5.03853
52.9276 4.92377
53.1271 4.87329
53.3267 4.77154
53.5265 4.72229
53.7264 4.62873
53.9266 4.53664
54.1269 4.45378
54.3274 4.31107
54.528 4.23268
54.7289 4.09463
54.9301 3.94569
55.1314 3.85212
55.3328 3.67406
55.5344 3.5327
55.7361 3.46557

File: Ni3Fe_FD0029.xy
TT I
1.27165 32.8805
1.45013 28.8139
1.62863 25.0413
1.80712 23.1544
1.98562 22.7674
2.16411 24.6131
2.34263 25.2134
2.52115 24.1564
2.69965 27.9091
2.87818 37.7445
3.05672 63.9345
3.23527 74.1507
3.4138 39.8548
3.59237 38.2146
3.77094 38.1115
3.9495 35.2757
4.12809 47.3422
4.30669 92.2365
4.4853 59.7115
4.6639 45.4098
4.84253 52.3381
5.02118 87.8491
5.19981 288.876
5.37848 3599.0
5.55716 154.274
5.73586 100.391
5.91455 113.001
6.09328 479.069
6.27201 293.706
6.45075 71.8298
6.62952 56.0428
6.8083 55.6428
6.98711 43.9672
7.16591 47.3738
7.34475 77.2739
7.5236 54.9019
7.70247 44.5895
7.88135 37.4157
8.06026 39.3484
8.23919 45.3124
8.41812 57.9521
8.59709 166.985
8.77609 600.809
8.9551 77.4092
9.13412 59.7134
9.31318 249.641
9.49226 54.0102
9.67134 54.3219
9.85047 62.0102
10.0296 104.444
10.2088 535.899
10.388 124.71
10.5672 92.5843
10.7465 249.441
10.9257 49.5943
11.105 43.8692
11.2844 42.9049
11.4637 38.8815
11.6431 38.5604
11.8225 37.1641
12.002 75.6711
12.1814 47.4836
12.3609 95.7609
12.5405 44.6835
12.72 42.5979
12.8996 40.0629
13.0792 43.3794
13.2589 65.1751
13.4386 160.374
13.6183 89.3479
13.7981 169.315
13.9779 59.6833
14.1577 49.355
14.3376 46.5336
14.5175 39.2274
14.6974 39.0738
14.8774 44.3113
15.0574 63.0127
15.2374 83.0267
15.4175 41.7477
15.5976 39.0173
15.7778 42.3189
15.958 56.0415
16.1382 106.784
16.3185 39.5947
16.4988 34.1902
16.6792 32.3226
16.8596 32.3371
17.04 40.2064
17.2205 34.0212
17.401 37.269
17.5815 45.6313
17.7622 35.7943
17.9428 40.1122
18.1237 43.5049
18.3044 92.3815
18.4852 55.5292
18.666 59.9938
18.8469 36.3993
19.0278 34.0468
19.2088 34.0737
19.3898 40.8319
19.5709 47.18
19.752 35.371
19.9332 32.2336
20.1144 32.9595
20.2957 43.7034
20.477 38.9496
20.6586 37.1069
20.84 32.2865
21.0215 29.8935
21.203 29.1082
21.3846 29.7384
21.5662 31.9308
21.7479 30.0656
21.9297 31.4916
22.1115 41.7285
22.2933 40.8277
22.4753 34.4285
22.6572 30.2719
22.8393 30.7577
23.0214 31.429
23.2037 39.4436
23.3859 33.0236
23.5682 34.065
23.7505 34.6369
23.9329 38.6302
24.1154 29.251
24.2979 27.6447
24.4805 26.7719
24.6631 26.7634
24.8458 27.6745
25.0286 26.389
25.2114 26.5382
25.3943 28.931
25.5773 30.2601
25.7605 27.8733
25.9436 26.6856
26.1268 25.6543
26.31 26.9255
26.4933 27.4
26.6767 25.8663
26.8601 27.4829
27.0437 29.3718
27.2272 26.3268
27.4109 24.836
27.5946 24.5884
27.7784 25.0973
27.9623 24.9775
28.1462 25.4382
28.3304 27.1306
28.5145 26.585
28.6987 24.5975
28.8829 23.0657
29.0673 22.7814
29.2517 23.3051
29.4361 22.2429
29.6207 22.1287
29.8053 22.4263
29.99 21.4391
30.1748 21.3863
30.3597 21.1107
30.5447 21.4879
30.7297 21.0306
30.915 21.2061
31.1002 22.4523
31.2855 21.3751
31.4708 20.5135
31.6563 20.608
31.8418 21.2202
32.0275 20.3223
32.2132 20.3381
32.399 20.4643
32.5848 19.5776
32.7708 18.9828
32.9569 18.8837
33.143 18.789
33.3293 18.4316
33.5158 18.7943
33.7022 18.7475
33.8887 17.8837
34.0753 17.6778
34.262 17.6335
34.4488 17.2094
34.6357 16.9899
34.8227 16.8981
35.0098 16.5364
35.1969 16.3463
35.3842 16.2906
35.5716 16.183
35.759 16.4146
35.9468 16.4338
36.1345 15.9279
36.3222 15.6586
36.5101 15.626
36.6981 15.3469
36.8861 15.1458
37.0743 15.0369
37.2626 14.7114
37.451 14.5307
37.6395 14.4278
37.8281 14.1542
38.0168 14.1084
38.2056 13.9329
38.3945 13.6185
38.5837 13.4956
38.7728 13.4419
38.9621 13.1606
39.1514 13.0628
39.3409 12.856
39.5304 12.6869
39.7201 12.5555
39.9099 12.4441
40.0999 12.2992
40.2899 12.2035
40.48 11.9888
40.6703 11.8649
40.8607 11.7811
41.0512 11.5839
41.242 11.5038
41.4327 11.3424
41.6236 11.1331
41.8146 11.0488
42.0057 10.8853
42.1969 10.8208
42.3882 10.6514
42.5797 10.4974
42.7713 10.3523
42.963 10.1753
43.1549 10.0002
43.3468 9.88736
43.5389 9.77062
43.7312 9.64674
43.9237 9.49472
44.1162 9.41051
44.3088 9.3323
44.5016 9.17277
44.6945 9.05731
44.8875 8.94204
45.0806 8.79295
45.2739 8.68679
45.4673 8.55963
45.6609 8.44895
45.8546 8.338
46.0484 8.23912
46.2424 8.13429
46.4365 8.03882
46.631 7.88835
46.8254 7.77221
47.0199 7.64855
47.2146 7.56907
47.4095 7.44467
47.6044 7.31485
47.7996 7.25249
47.9948 7.14805
48.1902 7.0101
48.3858 6.93778
48.5815 6.84421
48.7774 6.76882
48.9734 6.65339
49.1696 6.54686
49.3661 6.46198
49.5626 6.35899
49.7592 6.30521
49.956 6.21521
50.153 6.16192
50.3501 5.98853
50.5474 5.93063
50.7448 5.85882
50.9424 5.75768
51.1402 5.67619
51.3381 5.5917
51.5362 5.49868
51.7344 5.40469
51.9328 5.32569
52.1316 5.24802
52.3304 5.17682
52.5293 5.08088
52.7284 5.01432
52.9276 4.93064
53.1271 4.8633
53.3267 4.79335
53.5265 4.68527
53.7264 4.57557
53.9266 4.54741
54.1269 4.45508
54.3274 4.35421
54.528 4.20807
54.7289 4.12893
54.9301 3.96821
55.1314 3.86931
55.3328 3.69429
55.5344 3.54333
55.7361 3.45688

File: Ni3Fe_FD0030.xy
TT I
1.27165 32.8734
1.45013 28.7341
1.62863 25.2809
1.80712 22.9597
1.98562 22.9301
2.16411 24.2816
2.34263 24.859
2.52115 24.3672
2.69965 28.2477
2.87818 37.0918
3.05672 64.6273
3.23527 73.3156
3.4138 39.3001
3.59237 37.889
3.77094 37.8758
3.9495 34.3977
4.12809 46.8649
4.30669 91.0831
4.4853 59.398
4.6639 45.3701
4.84253 52.3574
5.02118 88.8331
5.19981 290.722
5.37848 3576.47
5.55716 153.791
5.73586 100.357
5.91455 113.035
6.09328 483.978
6.27201 290.254
6.45075 71.1446
6.62952 56.1268
6.8083 55.0537
6.98711 43.9268
7.16591 47.3476
7.34475 77.2172
7.5236 54.6556
7.70247 44.3026
7.88135 37.4301
8.06026 39.267
8.23919 45.1661
8.41812 58.1918
8.59709 168.911
8.77609 592.823
8.9551 77.4744
9.13412 59.9541
9.31318 250.949
9.49226 53.9353
9.67134 54.3196
9.85047 62.4638
10.0296 105.578
10.2088 543.219
10.388 123.819
10.5672 93.0325
10.7465 247.043
10.9257 49.4055
11.105 43.9407
11.2844 43.1129
11.4637 38.8428
11.6431 38.6156
11.8225 37.3913
12.002 75.9775
12.1814 47.9773
12.3609 96.0542
12.5405 44.5511
12.72 42.5517
12.8996 40.3153
13.0792 43.4344
13.2589 65.3729
13.4386 162.284
13.6183 89.2802
13.7981 171.252
13.9779 58.9654
14.1577 49.4653
14.3376 46.6487
14.5175 39.1583
14.6974 39.3204
14.8774 44.3647
15.0574 63.8931
15.2374 81.8364
15.4175 41.5987
15.5976 39.1002
15.7778 42.4873
15.958 56.0391
16.1382 105.284
16.3185 39.4944
16.4988 34.3439
16.6792 32.2963
16.8596 32.4295
17.04 40.0158
17.2205 34.3193
17.401 37.2398
17.5815 45.3273
17.7622 35.8563
17.9428 40.1996
18.1237 43.6851
18.3044 92.6377
18.4852 55.2402
18.666 59.2002
18.8469 36.3714
19.0278 34.0351
19.2088 34.4452
19.3898 41.0357
19.5709 47.1292
19.752 35.0949
19.9332 32.3613
20.1144 33.0597
20.2957 43.511
20.477 38.8649
20.6586 36.9189
20.84 32.369
21.0215 29.7438
21.203 29.067
21.3846 29.6656
21.5662 31.8037
21.7479 30.0722
21.9297 31.471
22.1115 41.7858
22.2933 40.7604
22.4753 34.3015
22.6572 30.3414
22.8393 30.876
23.0214 31.373
23.2037 39.5774
23.3859 33.0211
23.5682 33.9593
23.7505 34.7017
23.9329 38.2335
24.1154 29.2892
24.2979 27.59
24.4805 26.8369
24.6631 26.7611
24.8458 27.7413
25.0286 26.4104
25.2114 26.603
25.3943 28.9717
25.5773 30.1303
25.7605 27.8556
25.9436 26.7973
26.1268 25.7835
26.31 26.9782
26.4933 27.3496
26.6767 25.8863
26.8601 27.5257
27.0437 29.2723
27.2272 26.2636
27.4109 24.7878
27.5946 24.7531
27.7784 25.0821
27.9623 24.9556
28.1462 25.5483
28.3304 27.1022
28.5145 26.5256
28.6987 24.536
28.8829 23.1107
29.0673 22.6674
29.2517 23.2616
29.4361 22.1198
29.6207 22.1432
29.8053 22.3443
29.99 21.416
30.1748 21.4449
30.3597 21.1569
30.5447 21.4881
30.7297 21.0944
30.915 21.2601
31.1002 22.3853
31.2855 21.34
31.4708 20.5251
31.6563 20.5679
31.8418 21.0926
32.0275 20.287
32.2132 20.3997
32.399 20.5058
32.5848 19.5518
32.7708 19.0305
32.9569 18.7861
33.143 18.7944
33.3293 18.481
33.5158 18.7717
33.7022 18.639
33.8887 17.9305
34.0753 17.6487
34.262 17.6231
34.4488 17.1809
34.6357 17.0575
34.8227 16.8831
35.0098 16.5666
35.1969 16.348
35.3842 16.3285
35.5716 16.2301
35.759 16.4074
35.9468 16.3179
36.1345 15.8831
36.3222 15.6058
36.5101 15.6009
36.6981 15.3454
36.8861 15.0614
37.0743 15.0271
37.2626 14.6752
37.451 14.5631
37.6395 14.4273
37.8281 14.1132
38.0168 14.0236
38.2056 13.878
38.3945 13.6469
38.5837 13.4929
38.7728 13.3616
38.9621 13.1295
39.1514 13.0358
39.3409 12.7875
39.5304 12.6383
39.7201 12.5175
39.9099 12.3995
40.0999 12.2635
40.2899 12.1958
40.48 11.9602
40.6703 11.8444
40.8607 11.738
41.0512 11.6404
41.242 11.4677
41.4327 11.3117
41.6236 11.1658
41.8146 11.0206
42.0057 10.8905
42.1969 10.7913
42.3882 10.6113
42.5797 10.4621
42.7713 10.2939
42.963 10.1872
43.1549 10.0565
43.3468 9.93541
43.5389 9.76217
43.7312 9.61584
43.9237 9.54434
44.1162 9.40236
44.3088 9.26533
44.5016 9.14159
44.6945 9.0204
44.8875 8.93778
45.0806 8.81501
45.2739 8.68304
45.4673 8.57249
45.6609 8.44398
45.8546 8.30566
46.0484 8.22258
46.2424 8.0984
46.4365 8.02564
46.631 7.91295
46.8254 7.76033
47.0199 7.67138
47.2146 7.57735
47.4095 7.45676
47.6044 7.32663
47.7996 7.22875
47.9948 7.11525
48.1902 7.04556
48.3858 6.94558
48.5815 6.83461
48.7774 6.77663
48.9734 6.62913
49.1696 6.55735
49.3661 6.46227
49.5626 6.36795
49.7592 6.25359
49.956 6.2174
50.153 6.08709
50.3501 6.01173
50.5474 5.93014
50.7448 5.85521
50.9424 5.75708
51.1402 5.70778
51.3381 5.60047
51.5362 5.49663
51.7344 5.41553
51.9328 5.34422
52.1316 5.24192
52.3304 5.1694
52.5293 5.06671
52.7284 4.9993
52.9276 4.93024
53.1271 4.86484
53.3267 4.77646
53.5265 4.69462
53.7264 4.61539
53.9266 4.50613
54.1269 4.42212
54.3274 4.35962
54.528 4.20341
54.7289 4.09996
54.9301 3.94486
55.1314 3.87446
55.3328 3.68835
55.5344 3.55283
55.7361 3.49554