Folder: NiFe_MOF_catalyst_paper/XRD (part 167)

File: Ni3Fe_FD0906.xy
TT I
1.27165 7.31666
1.45013 6.27692
1.62863 5.01585
1.80712 4.6371
1.98562 4.87133
2.16411 5.067
2.34263 6.28335
2.52115 7.47631
2.69965 8.63628
2.87818 8.82921
3.05672 11.5246
3.23527 15.1261
3.4138 18.4939
3.59237 23.7876
3.77094 25.6548
3.9495 29.3849
4.12809 34.0577
4.30669 145.543
4.4853 57.6437
4.6639 54.9511
4.84253 66.9926
5.02118 86.0556
5.19981 338.995
5.37848 174.839
5.55716 100.787
5.73586 90.9393
5.91455 92.9879
6.09328 4587.75
6.27201 79.66
6.45075 66.835
6.62952 61.8501
6.8083 58.2548
6.98711 54.8227
7.16591 54.5961
7.34475 75.7527
7.5236 53.8483
7.70247 55.7152
7.88135 56.6506
8.06026 61.726
8.23919 68.4759
8.41812 82.8603
8.59709 1199.05
8.77609 95.7705
8.9551 88.6492
9.13412 81.1851
9.31318 82.3027
9.49226 83.496
9.67134 94.1447
9.85047 98.7432
10.0296 325.544
10.2088 334.818
10.388 102.691
10.5672 543.502
10.7465 84.653
10.9257 76.8244
11.105 70.1939
11.2844 67.7309
11.4637 63.742
11.6431 62.2253
11.8225 61.2156
12.002 62.8284
12.1814 158.018
12.3609 66.7105
12.5405 63.6335
12.72 67.5666
12.8996 69.8441
13.0792 78.1257
13.2589 241.656
13.4386 114.021
13.6183 258.399
13.7981 91.5423
13.9779 74.5872
14.1577 70.8169
14.3376 69.649
14.5175 67.6716
14.6974 69.3819
14.8774 109.146
15.0574 138.117
15.2374 68.736
15.4175 65.2316
15.5976 64.6314
15.7778 93.0254
15.958 147.299
16.1382 60.8314
16.3185 57.1893
16.4988 54.2393
16.6792 53.5851
16.8596 53.9424
17.04 54.9673
17.2205 65.6929
17.401 67.5955
17.5815 58.1881
17.7622 60.2118
17.9428 72.0544
18.1237 140.09
18.3044 90.5349
18.4852 73.1234
18.666 59.2153
18.8469 57.1543
19.0278 55.737
19.2088 58.439
19.3898 75.447
19.5709 53.1104
19.752 52.2793
19.9332 55.2519
20.1144 69.4769
20.2957 63.8761
20.477 51.7958
20.6586 48.7012
20.84 48.0826
21.0215 47.7152
21.203 50.0949
21.3846 47.9121
21.5662 48.1118
21.7479 51.8166
21.9297 64.2193
22.1115 55.6842
22.2933 48.6111
22.4753 47.8579
22.6572 47.9715
22.8393 51.1872
23.0214 56.1652
23.2037 47.8536
23.3859 48.9167
23.5682 57.0311
23.7505 47.0952
23.9329 44.4258
24.1154 43.3874
24.2979 42.6904
24.4805 42.2763
24.6631 41.9838
24.8458 41.5021
25.0286 42.1625
25.2114 44.0534
25.3943 43.8489
25.5773 40.2029
25.7605 39.7569
25.9436 40.1687
26.1268 41.0215
26.31 39.4168
26.4933 40.1396
26.6767 41.4937
26.8601 39.637
27.0437 38.3185
27.2272 37.7673
27.4109 37.714
27.5946 37.6986
27.7784 37.3511
27.9623 37.9076
28.1462 38.2679
28.3304 36.509
28.5145 35.4065
28.6987 34.9723
28.8829 34.7931
29.0673 34.1221
29.2517 33.8297
29.4361 33.5136
29.6207 32.5692
29.8053 32.3437
29.99 31.9818
30.1748 31.8524
30.3597 31.6461
30.5447 31.5745
30.7297 31.7751
30.915 31.0949
31.1002 30.5848
31.2855 30.3504
31.4708 30.3495
31.6563 29.8839
31.8418 29.6065
32.0275 29.4136
32.2132 28.935
32.399 28.4268
32.5848 27.9974
32.7708 27.6659
32.9569 27.5548
33.143 27.2802
33.3293 26.9151
33.5158 26.5287
33.7022 26.2002
33.8887 25.8871
34.0753 25.5106
34.262 25.2171
34.4488 24.8603
34.6357 24.5718
34.8227 24.3117
35.0098 24.0328
35.1969 23.8327
35.3842 23.6279
35.5716 23.3685
35.759 23.0185
35.9468 22.6974
36.1345 22.5366
36.3222 22.2485
36.5101 22.0688
36.6981 21.7588
36.8861 21.4759
37.0743 21.1481
37.2626 20.9359
37.451 20.5975
37.6395 20.542
37.8281 20.1042
38.0168 19.819
38.2056 19.6448
38.3945 19.3773
38.5837 19.1298
38.7728 18.8701
38.9621 18.6715
39.1514 18.4014
39.3409 18.1289
39.5304 17.9247
39.7201 17.8216
39.9099 17.5542
40.0999 17.2853
40.2899 17.0482
40.48 16.823
40.6703 16.6708
40.8607 16.4571
41.0512 16.2302
41.242 15.9441
41.4327 15.7547
41.6236 15.5982
41.8146 15.4005
42.0057 15.1967
42.1969 15.0105
42.3882 14.7968
42.5797 14.5881
42.7713 14.4092
42.963 14.1607
43.1549 13.9548
43.3468 13.7817
43.5389 13.6166
43.7312 13.3966
43.9237 13.2539
44.1162 13.0907
44.3088 12.8542
44.5016 12.7218
44.6945 12.4777
44.8875 12.3289
45.0806 12.1393
45.2739 12.0108
45.4673 11.8562
45.6609 11.6361
45.8546 11.5124
46.0484 11.3215
46.2424 11.1684
46.4365 11.054
46.631 10.8713
46.8254 10.6922
47.0199 10.5331
47.2146 10.3997
47.4095 10.1918
47.6044 10.075
47.7996 9.93114
47.9948 9.74743
48.1902 9.60988
48.3858 9.50525
48.5815 9.38628
48.7774 9.19869
48.9734 9.09174
49.1696 8.9131
49.3661 8.83305
49.5626 8.66641
49.7592 8.54569
49.956 8.4392
50.153 8.28462
50.3501 8.17088
50.5474 8.04156
50.7448 7.9304
50.9424 7.83729
51.1402 7.67701
51.3381 7.53616
51.5362 7.43206
51.7344 7.29337
51.9328 7.16143
52.1316 7.06638
52.3304 6.9527
52.5293 6.83352
52.7284 6.74337
52.9276 6.64107
53.1271 6.51451
53.3267 6.37414
53.5265 6.27942
53.7264 6.19592
53.9266 6.06661
54.1269 5.93542
54.3274 5.79824
54.528 5.65331
54.7289 5.56881
54.9301 5.37741
55.1314 5.30836
55.3328 5.08773
55.5344 4.88265
55.7361 4.72791

File: Ni3Fe_FD0907.xy
TT I
1.27165 7.15098
1.45013 6.28056
1.62863 5.23964
1.80712 4.75593
1.98562 4.704
2.16411 4.61217
2.34263 5.69457
2.52115 6.96416
2.69965 8.58946
2.87818 9.49058
3.05672 10.9666
3.23527 15.1045
3.4138 18.8796
3.59237 23.1308
3.77094 25.4188
3.9495 28.8046
4.12809 33.7774
4.30669 141.836
4.4853 57.2047
4.6639 54.5537
4.84253 66.9077
5.02118 85.6837
5.19981 342.982
5.37848 175.651
5.55716 100.258
5.73586 91.0062
5.91455 92.8398
6.09328 4570.52
6.27201 79.0754
6.45075 67.0296
6.62952 61.5949
6.8083 57.8401
6.98711 54.7743
7.16591 54.566
7.34475 74.956
7.5236 53.7634
7.70247 55.3251
7.88135 56.8313
8.06026 61.3244
8.23919 68.466
8.41812 83.0713
8.59709 1192.4
8.77609 95.8301
8.9551 88.1202
9.13412 80.9825
9.31318 82.288
9.49226 83.387
9.67134 94.3203
9.85047 98.5668
10.0296 326.404
10.2088 331.316
10.388 102.365
10.5672 542.05
10.7465 84.783
10.9257 76.6214
11.105 70.4083
11.2844 68.0256
11.4637 63.8938
11.6431 62.4864
11.8225 61.5329
12.002 62.8278
12.1814 157.006
12.3609 66.5701
12.5405 63.5868
12.72 67.3638
12.8996 69.8527
13.0792 78.2049
13.2589 242.195
13.4386 113.98
13.6183 257.297
13.7981 91.3893
13.9779 74.4661
14.1577 70.6812
14.3376 69.4134
14.5175 67.6791
14.6974 69.3751
14.8774 109.484
15.0574 138.81
15.2374 68.8785
15.4175 65.1286
15.5976 64.9501
15.7778 92.8731
15.958 146.001
16.1382 60.5779
16.3185 57.1072
16.4988 54.3314
16.6792 53.2194
16.8596 53.9338
17.04 54.8547
17.2205 65.6869
17.401 67.5197
17.5815 58.0788
17.7622 60.1066
17.9428 72.0614
18.1237 139.682
18.3044 90.5417
18.4852 73.2042
18.666 59.3038
18.8469 56.747
19.0278 55.7325
19.2088 58.1089
19.3898 74.7616
19.5709 53.0982
19.752 52.2579
19.9332 55.2133
20.1144 69.4378
20.2957 63.967
20.477 51.8056
20.6586 48.7612
20.84 47.9665
21.0215 47.4667
21.203 50.114
21.3846 47.8192
21.5662 48.0412
21.7479 51.7149
21.9297 64.2186
22.1115 55.7109
22.2933 48.6616
22.4753 47.9246
22.6572 48.0671
22.8393 51.2183
23.0214 56.1062
23.2037 47.8241
23.3859 48.7383
23.5682 56.9221
23.7505 46.8381
23.9329 44.3828
24.1154 43.2443
24.2979 42.688
24.4805 42.2571
24.6631 42.0483
24.8458 41.4564
25.0286 42.2119
25.2114 43.9108
25.3943 43.6641
25.5773 40.1722
25.7605 39.7339
25.9436 40.0801
26.1268 41.0053
26.31 39.3459
26.4933 40.0246
26.6767 41.4881
26.8601 39.6969
27.0437 38.14
27.2272 37.9451
27.4109 37.7248
27.5946 37.7366
27.7784 37.1498
27.9623 37.7881
28.1462 37.9439
28.3304 36.405
28.5145 35.161
28.6987 34.9803
28.8829 34.8525
29.0673 33.9495
29.2517 33.6974
29.4361 33.6531
29.6207 32.5247
29.8053 32.3763
29.99 31.9562
30.1748 31.8648
30.3597 31.5952
30.5447 31.5928
30.7297 31.7205
30.915 30.97
31.1002 30.5819
31.2855 30.3368
31.4708 30.3323
31.6563 29.9251
31.8418 29.6485
32.0275 29.3229
32.2132 28.7919
32.399 28.4013
32.5848 28.0015
32.7708 27.6602
32.9569 27.4873
33.143 27.3567
33.3293 26.9213
33.5158 26.5446
33.7022 26.1876
33.8887 25.881
34.0753 25.4868
34.262 25.2255
34.4488 24.875
34.6357 24.5552
34.8227 24.2773
35.0098 24.0715
35.1969 23.6793
35.3842 23.5184
35.5716 23.4341
35.759 23.0795
35.9468 22.7245
36.1345 22.5345
36.3222 22.2484
36.5101 22.0357
36.6981 21.7793
36.8861 21.3654
37.0743 21.0901
37.2626 20.9004
37.451 20.5963
37.6395 20.5003
37.8281 20.1337
38.0168 19.7727
38.2056 19.5834
38.3945 19.3081
38.5837 19.1317
38.7728 18.8289
38.9621 18.6159
39.1514 18.3032
39.3409 18.202
39.5304 17.9182
39.7201 17.7153
39.9099 17.5313
40.0999 17.3074
40.2899 17.083
40.48 16.8516
40.6703 16.6564
40.8607 16.4754
41.0512 16.1772
41.242 15.9409
41.4327 15.7712
41.6236 15.499
41.8146 15.4022
42.0057 15.1999
42.1969 14.9456
42.3882 14.7939
42.5797 14.5818
42.7713 14.3953
42.963 14.1767
43.1549 13.9933
43.3468 13.788
43.5389 13.6014
43.7312 13.4354
43.9237 13.2177
44.1162 13.0744
44.3088 12.8911
44.5016 12.6858
44.6945 12.4958
44.8875 12.3608
45.0806 12.1325
45.2739 12.0002
45.4673 11.8346
45.6609 11.6026
45.8546 11.4718
46.0484 11.3592
46.2424 11.1851
46.4365 11.0428
46.631 10.8047
46.8254 10.6335
47.0199 10.5208
47.2146 10.3858
47.4095 10.2208
47.6044 10.0646
47.7996 9.93059
47.9948 9.7442
48.1902 9.65139
48.3858 9.49152
48.5815 9.32229
48.7774 9.2296
48.9734 9.08
49.1696 8.95741
49.3661 8.81402
49.5626 8.65043
49.7592 8.55426
49.956 8.43059
50.153 8.29542
50.3501 8.16352
50.5474 8.02544
50.7448 7.88554
50.9424 7.81376
51.1402 7.65173
51.3381 7.52833
51.5362 7.44632
51.7344 7.31691
51.9328 7.20836
52.1316 7.0535
52.3304 6.92503
52.5293 6.82431
52.7284 6.74501
52.9276 6.58949
53.1271 6.50394
53.3267 6.39793
53.5265 6.27565
53.7264 6.16019
53.9266 6.09071
54.1269 5.95658
54.3274 5.88569
54.528 5.71899
54.7289 5.54545
54.9301 5.37958
55.1314 5.25192
55.3328 5.09235
55.5344 4.93082
55.7361 4.76141

File: Ni3Fe_FD0908.xy
TT I
1.27165 7.0496
1.45013 6.02711
1.62863 5.25972
1.80712 4.81432
1.98562 4.76988
2.16411 4.79149
2.34263 5.386
2.52115 7.67749
2.69965 8.27557
2.87818 9.0131
3.05672 11.2404
3.23527 15.6335
3.4138 18.5482
3.59237 23.7787
3.77094 25.6589
3.9495 29.4963
4.12809 34.4945
4.30669 137.975
4.4853 56.9706
4.6639 54.7446
4.84253 66.8355
5.02118 86.0975
5.19981 344.776
5.37848 177.386
5.55716 100.524
5.73586 91.0473
5.91455 92.3456
6.09328 4586.5
6.27201 79.1911
6.45075 67.2842
6.62952 61.7382
6.8083 57.9924
6.98711 54.9714
7.16591 54.2832
7.34475 74.688
7.5236 53.9242
7.70247 55.6314
7.88135 57.0046
8.06026 61.3937
8.23919 68.3641
8.41812 82.848
8.59709 1191.63
8.77609 95.8622
8.9551 88.4297
9.13412 81.1024
9.31318 82.0097
9.49226 83.4028
9.67134 94.7006
9.85047 98.9196
10.0296 327.246
10.2088 329.333
10.388 102.604
10.5672 542.98
10.7465 84.6541
10.9257 76.9727
11.105 70.2489
11.2844 67.9216
11.4637 63.8081
11.6431 62.4603
11.8225 61.6862
12.002 63.0086
12.1814 157.067
12.3609 66.6892
12.5405 63.6433
12.72 67.5676
12.8996 70.1587
13.0792 78.4155
13.2589 243.27
13.4386 113.967
13.6183 257.929
13.7981 91.5636
13.9779 74.669
14.1577 70.6314
14.3376 69.5186
14.5175 67.6833
14.6974 69.197
14.8774 109.817
15.0574 139.042
15.2374 68.7665
15.4175 65.1645
15.5976 64.774
15.7778 92.8962
15.958 145.698
16.1382 60.5996
16.3185 57.1347
16.4988 54.1984
16.6792 53.5034
16.8596 53.9142
17.04 54.8652
17.2205 65.9429
17.401 67.4741
17.5815 57.9136
17.7622 60.2626
17.9428 72.0519
18.1237 139.632
18.3044 90.4811
18.4852 73.168
18.666 59.1709
18.8469 57.0109
19.0278 55.8594
19.2088 58.134
19.3898 74.8706
19.5709 53.1763
19.752 52.3948
19.9332 55.3493
20.1144 69.3995
20.2957 64.0105
20.477 51.9507
20.6586 48.7155
20.84 47.9467
21.0215 47.6196
21.203 50.2125
21.3846 47.9386
21.5662 48.1755
21.7479 51.6825
21.9297 64.1556
22.1115 55.6681
22.2933 48.8515
22.4753 47.8604
22.6572 48.0264
22.8393 51.1264
23.0214 56.0559
23.2037 47.8367
23.3859 48.8568
23.5682 57.057
23.7505 47.1015
23.9329 44.2166
24.1154 43.3197
24.2979 42.6701
24.4805 42.2348
24.6631 41.9828
24.8458 41.6265
25.0286 42.0252
25.2114 43.8711
25.3943 43.7806
25.5773 40.2161
25.7605 39.7608
25.9436 40.2426
26.1268 41.0093
26.31 39.449
26.4933 40.0515
26.6767 41.4585
26.8601 39.7669
27.0437 38.2225
27.2272 37.7917
27.4109 37.8129
27.5946 37.703
27.7784 37.3545
27.9623 37.8868
28.1462 38.1102
28.3304 36.5138
28.5145 35.3219
28.6987 35.041
28.8829 34.7841
29.0673 34.0687
29.2517 33.7123
29.4361 33.6106
29.6207 32.6464
29.8053 32.2989
29.99 32.0302
30.1748 31.9376
30.3597 31.7806
30.5447 31.5992
30.7297 31.728
30.915 31.0516
31.1002 30.5986
31.2855 30.3265
31.4708 30.3472
31.6563 29.8412
31.8418 29.5981
32.0275 29.3805
32.2132 28.9349
32.399 28.3758
32.5848 28.0796
32.7708 27.6473
32.9569 27.5394
33.143 27.3317
33.3293 26.9977
33.5158 26.6565
33.7022 26.1973
33.8887 25.9145
34.0753 25.5037
34.262 25.1319
34.4488 24.8974
34.6357 24.5767
34.8227 24.2926
35.0098 24.0808
35.1969 23.8631
35.3842 23.5992
35.5716 23.4583
35.759 23.0625
35.9468 22.6887
36.1345 22.5334
36.3222 22.2138
36.5101 22.034
36.6981 21.7568
36.8861 21.4671
37.0743 21.1733
37.2626 20.8954
37.451 20.7096
37.6395 20.4668
37.8281 20.0624
38.0168 19.9336
38.2056 19.7161
38.3945 19.4291
38.5837 19.0894
38.7728 18.9147
38.9621 18.6716
39.1514 18.4037
39.3409 18.1693
39.5304 17.9386
39.7201 17.8425
39.9099 17.6109
40.0999 17.3019
40.2899 17.0965
40.48 16.7837
40.6703 16.6231
40.8607 16.4313
41.0512 16.1809
41.242 16.0059
41.4327 15.7759
41.6236 15.5755
41.8146 15.4119
42.0057 15.1487
42.1969 14.9888
42.3882 14.8119
42.5797 14.6064
42.7713 14.3353
42.963 14.138
43.1549 13.9694
43.3468 13.7353
43.5389 13.5857
43.7312 13.3949
43.9237 13.2456
44.1162 13.0677
44.3088 12.8944
44.5016 12.6862
44.6945 12.5408
44.8875 12.3646
45.0806 12.2097
45.2739 11.9932
45.4673 11.8401
45.6609 11.6302
45.8546 11.4981
46.0484 11.3254
46.2424 11.1647
46.4365 11.0223
46.631 10.8347
46.8254 10.6643
47.0199 10.5237
47.2146 10.3949
47.4095 10.2082
47.6044 10.0579
47.7996 9.91072
47.9948 9.75653
48.1902 9.63424
48.3858 9.52401
48.5815 9.37383
48.7774 9.26428
48.9734 9.10535
49.1696 8.96082
49.3661 8.80933
49.5626 8.66754
49.7592 8.53843
49.956 8.43319
50.153 8.29933
50.3501 8.18146
50.5474 8.02726
50.7448 7.91624
50.9424 7.79573
51.1402 7.66577
51.3381 7.56358
51.5362 7.41488
51.7344 7.29048
51.9328 7.14876
52.1316 7.02625
52.3304 6.94186
52.5293 6.87768
52.7284 6.71535
52.9276 6.62415
53.1271 6.54396
53.3267 6.3828
53.5265 6.31018
53.7264 6.20088
53.9266 6.0541
54.1269 5.9442
54.3274 5.84664
54.528 5.69031
54.7289 5.58835
54.9301 5.42043
55.1314 5.28298
55.3328 5.06293
55.5344 4.89221
55.7361 4.75186

File: Ni3Fe_FD0909.xy
TT I
1.27165 7.22698
1.45013 6.41043
1.62863 4.70478
1.80712 4.68498
1.98562 5.19452
2.16411 5.23774
2.34263 6.0003
2.52115 7.08547
2.69965 8.18915
2.87818 9.62503
3.05672 11.4116
3.23527 14.7498
3.4138 19.369
3.59237 23.1946
3.77094 25.5191
3.9495 29.4199
4.12809 34.0117
4.30669 134.682
4.4853 56.8351
4.6639 55.0079
4.84253 67.8007
5.02118 85.9435
5.19981 346.128
5.37848 178.822
5.55716 100.679
5.73586 91.4897
5.91455 93.328
6.09328 4726.29
6.27201 79.7386
6.45075 67.8342
6.62952 61.5101
6.8083 58.3247
6.98711 54.7034
7.16591 55.135
7.34475 73.8813
7.5236 53.8003
7.70247 55.5129
7.88135 56.9517
8.06026 61.6042
8.23919 68.6047
8.41812 83.2625
8.59709 1201.64
8.77609 95.9463
8.9551 88.4073
9.13412 81.0366
9.31318 82.3435
9.49226 83.6443
9.67134 94.5114
9.85047 99.1321
10.0296 329.308
10.2088 324.66
10.388 102.917
10.5672 544.01
10.7465 84.7009
10.9257 76.9081
11.105 70.6494
11.2844 67.9009
11.4637 63.8266
11.6431 62.4001
11.8225 61.6476
12.002 62.9252
12.1814 157.622
12.3609 66.3656
12.5405 63.5757
12.72 67.3525
12.8996 70.1911
13.0792 78.3845
13.2589 243.87
13.4386 113.41
13.6183 258.174
13.7981 91.4715
13.9779 74.5049
14.1577 70.8667
14.3376 69.2705
14.5175 67.6072
14.6974 69.4004
14.8774 109.709
15.0574 138.49
15.2374 68.7663
15.4175 65.1896
15.5976 64.6982
15.7778 93.298
15.958 144.641
16.1382 60.6618
16.3185 57.0846
16.4988 54.2767
16.6792 53.4204
16.8596 53.8522
17.04 54.9633
17.2205 65.9799
17.401 67.568
17.5815 57.8256
17.7622 60.4384
17.9428 72.09
18.1237 139.753
18.3044 90.3911
18.4852 73.0905
18.666 59.1536
18.8469 57.0536
19.0278 55.8277
19.2088 58.2414
19.3898 75.0334
19.5709 52.9969
19.752 52.4317
19.9332 55.2755
20.1144 69.2367
20.2957 64.0681
20.477 51.8371
20.6586 48.655
20.84 47.8955
21.0215 47.704
21.203 49.9198
21.3846 48.0137
21.5662 48.0294
21.7479 51.8236
21.9297 64.2224
22.1115 55.6358
22.2933 48.6984
22.4753 47.9517
22.6572 47.9167
22.8393 51.3197
23.0214 56.1894
23.2037 47.9516
23.3859 48.7782
23.5682 56.8018
23.7505 46.8295
23.9329 44.2597
24.1154 43.3079
24.2979 42.6307
24.4805 42.2599
24.6631 42.0557
24.8458 41.4509
25.0286 42.0796
25.2114 44.0136
25.3943 43.7987
25.5773 40.1132
25.7605 39.7036
25.9436 40.2165
26.1268 41.0753
26.31 39.4172
26.4933 39.9931
26.6767 41.4606
26.8601 39.7261
27.0437 38.1955
27.2272 37.7157
27.4109 37.8814
27.5946 37.6532
27.7784 37.3133
27.9623 37.8451
28.1462 38.1328
28.3304 36.3863
28.5145 35.3549
28.6987 34.9942
28.8829 34.8699
29.0673 34.121
29.2517 33.7343
29.4361 33.586
29.6207 32.5242
29.8053 32.2309
29.99 32.0009
30.1748 31.8775
30.3597 31.6516
30.5447 31.5977
30.7297 31.7147
30.915 31.0623
31.1002 30.5839
31.2855 30.4789
31.4708 30.4107
31.6563 29.8135
31.8418 29.6308
32.0275 29.4775
32.2132 28.883
32.399 28.3716
32.5848 28.0475
32.7708 27.6348
32.9569 27.6126
33.143 27.3614
33.3293 26.9224
33.5158 26.5389
33.7022 26.1676
33.8887 25.8344
34.0753 25.546
34.262 25.192
34.4488 24.8068
34.6357 24.4778
34.8227 24.2599
35.0098 24.084
35.1969 23.7584
35.3842 23.6058
35.5716 23.3117
35.759 23.039
35.9468 22.7834
36.1345 22.5744
36.3222 22.2595
36.5101 22.0789
36.6981 21.7124
36.8861 21.4474
37.0743 21.1553
37.2626 20.9347
37.451 20.6641
37.6395 20.4803
37.8281 20.1488
38.0168 19.9115
38.2056 19.6476
38.3945 19.4232
38.5837 19.1984
38.7728 18.8412
38.9621 18.6606
39.1514 18.369
39.3409 18.1729
39.5304 17.943
39.7201 17.7373
39.9099 17.584
40.0999 17.3502
40.2899 17.0782
40.48 16.8297
40.6703 16.6696
40.8607 16.4894
41.0512 16.2159
41.242 15.9266
41.4327 15.8586
41.6236 15.5974
41.8146 15.4141
42.0057 15.2152
42.1969 14.9713
42.3882 14.7531
42.5797 14.5605
42.7713 14.348
42.963 14.191
43.1549 14.0032
43.3468 13.8189
43.5389 13.5944
43.7312 13.4048
43.9237 13.2714
44.1162 12.993
44.3088 12.8444
44.5016 12.6966
44.6945 12.5414
44.8875 12.3444
45.0806 12.1633
45.2739 11.956
45.4673 11.869
45.6609 11.6566
45.8546 11.5265
46.0484 11.3449
46.2424 11.1581
46.4365 11.0448
46.631 10.841
46.8254 10.6778
47.0199 10.5165
47.2146 10.4155
47.4095 10.2138
47.6044 10.0812
47.7996 9.93876
47.9948 9.78241
48.1902 9.63718
48.3858 9.49175
48.5815 9.39939
48.7774 9.25025
48.9734 9.10684
49.1696 8.97412
49.3661 8.82984
49.5626 8.67496
49.7592 8.55615
49.956 8.44436
50.153 8.30703
50.3501 8.1643
50.5474 8.04026
50.7448 7.91848
50.9424 7.76876
51.1402 7.68481
51.3381 7.53132
51.5362 7.42304
51.7344 7.31202
51.9328 7.18134
52.1316 7.08698
52.3304 6.9275
52.5293 6.798
52.7284 6.7388
52.9276 6.6212
53.1271 6.53445
53.3267 6.37272
53.5265 6.28278
53.7264 6.20187
53.9266 6.07499
54.1269 5.94522
54.3274 5.86291
54.528 5.68889
54.7289 5.51757
54.9301 5.38919
55.1314 5.26307
55.3328 5.10579
55.5344 4.9497
55.7361 4.72149

File: Ni3Fe_FD0911.xy
TT I
1.27165 7.5196
1.45013 5.44914
1.62863 5.36451
1.80712 4.82888
1.98562 4.2738
2.16411 5.00438
2.34263 5.98336
2.52115 7.48537
2.69965 8.17213
2.87818 9.13046
3.05672 11.2107
3.23527 15.5109
3.4138 18.3854
3.59237 23.1552
3.77094 25.744
3.9495 29.4341
4.12809 34.1765
4.30669 128.525
4.4853 56.0679
4.6639 54.9495
4.84253 67.0608
5.02118 86.0804
5.19981 350.245
5.37848 180.364
5.55716 100.57
5.73586 91.2378
5.91455 93.0981
6.09328 4748.69
6.27201 79.1256
6.45075 68.0989
6.62952 61.9139
6.8083 58.6619
6.98711 54.8615
7.16591 55.4107
7.34475 72.6639
7.5236 53.7442
7.70247 55.6173
7.88135 56.938
8.06026 61.6217
8.23919 68.5654
8.41812 83.0174
8.59709 1201.27
8.77609 95.9579
8.9551 88.5923
9.13412 81.3605
9.31318 82.9187
9.49226 83.5837
9.67134 94.7568
9.85047 99.5792
10.0296 328.68
10.2088 325.157
10.388 102.911
10.5672 544.748
10.7465 84.7956
10.9257 76.9206
11.105 70.4278
11.2844 67.8691
11.4637 63.8153
11.6431 62.2423
11.8225 61.6154
12.002 62.9368
12.1814 157.812
12.3609 66.4147
12.5405 63.5757
12.72 67.4297
12.8996 70.083
13.0792 78.5777
13.2589 244.069
13.4386 113.706
13.6183 258.591
13.7981 91.6692
13.9779 74.673
14.1577 70.7142
14.3376 69.4132
14.5175 67.7552
14.6974 69.4124
14.8774 109.808
15.0574 138.224
15.2374 68.7631
15.4175 65.218
15.5976 64.6752
15.7778 93.8064
15.958 145.157
16.1382 60.5669
16.3185 57.2148
16.4988 54.5207
16.6792 53.5753
16.8596 54.0432
17.04 54.9239
17.2205 66.0055
17.401 67.5081
17.5815 58.2393
17.7622 60.2908
17.9428 72.279
18.1237 139.967
18.3044 90.434
18.4852 73.0748
18.666 59.2802
18.8469 56.9039
19.0278 55.8211
19.2088 58.2158
19.3898 75.0268
19.5709 53.1785
19.752 52.4148
19.9332 55.26
20.1144 69.2933
20.2957 64.1936
20.477 51.8809
20.6586 48.7371
20.84 48.0497
21.0215 47.8998
21.203 50.2239
21.3846 47.9968
21.5662 48.1119
21.7479 51.9734
21.9297 64.1067
22.1115 55.3431
22.2933 48.8271
22.4753 47.7771
22.6572 48.0585
22.8393 51.2412
23.0214 56.0415
23.2037 47.8885
23.3859 48.8082
23.5682 56.8658
23.7505 46.9384
23.9329 44.5147
24.1154 43.4019
24.2979 42.6139
24.4805 42.218
24.6631 41.9788
24.8458 41.5255
25.0286 42.1344
25.2114 43.9839
25.3943 43.7808
25.5773 40.1314
25.7605 39.8156
25.9436 40.2628
26.1268 41.0521
26.31 39.4219
26.4933 40.0651
26.6767 41.4453
26.8601 39.7223
27.0437 38.1817
27.2272 37.8783
27.4109 37.8134
27.5946 37.7437
27.7784 37.1845
27.9623 37.936
28.1462 38.0979
28.3304 36.5019
28.5145 35.3612
28.6987 34.9347
28.8829 34.9074
29.0673 34.0523
29.2517 33.8052
29.4361 33.5482
29.6207 32.5656
29.8053 32.173
29.99 31.9829
30.1748 31.811
30.3597 31.679
30.5447 31.5839
30.7297 31.7736
30.915 31.0503
31.1002 30.6478
31.2855 30.3179
31.4708 30.2657
31.6563 29.8763
31.8418 29.6566
32.0275 29.417
32.2132 28.9138
32.399 28.4969
32.5848 27.9615
32.7708 27.6581
32.9569 27.5862
33.143 27.3224
33.3293 27.0377
33.5158 26.5697
33.7022 26.1871
33.8887 25.8885
34.0753 25.5601
34.262 25.2458
34.4488 24.853
34.6357 24.6114
34.8227 24.3146
35.0098 24.1386
35.1969 23.7894
35.3842 23.5527
35.5716 23.4453
35.759 23.111
35.9468 22.7188
36.1345 22.48
36.3222 22.3316
36.5101 22.0362
36.6981 21.7709
36.8861 21.4296
37.0743 21.2034
37.2626 20.9136
37.451 20.7202
37.6395 20.4877
37.8281 20.1634
38.0168 19.8892
38.2056 19.6687
38.3945 19.3536
38.5837 19.0899
38.7728 18.8631
38.9621 18.6507
39.1514 18.352
39.3409 18.1538
39.5304 17.9245
39.7201 17.7492
39.9099 17.5525
40.0999 17.309
40.2899 17.0913
40.48 16.8355
40.6703 16.6664
40.8607 16.4901
41.0512 16.2257
41.242 15.966
41.4327 15.7839
41.6236 15.5743
41.8146 15.3919
42.0057 15.1725
42.1969 14.9625
42.3882 14.8195
42.5797 14.5279
42.7713 14.3787
42.963 14.146
43.1549 13.98
43.3468 13.7782
43.5389 13.6015
43.7312 13.4169
43.9237 13.2399
44.1162 13.0263
44.3088 12.8566
44.5016 12.6703
44.6945 12.5538
44.8875 12.3476
45.0806 12.1261
45.2739 12.0006
45.4673 11.8423
45.6609 11.65
45.8546 11.4902
46.0484 11.3483
46.2424 11.1553
46.4365 11.0339
46.631 10.858
46.8254 10.6671
47.0199 10.5431
47.2146 10.383
47.4095 10.2098
47.6044 10.0498
47.7996 9.91633
47.9948 9.7495
48.1902 9.6485
48.3858 9.47372
48.5815 9.35476
48.7774 9.22746
48.9734 9.10367
49.1696 8.93833
49.3661 8.8078
49.5626 8.65514
49.7592 8.55452
49.956 8.42761
50.153 8.26264
50.3501 8.12081
50.5474 8.08493
50.7448 7.93779
50.9424 7.81387
51.1402 7.71172
51.3381 7.55716
51.5362 7.42252
51.7344 7.31398
51.9328 7.16288
52.1316 7.07298
52.3304 6.95015
52.5293 6.83913
52.7284 6.72363
52.9276 6.62877
53.1271 6.55647
53.3267 6.39344
53.5265 6.27176
53.7264 6.17902
53.9266 6.08977
54.1269 5.96376
54.3274 5.90658
54.528 5.73149
54.7289 5.56795
54.9301 5.38084
55.1314 5.29934
55.3328 5.07749
55.5344 4.91415
55.7361 4.80987