Folder: NiFe_MOF_catalyst_paper/XRD (part 139)

File: Ni3Fe_FD0752.xy
TT I
1.27165 7.09141
1.45013 6.61935
1.62863 5.36499
1.80712 4.26539
1.98562 5.06515
2.16411 5.20622
2.34263 5.25286
2.52115 6.69047
2.69965 7.9691
2.87818 8.87148
3.05672 10.9294
3.23527 15.2832
3.4138 19.2822
3.59237 24.1536
3.77094 26.1995
3.9495 29.9969
4.12809 34.7863
4.30669 244.337
4.4853 68.2932
4.6639 55.2612
4.84253 66.618
5.02118 85.7944
5.19981 310.842
5.37848 186.126
5.55716 101.175
5.73586 90.8377
5.91455 92.2606
6.09328 4286.36
6.27201 82.6143
6.45075 67.1882
6.62952 62.7104
6.8083 58.3201
6.98711 55.5761
7.16591 55.2221
7.34475 97.26
7.5236 54.8313
7.70247 55.8081
7.88135 57.8132
8.06026 62.0204
8.23919 68.7866
8.41812 84.5152
8.59709 1128.45
8.77609 98.5921
8.9551 91.6436
9.13412 81.2838
9.31318 81.5688
9.49226 83.747
9.67134 99.3893
9.85047 99.0968
10.0296 312.127
10.2088 405.329
10.388 103.752
10.5672 513.146
10.7465 85.756
10.9257 78.0523
11.105 71.7318
11.2844 70.666
11.4637 64.4062
11.6431 63.4666
11.8225 61.7342
12.002 62.9116
12.1814 149.174
12.3609 71.1053
12.5405 64.1129
12.72 70.331
12.8996 70.3373
13.0792 77.7849
13.2589 229.697
13.4386 126.369
13.6183 241.052
13.7981 97.6975
13.9779 75.1539
14.1577 72.3107
14.3376 71.428
14.5175 68.2341
14.6974 69.9366
14.8774 106.616
15.0574 152.607
15.2374 70.9526
15.4175 65.9193
15.5976 65.1251
15.7778 91.3549
15.958 157.407
16.1382 62.6607
16.3185 58.6342
16.4988 55.0678
16.6792 54.2841
16.8596 54.9822
17.04 55.3817
17.2205 65.9807
17.401 70.6096
17.5815 58.677
17.7622 60.7916
17.9428 71.7264
18.1237 138.663
18.3044 89.0222
18.4852 77.633
18.666 59.9993
18.8469 57.6436
19.0278 56.5295
19.2088 58.8421
19.3898 76.4716
19.5709 53.9033
19.752 52.8934
19.9332 55.6008
20.1144 69.1874
20.2957 63.6885
20.477 53.5673
20.6586 49.2296
20.84 48.6009
21.0215 48.1813
21.203 50.7417
21.3846 48.6749
21.5662 48.3833
21.7479 51.9451
21.9297 64.1459
22.1115 55.72
22.2933 49.7156
22.4753 48.5785
22.6572 48.3192
22.8393 51.4293
23.0214 57.2639
23.2037 48.4961
23.3859 49.2015
23.5682 56.8623
23.7505 48.19
23.9329 45.0133
24.1154 43.7976
24.2979 43.2818
24.4805 42.7327
24.6631 42.399
24.8458 42.0006
25.0286 42.6076
25.2114 44.4753
25.3943 44.3213
25.5773 40.7231
25.7605 40.1126
25.9436 40.6151
26.1268 41.4147
26.31 39.8737
26.4933 40.4754
26.6767 41.8568
26.8601 40.2314
27.0437 38.7478
27.2272 38.354
27.4109 38.1283
27.5946 38.1969
27.7784 37.5394
27.9623 38.1805
28.1462 38.5551
28.3304 37.0531
28.5145 35.7623
28.6987 35.4988
28.8829 35.3023
29.0673 34.4205
29.2517 34.1852
29.4361 34.0923
29.6207 32.9685
29.8053 32.6762
29.99 32.4036
30.1748 32.2824
30.3597 32.0832
30.5447 31.9567
30.7297 32.1144
30.915 31.4061
31.1002 30.8455
31.2855 30.7251
31.4708 30.5607
31.6563 30.2176
31.8418 29.9233
32.0275 29.696
32.2132 29.1905
32.399 28.8451
32.5848 28.4229
32.7708 27.9492
32.9569 27.8538
33.143 27.615
33.3293 27.2871
33.5158 26.9204
33.7022 26.5284
33.8887 26.1846
34.0753 25.9061
34.262 25.5725
34.4488 25.1869
34.6357 24.7652
34.8227 24.6014
35.0098 24.3041
35.1969 24.0576
35.3842 23.8401
35.5716 23.667
35.759 23.3342
35.9468 22.9995
36.1345 22.7226
36.3222 22.5042
36.5101 22.2449
36.6981 22.0032
36.8861 21.727
37.0743 21.4181
37.2626 21.1236
37.451 20.8651
37.6395 20.792
37.8281 20.3802
38.0168 20.0945
38.2056 19.8766
38.3945 19.5232
38.5837 19.3724
38.7728 19.1263
38.9621 18.8497
39.1514 18.6509
39.3409 18.3854
39.5304 18.1134
39.7201 17.923
39.9099 17.7403
40.0999 17.4547
40.2899 17.2594
40.48 17.0703
40.6703 16.8597
40.8607 16.7003
41.0512 16.3964
41.242 16.1711
41.4327 15.9661
41.6236 15.7442
41.8146 15.6114
42.0057 15.4018
42.1969 15.157
42.3882 14.9802
42.5797 14.7495
42.7713 14.5281
42.963 14.4118
43.1549 14.233
43.3468 13.9259
43.5389 13.7563
43.7312 13.5751
43.9237 13.4007
44.1162 13.2158
44.3088 13.0402
44.5016 12.8105
44.6945 12.6701
44.8875 12.4682
45.0806 12.3171
45.2739 12.1811
45.4673 11.9818
45.6609 11.7619
45.8546 11.633
46.0484 11.5086
46.2424 11.2616
46.4365 11.1574
46.631 10.9706
46.8254 10.8372
47.0199 10.6609
47.2146 10.5263
47.4095 10.3456
47.6044 10.2072
47.7996 10.0311
47.9948 9.9218
48.1902 9.76441
48.3858 9.63983
48.5815 9.42181
48.7774 9.38684
48.9734 9.22515
49.1696 9.04425
49.3661 8.91914
49.5626 8.74355
49.7592 8.65785
49.956 8.52393
50.153 8.4007
50.3501 8.2702
50.5474 8.13397
50.7448 8.00486
50.9424 7.92013
51.1402 7.77084
51.3381 7.59832
51.5362 7.55044
51.7344 7.3876
51.9328 7.28386
52.1316 7.14965
52.3304 7.03623
52.5293 6.93409
52.7284 6.8254
52.9276 6.68924
53.1271 6.6306
53.3267 6.47126
53.5265 6.36985
53.7264 6.27749
53.9266 6.14614
54.1269 6.05381
54.3274 5.91053
54.528 5.76131
54.7289 5.63687
54.9301 5.4358
55.1314 5.35921
55.3328 5.12332
55.5344 4.94012
55.7361 4.81895

File: Ni3Fe_FD0753.xy
TT I
1.27165 7.21674
1.45013 6.65793
1.62863 5.33239
1.80712 4.58884
1.98562 4.88808
2.16411 4.95271
2.34263 5.59772
2.52115 7.06721
2.69965 8.29836
2.87818 8.64051
3.05672 10.7776
3.23527 15.5528
3.4138 19.0633
3.59237 24.3328
3.77094 26.3481
3.9495 29.706
4.12809 34.7499
4.30669 245.443
4.4853 67.9932
4.6639 55.2016
4.84253 66.6245
5.02118 85.3986
5.19981 309.264
5.37848 186.357
5.55716 101.345
5.73586 90.9103
5.91455 92.5287
6.09328 4274.23
6.27201 82.5942
6.45075 66.7914
6.62952 63.0494
6.8083 58.3198
6.98711 55.9074
7.16591 55.341
7.34475 97.0486
7.5236 54.6966
7.70247 56.1358
7.88135 57.4378
8.06026 62.1198
8.23919 68.8665
8.41812 84.436
8.59709 1127.27
8.77609 98.7523
8.9551 91.8949
9.13412 81.2653
9.31318 81.4501
9.49226 83.5718
9.67134 98.9491
9.85047 98.5458
10.0296 310.59
10.2088 403.648
10.388 103.596
10.5672 509.582
10.7465 85.8452
10.9257 77.9911
11.105 71.5371
11.2844 70.7289
11.4637 64.3311
11.6431 63.2841
11.8225 62.2495
12.002 62.9765
12.1814 148.266
12.3609 71.0141
12.5405 63.858
12.72 70.2926
12.8996 70.3118
13.0792 77.6078
13.2589 230.182
13.4386 125.909
13.6183 241.003
13.7981 97.4434
13.9779 75.3802
14.1577 72.0262
14.3376 71.3543
14.5175 68.292
14.6974 69.929
14.8774 106.376
15.0574 152.137
15.2374 71.1756
15.4175 65.8671
15.5976 65.223
15.7778 91.7763
15.958 156.658
16.1382 62.5155
16.3185 58.5422
16.4988 55.2067
16.6792 54.211
16.8596 54.9605
17.04 55.5218
17.2205 65.8546
17.401 71.0736
17.5815 58.7223
17.7622 60.8375
17.9428 72.0442
18.1237 138.39
18.3044 89.0631
18.4852 77.4686
18.666 60.16
18.8469 57.559
19.0278 56.467
19.2088 58.9196
19.3898 76.4336
19.5709 53.8944
19.752 53.0405
19.9332 55.4054
20.1144 69.3674
20.2957 63.1979
20.477 53.6923
20.6586 49.4249
20.84 48.5925
21.0215 48.2684
21.203 50.446
21.3846 48.7282
21.5662 48.2775
21.7479 51.997
21.9297 64.1586
22.1115 55.7658
22.2933 49.652
22.4753 48.5688
22.6572 48.4748
22.8393 51.1529
23.0214 57.0176
23.2037 48.5633
23.3859 49.2847
23.5682 56.7906
23.7505 48.2938
23.9329 44.9035
24.1154 43.8063
24.2979 43.1339
24.4805 42.6888
24.6631 42.483
24.8458 41.9583
25.0286 42.4547
25.2114 44.3456
25.3943 44.3541
25.5773 40.5436
25.7605 40.1533
25.9436 40.5468
26.1268 41.6111
26.31 39.8233
26.4933 40.4708
26.6767 41.841
26.8601 40.0959
27.0437 38.6144
27.2272 38.3518
27.4109 38.03
27.5946 38.1358
27.7784 37.5457
27.9623 38.2112
28.1462 38.583
28.3304 37.1014
28.5145 35.754
28.6987 35.3656
28.8829 35.2589
29.0673 34.4113
29.2517 34.1328
29.4361 33.9542
29.6207 32.9547
29.8053 32.6789
29.99 32.3992
30.1748 32.2063
30.3597 31.9455
30.5447 31.9619
30.7297 31.9724
30.915 31.4485
31.1002 30.9478
31.2855 30.6014
31.4708 30.5775
31.6563 30.2563
31.8418 29.8309
32.0275 29.6783
32.2132 29.13
32.399 28.7033
32.5848 28.1952
32.7708 27.9541
32.9569 27.8906
33.143 27.7212
33.3293 27.2784
33.5158 26.8904
33.7022 26.4595
33.8887 26.213
34.0753 25.8519
34.262 25.4026
34.4488 25.0794
34.6357 24.8362
34.8227 24.5328
35.0098 24.3104
35.1969 24.0578
35.3842 23.9013
35.5716 23.6301
35.759 23.3341
35.9468 22.8994
36.1345 22.8921
36.3222 22.516
36.5101 22.3278
36.6981 22.0059
36.8861 21.703
37.0743 21.4168
37.2626 21.1627
37.451 20.8538
37.6395 20.6877
37.8281 20.3588
38.0168 20.1455
38.2056 19.7992
38.3945 19.5771
38.5837 19.4232
38.7728 19.0651
38.9621 18.8486
39.1514 18.6391
39.3409 18.3584
39.5304 18.1842
39.7201 17.8966
39.9099 17.7343
40.0999 17.5043
40.2899 17.2768
40.48 17.0184
40.6703 16.8237
40.8607 16.6435
41.0512 16.4484
41.242 16.2182
41.4327 16.0196
41.6236 15.7524
41.8146 15.5451
42.0057 15.4389
42.1969 15.1395
42.3882 14.9932
42.5797 14.7444
42.7713 14.5721
42.963 14.3683
43.1549 14.1701
43.3468 13.9352
43.5389 13.7367
43.7312 13.544
43.9237 13.3838
44.1162 13.1701
44.3088 12.9824
44.5016 12.8308
44.6945 12.6984
44.8875 12.5241
45.0806 12.3291
45.2739 12.1728
45.4673 11.9766
45.6609 11.7685
45.8546 11.663
46.0484 11.4826
46.2424 11.3115
46.4365 11.1583
46.631 10.9558
46.8254 10.8003
47.0199 10.6582
47.2146 10.5465
47.4095 10.3424
47.6044 10.1778
47.7996 10.0599
47.9948 9.90927
48.1902 9.78854
48.3858 9.62594
48.5815 9.45807
48.7774 9.33546
48.9734 9.17223
49.1696 9.04545
49.3661 8.89271
49.5626 8.74908
49.7592 8.68023
49.956 8.52301
50.153 8.39493
50.3501 8.24227
50.5474 8.15634
50.7448 8.00994
50.9424 7.88022
51.1402 7.76993
51.3381 7.65069
51.5362 7.54164
51.7344 7.39963
51.9328 7.27795
52.1316 7.17115
52.3304 7.02115
52.5293 6.90735
52.7284 6.80417
52.9276 6.66526
53.1271 6.57786
53.3267 6.48552
53.5265 6.34302
53.7264 6.24892
53.9266 6.17071
54.1269 5.98931
54.3274 5.92398
54.528 5.78733
54.7289 5.58246
54.9301 5.51459
55.1314 5.41956
55.3328 5.1161
55.5344 4.97469
55.7361 4.83294

File: Ni3Fe_FD0755.xy
TT I
1.27165 7.01606
1.45013 5.88019
1.62863 5.27165
1.80712 5.26522
1.98562 4.75131
2.16411 5.32964
2.34263 5.7725
2.52115 6.93212
2.69965 8.4318
2.87818 8.91026
3.05672 11.396
3.23527 15.1137
3.4138 18.8157
3.59237 24.3242
3.77094 26.3821
3.9495 29.9813
4.12809 35.2314
4.30669 251.313
4.4853 68.6129
4.6639 54.8262
4.84253 66.4643
5.02118 85.513
5.19981 308.238
5.37848 187.944
5.55716 100.525
5.73586 91.4231
5.91455 92.1965
6.09328 4265.26
6.27201 82.7867
6.45075 66.9779
6.62952 62.8293
6.8083 58.7628
6.98711 55.2744
7.16591 55.2552
7.34475 98.974
7.5236 54.6595
7.70247 55.873
7.88135 57.3289
8.06026 61.994
8.23919 69.1017
8.41812 84.4128
8.59709 1110.83
8.77609 98.4581
8.9551 92.0228
9.13412 81.3446
9.31318 81.5699
9.49226 83.6186
9.67134 99.2498
9.85047 98.6068
10.0296 307.547
10.2088 410.302
10.388 103.926
10.5672 508.879
10.7465 85.888
10.9257 78.0024
11.105 71.3758
11.2844 70.5278
11.4637 64.5429
11.6431 63.0693
11.8225 62.2272
12.002 62.9004
12.1814 149.077
12.3609 71.5632
12.5405 64.4206
12.72 69.9885
12.8996 70.2699
13.0792 77.791
13.2589 228.111
13.4386 127.174
13.6183 239.456
13.7981 98.1762
13.9779 75.2939
14.1577 72.2339
14.3376 71.5429
14.5175 68.317
14.6974 69.5454
14.8774 106.276
15.0574 153.476
15.2374 71.2935
15.4175 65.972
15.5976 65.2655
15.7778 91.5102
15.958 157.859
16.1382 62.9668
16.3185 58.577
16.4988 55.1495
16.6792 54.2329
16.8596 54.9335
17.04 55.2915
17.2205 65.5811
17.401 70.908
17.5815 58.8001
17.7622 60.4622
17.9428 71.9879
18.1237 138.745
18.3044 88.9284
18.4852 77.9843
18.666 60.2243
18.8469 57.7458
19.0278 56.5996
19.2088 58.8965
19.3898 76.7362
19.5709 53.8977
19.752 52.9673
19.9332 55.5725
20.1144 69.4201
20.2957 63.2615
20.477 53.4572
20.6586 49.3513
20.84 48.4878
21.0215 48.1152
21.203 50.3606
21.3846 48.6094
21.5662 48.3255
21.7479 51.8584
21.9297 64.1642
22.1115 55.6636
22.2933 49.5342
22.4753 48.5563
22.6572 48.4494
22.8393 51.4126
23.0214 57.1922
23.2037 48.3116
23.3859 49.1756
23.5682 56.4445
23.7505 48.2689
23.9329 44.9841
24.1154 43.8278
24.2979 43.2747
24.4805 42.5567
24.6631 42.6535
24.8458 42.0424
25.0286 42.5077
25.2114 44.261
25.3943 44.6651
25.5773 40.7229
25.7605 40.1906
25.9436 40.6783
26.1268 41.4995
26.31 39.7857
26.4933 40.3537
26.6767 41.8764
26.8601 40.2872
27.0437 38.6734
27.2272 38.3423
27.4109 38.2305
27.5946 38.1358
27.7784 37.6592
27.9623 38.1808
28.1462 38.6104
28.3304 37.0499
28.5145 35.7495
28.6987 35.43
28.8829 35.1615
29.0673 34.4304
29.2517 34.1731
29.4361 33.9713
29.6207 33.0007
29.8053 32.7105
29.99 32.3977
30.1748 32.2269
30.3597 32.1122
30.5447 31.9693
30.7297 32.1194
30.915 31.4243
31.1002 30.9341
31.2855 30.6433
31.4708 30.6603
31.6563 30.2385
31.8418 30.0111
32.0275 29.7444
32.2132 29.3248
32.399 28.7725
32.5848 28.3653
32.7708 28.0037
32.9569 27.8974
33.143 27.5971
33.3293 27.2733
33.5158 26.8808
33.7022 26.4558
33.8887 26.1738
34.0753 25.8605
34.262 25.5002
34.4488 25.1734
34.6357 24.8854
34.8227 24.577
35.0098 24.3613
35.1969 24.1118
35.3842 23.8071
35.5716 23.6391
35.759 23.3046
35.9468 22.9933
36.1345 22.7057
36.3222 22.5292
36.5101 22.2865
36.6981 21.9801
36.8861 21.6728
37.0743 21.4526
37.2626 21.107
37.451 20.9083
37.6395 20.7222
37.8281 20.3103
38.0168 20.1366
38.2056 19.8799
38.3945 19.5644
38.5837 19.3903
38.7728 19.0592
38.9621 18.8393
39.1514 18.5668
39.3409 18.3976
39.5304 18.1955
39.7201 17.9763
39.9099 17.7342
40.0999 17.5507
40.2899 17.2591
40.48 17.0763
40.6703 16.8729
40.8607 16.7159
41.0512 16.4384
41.242 16.1601
41.4327 16.0002
41.6236 15.7483
41.8146 15.5324
42.0057 15.3546
42.1969 15.209
42.3882 14.9929
42.5797 14.7642
42.7713 14.5512
42.963 14.354
43.1549 14.1804
43.3468 13.9672
43.5389 13.7952
43.7312 13.5918
43.9237 13.4078
44.1162 13.1974
44.3088 13.029
44.5016 12.8303
44.6945 12.6806
44.8875 12.5139
45.0806 12.2836
45.2739 12.1663
45.4673 11.9833
45.6609 11.7768
45.8546 11.6495
46.0484 11.5254
46.2424 11.3055
46.4365 11.1729
46.631 10.9956
46.8254 10.7984
47.0199 10.674
47.2146 10.5371
47.4095 10.3318
47.6044 10.2271
47.7996 10.0206
47.9948 9.8833
48.1902 9.7647
48.3858 9.59797
48.5815 9.49148
48.7774 9.3493
48.9734 9.20783
49.1696 9.02014
49.3661 8.95406
49.5626 8.77201
49.7592 8.69489
49.956 8.528
50.153 8.37868
50.3501 8.25389
50.5474 8.11456
50.7448 8.00714
50.9424 7.88056
51.1402 7.78082
51.3381 7.64551
51.5362 7.53339
51.7344 7.40248
51.9328 7.30652
52.1316 7.14975
52.3304 7.00276
52.5293 6.91307
52.7284 6.83941
52.9276 6.67244
53.1271 6.61423
53.3267 6.48881
53.5265 6.37554
53.7264 6.25474
53.9266 6.1649
54.1269 6.04806
54.3274 5.94389
54.528 5.78348
54.7289 5.619
54.9301 5.47829
55.1314 5.30065
55.3328 5.12891
55.5344 4.89751
55.7361 4.84479

File: Ni3Fe_FD0756.xy
TT I
1.27165 6.89075
1.45013 5.72771
1.62863 5.26047
1.80712 5.13047
1.98562 4.90483
2.16411 5.1739
2.34263 5.64073
2.52115 6.82771
2.69965 8.1791
2.87818 8.83711
3.05672 11.317
3.23527 15.1696
3.4138 18.8294
3.59237 24.4155
3.77094 26.0408
3.9495 30.029
4.12809 34.934
4.30669 252.667
4.4853 69.1503
4.6639 55.4315
4.84253 66.5023
5.02118 85.4876
5.19981 306.781
5.37848 188.306
5.55716 101.051
5.73586 91.4209
5.91455 92.1325
6.09328 4268.13
6.27201 82.4714
6.45075 67.0649
6.62952 62.5979
6.8083 58.6515
6.98711 55.8081
7.16591 55.0507
7.34475 99.6016
7.5236 54.9884
7.70247 55.9098
7.88135 57.4887
8.06026 61.7997
8.23919 68.9362
8.41812 84.6319
8.59709 1104.32
8.77609 98.4958
8.9551 92.8045
9.13412 81.0937
9.31318 82.2392
9.49226 83.9364
9.67134 99.7243
9.85047 99.0569
10.0296 306.56
10.2088 408.351
10.388 103.969
10.5672 509.103
10.7465 85.9178
10.9257 78.5278
11.105 71.4912
11.2844 70.7483
11.4637 64.4706
11.6431 63.2554
11.8225 61.9364
12.002 63.017
12.1814 148.678
12.3609 71.528
12.5405 64.1763
12.72 70.3149
12.8996 70.304
13.0792 77.9402
13.2589 227.633
13.4386 127.02
13.6183 240.171
13.7981 98.1509
13.9779 75.457
14.1577 72.0206
14.3376 71.7863
14.5175 68.2574
14.6974 69.9326
14.8774 106.146
15.0574 153.091
15.2374 71.2191
15.4175 65.9071
15.5976 65.4952
15.7778 91.6218
15.958 158.016
16.1382 62.7729
16.3185 58.4946
16.4988 55.2552
16.6792 54.1996
16.8596 55.2137
17.04 55.2957
17.2205 65.6048
17.401 70.9237
17.5815 58.766
17.7622 60.9306
17.9428 72.0241
18.1237 138.441
18.3044 89.1313
18.4852 78.0736
18.666 60.0697
18.8469 57.7315
19.0278 56.4517
19.2088 58.9402
19.3898 76.7625
19.5709 53.9738
19.752 52.948
19.9332 55.5895
20.1144 69.4066
20.2957 63.3886
20.477 53.6694
20.6586 49.3147
20.84 48.5191
21.0215 48.0859
21.203 50.4446
21.3846 48.783
21.5662 48.3554
21.7479 51.9778
21.9297 64.2911
22.1115 55.7122
22.2933 49.5821
22.4753 48.5687
22.6572 48.3715
22.8393 51.4677
23.0214 57.388
23.2037 48.5296
23.3859 49.2868
23.5682 56.759
23.7505 48.2717
23.9329 45.124
24.1154 43.9305
24.2979 43.1766
24.4805 42.6805
24.6631 42.5789
24.8458 41.9931
25.0286 42.5175
25.2114 44.4693
25.3943 44.4178
25.5773 40.728
25.7605 40.1379
25.9436 40.59
26.1268 41.5565
26.31 39.834
26.4933 40.5433
26.6767 41.9447
26.8601 40.199
27.0437 38.7535
27.2272 38.239
27.4109 38.0806
27.5946 38.1758
27.7784 37.6497
27.9623 38.0966
28.1462 38.5613
28.3304 37.1491
28.5145 35.7949
28.6987 35.4053
28.8829 35.2841
29.0673 34.5512
29.2517 34.1549
29.4361 34.0436
29.6207 32.8645
29.8053 32.7936
29.99 32.3136
30.1748 32.2112
30.3597 32.0916
30.5447 31.9448
30.7297 32.1173
30.915 31.45
31.1002 30.9434
31.2855 30.6792
31.4708 30.6122
31.6563 30.1863
31.8418 30.0897
32.0275 29.842
32.2132 29.1952
32.399 28.7954
32.5848 28.3465
32.7708 28.0015
32.9569 27.8615
33.143 27.6911
33.3293 27.3249
33.5158 26.8625
33.7022 26.5183
33.8887 26.214
34.0753 25.9845
34.262 25.5235
34.4488 25.1764
34.6357 24.9017
34.8227 24.5829
35.0098 24.3426
35.1969 24.0541
35.3842 23.8871
35.5716 23.7009
35.759 23.3793
35.9468 23.0243
36.1345 22.8294
36.3222 22.5335
36.5101 22.3235
36.6981 22.0868
36.8861 21.6599
37.0743 21.3843
37.2626 21.1612
37.451 20.8474
37.6395 20.7917
37.8281 20.3849
38.0168 20.0686
38.2056 19.8831
38.3945 19.6469
38.5837 19.3286
38.7728 19.0701
38.9621 18.8913
39.1514 18.6367
39.3409 18.4117
39.5304 18.1382
39.7201 17.976
39.9099 17.7354
40.0999 17.5202
40.2899 17.3
40.48 17.0565
40.6703 16.8239
40.8607 16.7157
41.0512 16.4378
41.242 16.1113
41.4327 16.016
41.6236 15.764
41.8146 15.5526
42.0057 15.3558
42.1969 15.15
42.3882 14.9801
42.5797 14.7311
42.7713 14.5731
42.963 14.3399
43.1549 14.1399
43.3468 13.9659
43.5389 13.7915
43.7312 13.5311
43.9237 13.4132
44.1162 13.205
44.3088 13.0055
44.5016 12.8278
44.6945 12.7112
44.8875 12.5912
45.0806 12.3123
45.2739 12.165
45.4673 11.9958
45.6609 11.8054
45.8546 11.6621
46.0484 11.4948
46.2424 11.331
46.4365 11.2155
46.631 10.9844
46.8254 10.8282
47.0199 10.6634
47.2146 10.5111
47.4095 10.3679
47.6044 10.196
47.7996 10.0569
47.9948 9.92125
48.1902 9.7611
48.3858 9.62174
48.5815 9.4771
48.7774 9.4059
48.9734 9.21381
49.1696 9.11708
49.3661 8.94688
49.5626 8.75375
49.7592 8.68231
49.956 8.57828
50.153 8.42597
50.3501 8.28349
50.5474 8.17373
50.7448 8.04501
50.9424 7.90851
51.1402 7.79748
51.3381 7.67427
51.5362 7.51888
51.7344 7.3951
51.9328 7.28959
52.1316 7.13717
52.3304 7.04203
52.5293 6.95977
52.7284 6.79385
52.9276 6.6751
53.1271 6.60985
53.3267 6.52193
53.5265 6.31634
53.7264 6.23019
53.9266 6.15035
54.1269 6.00057
54.3274 5.90125
54.528 5.79104
54.7289 5.60494
54.9301 5.41647
55.1314 5.34658
55.3328 5.14825
55.5344 4.94939
55.7361 4.77709

File: Ni3Fe_FD0757.xy
TT I
1.27165 7.45503
1.45013 5.74852
1.62863 5.47084
1.80712 5.14193
1.98562 5.18179
2.16411 5.06419
2.34263 4.83162
2.52115 7.19388
2.69965 8.48843
2.87818 8.47456
3.05672 11.0941
3.23527 14.642
3.4138 18.9941
3.59237 24.6394
3.77094 26.2429
3.9495 29.7536
4.12809 34.7276
4.30669 256.53
4.4853 69.3716
4.6639 54.7956
4.84253 66.6612
5.02118 84.8755
5.19981 303.565
5.37848 189.006
5.55716 100.442
5.73586 91.0169
5.91455 91.6051
6.09328 4304.92
6.27201 82.4329
6.45075 67.004
6.62952 62.5717
6.8083 58.0288
6.98711 55.3868
7.16591 55.3992
7.34475 100.301
7.5236 54.6557
7.70247 55.7437
7.88135 57.4617
8.06026 61.7781
8.23919 69.1013
8.41812 84.1967
8.59709 1097.67
8.77609 98.8616
8.9551 92.205
9.13412 80.8327
9.31318 81.6155
9.49226 83.7546
9.67134 99.3346
9.85047 98.7112
10.0296 304.169
10.2088 411.329
10.388 103.654
10.5672 513.382
10.7465 85.9969
10.9257 78.0323
11.105 71.2639
11.2844 70.7734
11.4637 64.7874
11.6431 63.1951
11.8225 62.1196
12.002 62.6893
12.1814 147.437
12.3609 71.5028
12.5405 64.0192
12.72 70.4307
12.8996 70.3767
13.0792 77.4457
13.2589 226.045
13.4386 127.667
13.6183 238.094
13.7981 98.5461
13.9779 75.1968
14.1577 72.1084
14.3376 71.3404
14.5175 68.1658
14.6974 69.7366
14.8774 105.583
15.0574 153.123
15.2374 70.758
15.4175 65.8328
15.5976 65.0782
15.7778 91.264
15.958 158.79
16.1382 62.8557
16.3185 58.4019
16.4988 55.05
16.6792 54.2799
16.8596 55.1331
17.04 55.1836
17.2205 65.6769
17.401 71.3194
17.5815 58.6233
17.7622 60.7199
17.9428 71.7183
18.1237 138.487
18.3044 89.1017
18.4852 78.2273
18.666 60.0751
18.8469 57.6597
19.0278 56.6321
19.2088 58.8477
19.3898 76.5441
19.5709 53.9343
19.752 52.7616
19.9332 55.6475
20.1144 69.2884
20.2957 63.2881
20.477 53.6987
20.6586 49.4089
20.84 48.4054
21.0215 48.0459
21.203 50.482
21.3846 48.5924
21.5662 48.3034
21.7479 51.981
21.9297 64.2639
22.1115 55.7466
22.2933 49.7284
22.4753 48.5755
22.6572 48.4365
22.8393 51.1712
23.0214 57.3015
23.2037 48.43
23.3859 49.0392
23.5682 56.5715
23.7505 48.2104
23.9329 44.9459
24.1154 43.9063
24.2979 43.2424
24.4805 42.7391
24.6631 42.4629
24.8458 42.0095
25.0286 42.3877
25.2114 44.2585
25.3943 44.421
25.5773 40.6277
25.7605 40.256
25.9436 40.5829
26.1268 41.4866
26.31 39.7269
26.4933 40.4053
26.6767 41.9065
26.8601 40.1803
27.0437 38.5308
27.2272 38.2178
27.4109 38.1527
27.5946 38.1537
27.7784 37.629
27.9623 38.1208
28.1462 38.6661
28.3304 37.02
28.5145 35.702
28.6987 35.389
28.8829 35.3255
29.0673 34.4943
29.2517 34.142
29.4361 33.9735
29.6207 32.9875
29.8053 32.5975
29.99 32.4681
30.1748 32.1792
30.3597 32.0235
30.5447 31.9767
30.7297 32.0595
30.915 31.4445
31.1002 31.0308
31.2855 30.6034
31.4708 30.6535
31.6563 30.1527
31.8418 29.8656
32.0275 29.8439
32.2132 29.2682
32.399 28.8061
32.5848 28.2681
32.7708 28.0275
32.9569 27.9795
33.143 27.6186
33.3293 27.2666
33.5158 26.8154
33.7022 26.4474
33.8887 26.2194
34.0753 25.8455
34.262 25.517
34.4488 25.1591
34.6357 24.9148
34.8227 24.5586
35.0098 24.3649
35.1969 24.0857
35.3842 23.86
35.5716 23.634
35.759 23.3235
35.9468 23.0424
36.1345 22.8087
36.3222 22.5513
36.5101 22.2355
36.6981 21.9238
36.8861 21.6759
37.0743 21.4083
37.2626 21.1049
37.451 20.9404
37.6395 20.6944
37.8281 20.4192
38.0168 20.1195
38.2056 19.8173
38.3945 19.5278
38.5837 19.3993
38.7728 19.2042
38.9621 18.8548
39.1514 18.5888
39.3409 18.3451
39.5304 18.1738
39.7201 17.9676
39.9099 17.7368
40.0999 17.535
40.2899 17.2624
40.48 17.0096
40.6703 16.8192
40.8607 16.639
41.0512 16.4521
41.242 16.1325
41.4327 15.9198
41.6236 15.7608
41.8146 15.5693
42.0057 15.3904
42.1969 15.1489
42.3882 14.9758
42.5797 14.7745
42.7713 14.5584
42.963 14.3538
43.1549 14.1737
43.3468 13.9753
43.5389 13.7885
43.7312 13.5677
43.9237 13.3688
44.1162 13.176
44.3088 12.9939
44.5016 12.8009
44.6945 12.6391
44.8875 12.4792
45.0806 12.3241
45.2739 12.0981
45.4673 12.0015
45.6609 11.7779
45.8546 11.6238
46.0484 11.4641
46.2424 11.3088
46.4365 11.1588
46.631 10.9817
46.8254 10.8107
47.0199 10.6948
47.2146 10.5294
47.4095 10.3667
47.6044 10.2059
47.7996 10.0497
47.9948 9.87675
48.1902 9.75993
48.3858 9.62872
48.5815 9.48406
48.7774 9.35707
48.9734 9.21379
49.1696 9.08042
49.3661 8.94634
49.5626 8.79336
49.7592 8.68931
49.956 8.53533
50.153 8.42296
50.3501 8.22362
50.5474 8.13342
50.7448 7.99761
50.9424 7.87638
51.1402 7.77042
51.3381 7.62075
51.5362 7.55075
51.7344 7.41096
51.9328 7.25274
52.1316 7.09176
52.3304 7.03905
52.5293 6.90584
52.7284 6.8246
52.9276 6.69723
53.1271 6.60514
53.3267 6.42277
53.5265 6.3997
53.7264 6.29041
53.9266 6.15656
54.1269 6.03295
54.3274 5.87415
54.528 5.75571
54.7289 5.62238
54.9301 5.45878
55.1314 5.32243
55.3328 5.1685
55.5344 4.9757
55.7361 4.78566