Folder: NiFe_MOF_catalyst_paper/XRD (part 158)

File: Ni3Fe_FD0858.xy
TT I
1.27165 7.46462
1.45013 5.79683
1.62863 5.03698
1.80712 4.81461
1.98562 4.46343
2.16411 4.75865
2.34263 5.89661
2.52115 7.03079
2.69965 8.13764
2.87818 9.13307
3.05672 10.8854
3.23527 15.0536
3.4138 18.7319
3.59237 23.4891
3.77094 25.665
3.9495 29.512
4.12809 35.0768
4.30669 219.069
4.4853 65.3239
4.6639 54.6871
4.84253 66.2402
5.02118 84.8595
5.19981 295.429
5.37848 177.065
5.55716 100.056
5.73586 90.4476
5.91455 91.9462
6.09328 4394.53
6.27201 80.9639
6.45075 66.5062
6.62952 62.3142
6.8083 57.892
6.98711 55.3276
7.16591 54.4275
7.34475 91.0161
7.5236 54.0027
7.70247 55.5073
7.88135 57.3033
8.06026 61.3902
8.23919 68.7305
8.41812 83.2073
8.59709 1132.14
8.77609 97.4723
8.9551 90.7969
9.13412 80.9316
9.31318 81.3065
9.49226 83.2526
9.67134 97.0556
9.85047 97.9907
10.0296 305.804
10.2088 397.071
10.388 102.86
10.5672 527.202
10.7465 85.1572
10.9257 77.4078
11.105 70.7106
11.2844 69.5677
11.4637 64.2257
11.6431 63.0849
11.8225 61.5231
12.002 62.552
12.1814 153.071
12.3609 69.7593
12.5405 63.6161
12.72 69.2
12.8996 70.1865
13.0792 77.2506
13.2589 232.436
13.4386 121.279
13.6183 247.093
13.7981 95.8296
13.9779 74.7887
14.1577 71.5414
14.3376 70.6393
14.5175 67.8538
14.6974 69.564
14.8774 106.481
15.0574 147.486
15.2374 70.0915
15.4175 65.1837
15.5976 64.6708
15.7778 91.2498
15.958 153.683
16.1382 61.8793
16.3185 57.8275
16.4988 54.7377
16.6792 53.839
16.8596 54.4057
17.04 54.9699
17.2205 65.6379
17.401 70.0744
17.5815 58.1567
17.7622 60.2929
17.9428 71.5862
18.1237 137.598
18.3044 89.7729
18.4852 76.1159
18.666 59.5315
18.8469 57.3189
19.0278 56.014
19.2088 58.5165
19.3898 75.928
19.5709 53.6135
19.752 52.5136
19.9332 55.0
20.1144 68.9025
20.2957 63.6429
20.477 52.8294
20.6586 49.0047
20.84 48.1932
21.0215 47.9456
21.203 50.4097
21.3846 48.2603
21.5662 48.0541
21.7479 51.4806
21.9297 63.5849
22.1115 55.3792
22.2933 49.0844
22.4753 48.413
22.6572 47.9822
22.8393 51.0437
23.0214 56.5308
23.2037 48.1626
23.3859 48.7961
23.5682 56.5008
23.7505 47.7253
23.9329 44.7187
24.1154 43.5478
24.2979 42.9271
24.4805 42.3306
24.6631 42.2859
24.8458 41.7147
25.0286 42.3097
25.2114 44.1713
25.3943 44.0884
25.5773 40.3212
25.7605 39.9662
25.9436 40.3768
26.1268 41.1192
26.31 39.6178
26.4933 40.2202
26.6767 41.547
26.8601 39.9905
27.0437 38.3657
27.2272 38.1535
27.4109 37.9499
27.5946 37.9551
27.7784 37.3245
27.9623 37.9446
28.1462 38.2104
28.3304 36.748
28.5145 35.4845
28.6987 35.033
28.8829 35.0049
29.0673 34.1988
29.2517 34.0203
29.4361 33.6889
29.6207 32.7339
29.8053 32.5094
29.99 32.1516
30.1748 32.0015
30.3597 31.8126
30.5447 31.6926
30.7297 31.8082
30.915 31.201
31.1002 30.6388
31.2855 30.3952
31.4708 30.466
31.6563 29.9744
31.8418 29.7765
32.0275 29.5314
32.2132 28.971
32.399 28.5546
32.5848 28.1499
32.7708 27.7625
32.9569 27.6696
33.143 27.4174
33.3293 27.079
33.5158 26.6429
33.7022 26.239
33.8887 26.0521
34.0753 25.6775
34.262 25.296
34.4488 24.9691
34.6357 24.5549
34.8227 24.3771
35.0098 24.1632
35.1969 23.9054
35.3842 23.7225
35.5716 23.4264
35.759 23.1979
35.9468 22.8495
36.1345 22.543
36.3222 22.3536
36.5101 22.1666
36.6981 21.8814
36.8861 21.5368
37.0743 21.3133
37.2626 20.985
37.451 20.75
37.6395 20.5231
37.8281 20.1976
38.0168 19.9482
38.2056 19.6943
38.3945 19.4371
38.5837 19.2181
38.7728 18.9687
38.9621 18.7622
39.1514 18.4763
39.3409 18.2275
39.5304 18.0673
39.7201 17.7824
39.9099 17.6417
40.0999 17.3776
40.2899 17.2002
40.48 16.8463
40.6703 16.6935
40.8607 16.5347
41.0512 16.2861
41.242 16.0448
41.4327 15.9147
41.6236 15.5702
41.8146 15.4622
42.0057 15.2596
42.1969 15.0066
42.3882 14.8798
42.5797 14.6229
42.7713 14.4721
42.963 14.2504
43.1549 14.0902
43.3468 13.8434
43.5389 13.677
43.7312 13.4707
43.9237 13.3086
44.1162 13.162
44.3088 12.9456
44.5016 12.7426
44.6945 12.5796
44.8875 12.4056
45.0806 12.1941
45.2739 12.0726
45.4673 11.8862
45.6609 11.7534
45.8546 11.5984
46.0484 11.3913
46.2424 11.2696
46.4365 11.1035
46.631 10.8511
46.8254 10.6892
47.0199 10.5909
47.2146 10.408
47.4095 10.2914
47.6044 10.1649
47.7996 9.98039
47.9948 9.80418
48.1902 9.71885
48.3858 9.54393
48.5815 9.39019
48.7774 9.28184
48.9734 9.16261
49.1696 9.00575
49.3661 8.83564
49.5626 8.69384
49.7592 8.57618
49.956 8.46974
50.153 8.2912
50.3501 8.20703
50.5474 8.08731
50.7448 7.93852
50.9424 7.81577
51.1402 7.70808
51.3381 7.57445
51.5362 7.46262
51.7344 7.32977
51.9328 7.22633
52.1316 7.12689
52.3304 6.96146
52.5293 6.8858
52.7284 6.7579
52.9276 6.64507
53.1271 6.54545
53.3267 6.43057
53.5265 6.30206
53.7264 6.23182
53.9266 6.10026
54.1269 5.99574
54.3274 5.90483
54.528 5.79238
54.7289 5.56738
54.9301 5.4121
55.1314 5.30646
55.3328 5.10062
55.5344 4.90061
55.7361 4.77545

File: Ni3Fe_FD0859.xy
TT I
1.27165 7.17099
1.45013 6.2451
1.62863 4.56698
1.80712 4.68935
1.98562 4.79455
2.16411 5.11445
2.34263 5.6862
2.52115 7.14886
2.69965 8.73364
2.87818 9.52725
3.05672 11.207
3.23527 14.8807
3.4138 18.927
3.59237 23.9742
3.77094 26.1206
3.9495 29.5512
4.12809 35.2143
4.30669 219.949
4.4853 65.9595
4.6639 54.3323
4.84253 66.0453
5.02118 85.1138
5.19981 296.008
5.37848 177.515
5.55716 100.43
5.73586 90.361
5.91455 91.1569
6.09328 4405.99
6.27201 81.4402
6.45075 66.4089
6.62952 62.4806
6.8083 58.2805
6.98711 55.2712
7.16591 54.3899
7.34475 91.4927
7.5236 54.1249
7.70247 55.5833
7.88135 56.8333
8.06026 61.479
8.23919 68.3546
8.41812 83.9711
8.59709 1137.37
8.77609 97.2283
8.9551 90.6472
9.13412 80.9605
9.31318 81.4675
9.49226 83.6571
9.67134 97.0423
9.85047 98.0938
10.0296 305.276
10.2088 397.054
10.388 102.662
10.5672 525.128
10.7465 85.3239
10.9257 77.3072
11.105 71.0374
11.2844 69.5133
11.4637 64.0053
11.6431 62.7608
11.8225 61.7177
12.002 62.3904
12.1814 153.622
12.3609 69.7107
12.5405 63.5533
12.72 69.1055
12.8996 69.7702
13.0792 77.3712
13.2589 232.572
13.4386 121.106
13.6183 247.798
13.7981 95.5684
13.9779 74.5972
14.1577 71.4217
14.3376 70.788
14.5175 67.827
14.6974 69.1538
14.8774 106.169
15.0574 147.703
15.2374 70.1351
15.4175 65.6891
15.5976 64.7047
15.7778 91.0568
15.958 153.355
16.1382 61.8332
16.3185 58.005
16.4988 54.8447
16.6792 53.6811
16.8596 54.315
17.04 54.8757
17.2205 65.4633
17.401 70.708
17.5815 58.1645
17.7622 60.2256
17.9428 71.2206
18.1237 137.964
18.3044 89.4429
18.4852 76.0902
18.666 59.5735
18.8469 57.1451
19.0278 56.2522
19.2088 58.4725
19.3898 76.0435
19.5709 53.5407
19.752 52.6772
19.9332 55.1205
20.1144 68.953
20.2957 63.6042
20.477 53.0648
20.6586 49.0742
20.84 48.1641
21.0215 47.8934
21.203 50.1329
21.3846 48.3428
21.5662 48.0634
21.7479 51.5465
21.9297 63.7359
22.1115 55.5511
22.2933 49.4435
22.4753 48.589
22.6572 48.0026
22.8393 51.1791
23.0214 56.6418
23.2037 48.1705
23.3859 48.9866
23.5682 56.541
23.7505 47.7003
23.9329 44.7499
24.1154 43.6194
24.2979 42.8218
24.4805 42.3869
24.6631 42.3018
24.8458 41.6918
25.0286 42.2248
25.2114 44.0456
25.3943 44.1604
25.5773 40.3638
25.7605 39.9175
25.9436 40.2744
26.1268 41.1136
26.31 39.5738
26.4933 40.2678
26.6767 41.5691
26.8601 39.843
27.0437 38.294
27.2272 37.9734
27.4109 37.8728
27.5946 37.8895
27.7784 37.2418
27.9623 37.9595
28.1462 38.3622
28.3304 36.7715
28.5145 35.5072
28.6987 35.2612
28.8829 34.8949
29.0673 34.3162
29.2517 33.92
29.4361 33.769
29.6207 32.7058
29.8053 32.4133
29.99 32.1787
30.1748 31.9313
30.3597 31.7784
30.5447 31.754
30.7297 31.8724
30.915 31.1906
31.1002 30.7294
31.2855 30.5112
31.4708 30.4679
31.6563 29.9202
31.8418 29.764
32.0275 29.4408
32.2132 29.0555
32.399 28.5561
32.5848 28.1813
32.7708 27.812
32.9569 27.7045
33.143 27.5167
33.3293 27.0485
33.5158 26.727
33.7022 26.2593
33.8887 25.9941
34.0753 25.5967
34.262 25.3718
34.4488 25.0433
34.6357 24.6555
34.8227 24.3742
35.0098 24.1948
35.1969 23.8888
35.3842 23.6502
35.5716 23.3891
35.759 23.2865
35.9468 22.8559
36.1345 22.6823
36.3222 22.3994
36.5101 22.1591
36.6981 21.7676
36.8861 21.5785
37.0743 21.1618
37.2626 20.9883
37.451 20.728
37.6395 20.5857
37.8281 20.269
38.0168 19.9306
38.2056 19.6628
38.3945 19.4002
38.5837 19.2401
38.7728 18.9555
38.9621 18.6922
39.1514 18.4867
39.3409 18.2261
39.5304 18.0523
39.7201 17.8102
39.9099 17.6503
40.0999 17.3869
40.2899 17.136
40.48 16.8839
40.6703 16.7053
40.8607 16.5485
41.0512 16.334
41.242 16.0743
41.4327 15.9404
41.6236 15.6806
41.8146 15.4563
42.0057 15.232
42.1969 14.9977
42.3882 14.8403
42.5797 14.6786
42.7713 14.4415
42.963 14.2614
43.1549 14.0581
43.3468 13.8704
43.5389 13.6577
43.7312 13.4614
43.9237 13.2848
44.1162 13.0953
44.3088 12.9255
44.5016 12.7335
44.6945 12.5992
44.8875 12.3863
45.0806 12.2559
45.2739 12.0942
45.4673 11.9177
45.6609 11.7469
45.8546 11.5774
46.0484 11.4164
46.2424 11.2396
46.4365 11.1008
46.631 10.9139
46.8254 10.7316
47.0199 10.6134
47.2146 10.4577
47.4095 10.2945
47.6044 10.1127
47.7996 9.96355
47.9948 9.82319
48.1902 9.68391
48.3858 9.52129
48.5815 9.43516
48.7774 9.27009
48.9734 9.15374
49.1696 9.02628
49.3661 8.82492
49.5626 8.69882
49.7592 8.62562
49.956 8.48925
50.153 8.34849
50.3501 8.2321
50.5474 8.05228
50.7448 7.97359
50.9424 7.8411
51.1402 7.67764
51.3381 7.60686
51.5362 7.47697
51.7344 7.3389
51.9328 7.23066
52.1316 7.09145
52.3304 7.03065
52.5293 6.87115
52.7284 6.76122
52.9276 6.62227
53.1271 6.57588
53.3267 6.41196
53.5265 6.27128
53.7264 6.20297
53.9266 6.11109
54.1269 5.98753
54.3274 5.84983
54.528 5.71773
54.7289 5.58496
54.9301 5.40303
55.1314 5.2555
55.3328 5.08847
55.5344 4.88163
55.7361 4.77915

File: Ni3Fe_FD0860.xy
TT I
1.27165 7.13219
1.45013 5.68531
1.62863 5.00198
1.80712 5.10069
1.98562 4.95651
2.16411 4.60919
2.34263 5.12365
2.52115 7.5234
2.69965 8.6604
2.87818 8.7984
3.05672 11.1964
3.23527 14.9045
3.4138 19.0599
3.59237 23.9911
3.77094 25.6758
3.9495 29.6158
4.12809 34.6037
4.30669 223.264
4.4853 65.6591
4.6639 54.7301
4.84253 66.6784
5.02118 85.1377
5.19981 294.196
5.37848 177.231
5.55716 100.063
5.73586 90.7129
5.91455 91.182
6.09328 4447.73
6.27201 81.4369
6.45075 66.769
6.62952 61.9852
6.8083 57.8744
6.98711 55.1079
7.16591 54.4898
7.34475 92.0318
7.5236 53.9201
7.70247 55.6061
7.88135 57.1034
8.06026 61.0365
8.23919 68.4631
8.41812 83.511
8.59709 1136.01
8.77609 97.2321
8.9551 91.018
9.13412 81.0815
9.31318 81.2179
9.49226 82.9683
9.67134 97.4485
9.85047 98.1203
10.0296 302.974
10.2088 398.458
10.388 102.446
10.5672 520.756
10.7465 85.2742
10.9257 77.4225
11.105 71.0328
11.2844 69.6026
11.4637 64.0253
11.6431 62.8118
11.8225 61.58
12.002 62.4499
12.1814 152.931
12.3609 69.7241
12.5405 64.0308
12.72 69.0448
12.8996 69.7594
13.0792 77.1528
13.2589 231.693
13.4386 122.048
13.6183 246.292
13.7981 95.7299
13.9779 74.8662
14.1577 71.526
14.3376 70.8604
14.5175 67.7724
14.6974 69.2189
14.8774 105.991
15.0574 147.052
15.2374 70.1002
15.4175 65.414
15.5976 64.8242
15.7778 90.9658
15.958 154.375
16.1382 61.9093
16.3185 58.0361
16.4988 54.8454
16.6792 53.7344
16.8596 54.3785
17.04 54.7936
17.2205 65.4691
17.401 70.4752
17.5815 58.3165
17.7622 60.2895
17.9428 71.4283
18.1237 138.068
18.3044 89.6751
18.4852 76.2491
18.666 59.6296
18.8469 57.3514
19.0278 56.1892
19.2088 58.4594
19.3898 76.0677
19.5709 53.4489
19.752 52.4596
19.9332 55.2006
20.1144 68.9674
20.2957 63.5668
20.477 52.9806
20.6586 48.9686
20.84 48.0547
21.0215 47.9959
21.203 50.3985
21.3846 48.2772
21.5662 47.9859
21.7479 51.6317
21.9297 63.6815
22.1115 55.4461
22.2933 49.2596
22.4753 48.2616
22.6572 48.1436
22.8393 51.1108
23.0214 56.5977
23.2037 48.0675
23.3859 49.034
23.5682 56.516
23.7505 47.7877
23.9329 44.5696
24.1154 43.4875
24.2979 42.9591
24.4805 42.4686
24.6631 42.104
24.8458 41.7709
25.0286 42.1459
25.2114 44.0935
25.3943 44.0484
25.5773 40.3667
25.7605 39.7978
25.9436 40.1934
26.1268 41.2149
26.31 39.5637
26.4933 40.1714
26.6767 41.4709
26.8601 39.9348
27.0437 38.4579
27.2272 37.8801
27.4109 37.9042
27.5946 37.8702
27.7784 37.3439
27.9623 37.826
28.1462 38.3062
28.3304 36.6548
28.5145 35.481
28.6987 35.2083
28.8829 35.1107
29.0673 34.1825
29.2517 33.8659
29.4361 33.8497
29.6207 32.5977
29.8053 32.5249
29.99 32.2325
30.1748 32.0895
30.3597 31.8139
30.5447 31.6844
30.7297 31.7247
30.915 31.1371
31.1002 30.7374
31.2855 30.5212
31.4708 30.4175
31.6563 29.9721
31.8418 29.753
32.0275 29.6066
32.2132 28.9809
32.399 28.511
32.5848 28.1124
32.7708 27.8383
32.9569 27.7066
33.143 27.4727
33.3293 27.023
33.5158 26.7048
33.7022 26.2511
33.8887 26.002
34.0753 25.6343
34.262 25.3257
34.4488 25.0111
34.6357 24.6651
34.8227 24.3722
35.0098 24.175
35.1969 23.8716
35.3842 23.7003
35.5716 23.5457
35.759 23.2126
35.9468 22.8541
36.1345 22.6624
36.3222 22.3426
36.5101 22.1311
36.6981 21.8932
36.8861 21.4998
37.0743 21.2552
37.2626 21.0039
37.451 20.6491
37.6395 20.6046
37.8281 20.225
38.0168 19.9951
38.2056 19.7587
38.3945 19.4324
38.5837 19.2229
38.7728 19.0215
38.9621 18.712
39.1514 18.393
39.3409 18.2721
39.5304 18.0796
39.7201 17.8165
39.9099 17.601
40.0999 17.3914
40.2899 17.1081
40.48 16.8979
40.6703 16.7264
40.8607 16.5537
41.0512 16.3236
41.242 16.0243
41.4327 15.8613
41.6236 15.6924
41.8146 15.457
42.0057 15.2751
42.1969 15.0507
42.3882 14.9393
42.5797 14.6289
42.7713 14.4527
42.963 14.2034
43.1549 14.0937
43.3468 13.8691
43.5389 13.6913
43.7312 13.478
43.9237 13.2931
44.1162 13.143
44.3088 12.9665
44.5016 12.7137
44.6945 12.5765
44.8875 12.3817
45.0806 12.1855
45.2739 12.086
45.4673 11.9074
45.6609 11.7074
45.8546 11.559
46.0484 11.4176
46.2424 11.2137
46.4365 11.0559
46.631 10.8575
46.8254 10.7575
47.0199 10.5666
47.2146 10.4764
47.4095 10.2039
47.6044 10.1238
47.7996 9.97728
47.9948 9.84359
48.1902 9.66336
48.3858 9.57104
48.5815 9.41329
48.7774 9.29573
48.9734 9.16099
49.1696 8.97841
49.3661 8.86215
49.5626 8.72847
49.7592 8.59152
49.956 8.46209
50.153 8.32849
50.3501 8.14779
50.5474 8.04909
50.7448 7.95411
50.9424 7.84698
51.1402 7.71551
51.3381 7.60314
51.5362 7.47345
51.7344 7.33629
51.9328 7.22194
52.1316 7.07424
52.3304 6.9729
52.5293 6.84984
52.7284 6.74973
52.9276 6.66777
53.1271 6.56882
53.3267 6.42342
53.5265 6.27533
53.7264 6.17548
53.9266 6.08355
54.1269 6.00992
54.3274 5.8724
54.528 5.75062
54.7289 5.5841
54.9301 5.43055
55.1314 5.299
55.3328 5.06727
55.5344 4.92083
55.7361 4.79472

File: Ni3Fe_FD0861.xy
TT I
1.27165 7.00287
1.45013 5.52765
1.62863 5.39297
1.80712 5.05677
1.98562 4.67624
2.16411 4.99334
2.34263 5.98797
2.52115 7.75044
2.69965 8.4048
2.87818 8.51804
3.05672 11.4274
3.23527 15.0961
3.4138 19.2189
3.59237 24.2364
3.77094 26.1314
3.9495 29.647
4.12809 34.677
4.30669 225.515
4.4853 66.0005
4.6639 54.7994
4.84253 66.5396
5.02118 85.0291
5.19981 294.868
5.37848 177.189
5.55716 100.268
5.73586 90.476
5.91455 91.1223
6.09328 4432.82
6.27201 81.4082
6.45075 66.6613
6.62952 61.9548
6.8083 58.0908
6.98711 55.2726
7.16591 54.8455
7.34475 92.5186
7.5236 53.9153
7.70247 55.3435
7.88135 57.504
8.06026 61.6959
8.23919 68.4275
8.41812 83.8226
8.59709 1131.53
8.77609 97.2021
8.9551 90.724
9.13412 80.7966
9.31318 81.1693
9.49226 83.1137
9.67134 97.4514
9.85047 98.2199
10.0296 302.332
10.2088 398.052
10.388 102.722
10.5672 520.171
10.7465 85.3
10.9257 77.4685
11.105 71.0188
11.2844 69.6372
11.4637 64.0801
11.6431 62.8345
11.8225 61.8684
12.002 62.406
12.1814 152.701
12.3609 69.9474
12.5405 63.8282
12.72 69.2556
12.8996 69.9832
13.0792 77.3538
13.2589 231.563
13.4386 121.791
13.6183 245.185
13.7981 96.1765
13.9779 74.8057
14.1577 71.4199
14.3376 70.8792
14.5175 67.6276
14.6974 69.3078
14.8774 106.041
15.0574 147.226
15.2374 70.1472
15.4175 65.3805
15.5976 64.6549
15.7778 90.7327
15.958 154.35
16.1382 61.7122
16.3185 57.7478
16.4988 54.6985
16.6792 53.6589
16.8596 54.5584
17.04 54.8949
17.2205 65.3748
17.401 70.6986
17.5815 58.3535
17.7622 60.3075
17.9428 71.5265
18.1237 138.129
18.3044 89.4111
18.4852 76.3842
18.666 59.6481
18.8469 57.1425
19.0278 56.1002
19.2088 58.3904
19.3898 76.2322
19.5709 53.4098
19.752 52.4912
19.9332 54.9275
20.1144 69.1235
20.2957 63.6045
20.477 53.076
20.6586 49.0977
20.84 48.1909
21.0215 47.929
21.203 50.1992
21.3846 48.4322
21.5662 47.9782
21.7479 51.6778
21.9297 63.8807
22.1115 55.3523
22.2933 49.2961
22.4753 48.2127
22.6572 48.0854
22.8393 50.9627
23.0214 56.6766
23.2037 48.0883
23.3859 48.8833
23.5682 56.4281
23.7505 47.6902
23.9329 44.5884
24.1154 43.6249
24.2979 42.8706
24.4805 42.4289
24.6631 42.3524
24.8458 41.6838
25.0286 42.0429
25.2114 44.031
25.3943 44.0365
25.5773 40.4291
25.7605 39.8619
25.9436 40.2713
26.1268 41.229
26.31 39.6716
26.4933 40.1555
26.6767 41.5106
26.8601 39.9577
27.0437 38.4565
27.2272 37.9648
27.4109 37.9633
27.5946 37.864
27.7784 37.3125
27.9623 37.932
28.1462 38.2223
28.3304 36.7143
28.5145 35.5366
28.6987 35.0513
28.8829 35.0268
29.0673 34.0921
29.2517 33.9319
29.4361 33.707
29.6207 32.7579
29.8053 32.4561
29.99 32.1891
30.1748 31.923
30.3597 31.8316
30.5447 31.7126
30.7297 31.7558
30.915 31.0768
31.1002 30.7249
31.2855 30.4297
31.4708 30.4477
31.6563 30.0491
31.8418 29.795
32.0275 29.5728
32.2132 28.9881
32.399 28.5432
32.5848 28.194
32.7708 27.7579
32.9569 27.7559
33.143 27.4537
33.3293 27.1151
33.5158 26.7733
33.7022 26.2679
33.8887 26.0689
34.0753 25.7284
34.262 25.3414
34.4488 24.9181
34.6357 24.6603
34.8227 24.2919
35.0098 24.1889
35.1969 23.9264
35.3842 23.7189
35.5716 23.4643
35.759 23.1483
35.9468 22.8128
36.1345 22.5708
36.3222 22.3567
36.5101 22.1391
36.6981 21.815
36.8861 21.5542
37.0743 21.1486
37.2626 20.9872
37.451 20.6679
37.6395 20.549
37.8281 20.2645
38.0168 19.9487
38.2056 19.7003
38.3945 19.4646
38.5837 19.2615
38.7728 18.9375
38.9621 18.7321
39.1514 18.5083
39.3409 18.2405
39.5304 18.0543
39.7201 17.8113
39.9099 17.5924
40.0999 17.3965
40.2899 17.1486
40.48 16.9316
40.6703 16.7204
40.8607 16.5446
41.0512 16.2865
41.242 16.0867
41.4327 15.8836
41.6236 15.6404
41.8146 15.4214
42.0057 15.299
42.1969 15.0488
42.3882 14.8612
42.5797 14.645
42.7713 14.4789
42.963 14.2599
43.1549 14.0978
43.3468 13.8806
43.5389 13.6632
43.7312 13.5244
43.9237 13.3095
44.1162 13.1258
44.3088 12.9369
44.5016 12.7295
44.6945 12.5662
44.8875 12.4128
45.0806 12.2333
45.2739 12.0739
45.4673 11.8983
45.6609 11.6984
45.8546 11.5717
46.0484 11.4094
46.2424 11.2601
46.4365 11.0735
46.631 10.905
46.8254 10.7483
47.0199 10.6039
47.2146 10.4699
47.4095 10.2879
47.6044 10.1003
47.7996 9.96831
47.9948 9.82856
48.1902 9.68616
48.3858 9.58283
48.5815 9.42842
48.7774 9.27681
48.9734 9.13139
49.1696 9.0252
49.3661 8.82106
49.5626 8.71399
49.7592 8.61096
49.956 8.48262
50.153 8.32149
50.3501 8.24072
50.5474 8.09333
50.7448 7.98503
50.9424 7.84276
51.1402 7.73261
51.3381 7.54545
51.5362 7.45545
51.7344 7.31424
51.9328 7.25702
52.1316 7.10297
52.3304 6.98872
52.5293 6.88473
52.7284 6.75888
52.9276 6.62328
53.1271 6.56067
53.3267 6.45308
53.5265 6.29337
53.7264 6.18562
53.9266 6.07673
54.1269 5.99448
54.3274 5.83054
54.528 5.71769
54.7289 5.60146
54.9301 5.38423
55.1314 5.27808
55.3328 5.10355
55.5344 4.94692
55.7361 4.77697

File: Ni3Fe_FD0862.xy
TT I
1.27165 7.01944
1.45013 6.08686
1.62863 5.43633
1.80712 4.93445
1.98562 4.58044
2.16411 5.43533
2.34263 5.48822
2.52115 7.12979
2.69965 8.4904
2.87818 8.83997
3.05672 10.9694
3.23527 15.3928
3.4138 19.3498
3.59237 24.0656
3.77094 25.9126
3.9495 29.8913
4.12809 34.6963
4.30669 227.367
4.4853 65.9313
4.6639 54.8632
4.84253 66.0063
5.02118 84.9899
5.19981 294.876
5.37848 177.882
5.55716 100.367
5.73586 90.7023
5.91455 91.4513
6.09328 4407.5
6.27201 81.2924
6.45075 66.5428
6.62952 62.1538
6.8083 58.1169
6.98711 55.605
7.16591 55.2881
7.34475 92.5934
7.5236 54.2933
7.70247 55.4543
7.88135 57.0475
8.06026 61.7316
8.23919 68.8429
8.41812 83.7531
8.59709 1135.76
8.77609 97.2912
8.9551 90.8342
9.13412 80.6444
9.31318 81.2252
9.49226 83.5029
9.67134 97.6719
9.85047 98.4573
10.0296 302.087
10.2088 398.709
10.388 102.712
10.5672 517.609
10.7465 85.1067
10.9257 77.4028
11.105 71.1522
11.2844 69.6732
11.4637 64.167
11.6431 62.7886
11.8225 61.5222
12.002 62.4966
12.1814 152.834
12.3609 69.8918
12.5405 63.8184
12.72 69.6879
12.8996 69.9316
13.0792 77.0973
13.2589 229.932
13.4386 121.557
13.6183 245.866
13.7981 95.8667
13.9779 74.6236
14.1577 71.538
14.3376 70.779
14.5175 67.6396
14.6974 69.2424
14.8774 105.409
15.0574 147.221
15.2374 70.2955
15.4175 65.3963
15.5976 64.5537
15.7778 90.6067
15.958 154.427
16.1382 62.0362
16.3185 58.0318
16.4988 54.7384
16.6792 53.9189
16.8596 54.4854
17.04 54.8627
17.2205 65.4688
17.401 70.4538
17.5815 58.4588
17.7622 60.2538
17.9428 71.2451
18.1237 138.422
18.3044 89.5282
18.4852 76.6155
18.666 59.6942
18.8469 57.0672
19.0278 56.2872
19.2088 58.3295
19.3898 76.1122
19.5709 53.4985
19.752 52.4301
19.9332 55.292
20.1144 68.9183
20.2957 63.59
20.477 52.9627
20.6586 48.9764
20.84 48.166
21.0215 47.9137
21.203 50.3087
21.3846 48.4283
21.5662 48.0152
21.7479 51.6575
21.9297 63.5881
22.1115 55.4991
22.2933 49.2071
22.4753 48.3969
22.6572 48.1737
22.8393 51.1444
23.0214 56.6626
23.2037 48.0747
23.3859 48.9892
23.5682 56.4518
23.7505 47.7773
23.9329 44.6957
24.1154 43.5842
24.2979 42.734
24.4805 42.4113
24.6631 42.4204
24.8458 41.7012
25.0286 42.1517
25.2114 44.1108
25.3943 43.9639
25.5773 40.425
25.7605 39.8646
25.9436 40.3002
26.1268 41.2089
26.31 39.6411
26.4933 40.2209
26.6767 41.6801
26.8601 40.0191
27.0437 38.4203
27.2272 37.9731
27.4109 37.9035
27.5946 37.8761
27.7784 37.4179
27.9623 38.0084
28.1462 38.2945
28.3304 36.7274
28.5145 35.5312
28.6987 35.1509
28.8829 34.9974
29.0673 34.1774
29.2517 33.9288
29.4361 33.7785
29.6207 32.7498
29.8053 32.4947
29.99 32.1858
30.1748 32.0295
30.3597 31.8101
30.5447 31.687
30.7297 31.7402
30.915 31.2681
31.1002 30.6856
31.2855 30.5443
31.4708 30.4864
31.6563 29.9646
31.8418 29.8699
32.0275 29.4462
32.2132 29.0415
32.399 28.6125
32.5848 28.1351
32.7708 27.894
32.9569 27.7376
33.143 27.4727
33.3293 27.0619
33.5158 26.6989
33.7022 26.2308
33.8887 26.0526
34.0753 25.6847
34.262 25.3466
34.4488 24.961
34.6357 24.7273
34.8227 24.4323
35.0098 24.1911
35.1969 23.9226
35.3842 23.745
35.5716 23.4935
35.759 23.1799
35.9468 22.8958
36.1345 22.6161
36.3222 22.4192
36.5101 22.0955
36.6981 21.8887
36.8861 21.4931
37.0743 21.2275
37.2626 21.0013
37.451 20.7404
37.6395 20.5643
37.8281 20.1984
38.0168 20.0291
38.2056 19.7118
38.3945 19.4838
38.5837 19.1661
38.7728 18.9737
38.9621 18.7385
39.1514 18.4069
39.3409 18.2571
39.5304 18.0699
39.7201 17.8635
39.9099 17.6203
40.0999 17.4095
40.2899 17.1356
40.48 16.9558
40.6703 16.7119
40.8607 16.5198
41.0512 16.3106
41.242 16.0923
41.4327 15.8991
41.6236 15.6391
41.8146 15.4738
42.0057 15.3054
42.1969 15.0443
42.3882 14.8591
42.5797 14.6506
42.7713 14.4542
42.963 14.2582
43.1549 14.0835
43.3468 13.9289
43.5389 13.6338
43.7312 13.4216
43.9237 13.3236
44.1162 13.1352
44.3088 12.9666
44.5016 12.7612
44.6945 12.5683
44.8875 12.4155
45.0806 12.1961
45.2739 12.0528
45.4673 11.9236
45.6609 11.7514
45.8546 11.6078
46.0484 11.4158
46.2424 11.144
46.4365 11.0931
46.631 10.8567
46.8254 10.7141
47.0199 10.6062
47.2146 10.4576
47.4095 10.2772
47.6044 10.1048
47.7996 9.97861
47.9948 9.85527
48.1902 9.6949
48.3858 9.54874
48.5815 9.41491
48.7774 9.27255
48.9734 9.13948
49.1696 8.99166
49.3661 8.85104
49.5626 8.71652
49.7592 8.58126
49.956 8.45625
50.153 8.35797
50.3501 8.1599
50.5474 8.10417
50.7448 7.96468
50.9424 7.84067
51.1402 7.70246
51.3381 7.57692
51.5362 7.46799
51.7344 7.35212
51.9328 7.20175
52.1316 7.10671
52.3304 6.9898
52.5293 6.8479
52.7284 6.75848
52.9276 6.6384
53.1271 6.54108
53.3267 6.45905
53.5265 6.3311
53.7264 6.18964
53.9266 6.11681
54.1269 5.96218
54.3274 5.89647
54.528 5.73044
54.7289 5.53708
54.9301 5.47147
55.1314 5.31402
55.3328 5.11555
55.5344 4.87826
55.7361 4.75405