Folder: NiFe_MOF_catalyst_paper/XRD (part 192)

File: Ni3Fe_FD1036.xy
TT I
1.27165 6.72888
1.45013 5.58059
1.62863 4.89097
1.80712 4.50961
1.98562 4.32594
2.16411 4.3869
2.34263 5.80128
2.52115 6.73244
2.69965 8.71609
2.87818 8.76504
3.05672 11.2358
3.23527 14.9239
3.4138 18.4168
3.59237 21.2804
3.77094 24.8901
3.9495 27.8858
4.12809 32.3569
4.30669 57.1491
4.4853 46.2133
4.6639 52.9489
4.84253 64.002
5.02118 82.8395
5.19981 231.23
5.37848 218.539
5.55716 97.1682
5.73586 87.7313
5.91455 88.7569
6.09328 4581.26
6.27201 75.7999
6.45075 63.0619
6.62952 57.8488
6.8083 54.1952
6.98711 52.68
7.16591 51.5892
7.34475 55.9185
7.5236 60.0434
7.70247 53.2485
7.88135 54.7616
8.06026 59.3033
8.23919 65.7442
8.41812 77.8502
8.59709 1072.96
8.77609 94.413
8.9551 81.9773
9.13412 79.0242
9.31318 90.4533
9.49226 80.9502
9.67134 86.2124
9.85047 93.9141
10.0296 341.46
10.2088 442.294
10.388 97.6458
10.5672 503.65
10.7465 86.6394
10.9257 73.2479
11.105 68.1571
11.2844 64.5881
11.4637 61.503
11.6431 60.6771
11.8225 59.6689
12.002 67.6359
12.1814 146.931
12.3609 64.3117
12.5405 60.9862
12.72 64.0167
12.8996 67.7052
13.0792 76.2172
13.2589 225.617
13.4386 127.042
13.6183 234.579
13.7981 100.598
13.9779 73.1596
14.1577 76.1003
14.3376 67.1355
14.5175 66.0732
14.6974 67.1678
14.8774 108.423
15.0574 160.789
15.2374 66.4527
15.4175 63.7154
15.5976 63.2114
15.7778 92.9236
15.958 167.39
16.1382 59.8707
16.3185 55.2667
16.4988 53.3389
16.6792 52.4202
16.8596 52.7898
17.04 53.7502
17.2205 64.4858
17.401 71.2264
17.5815 57.0351
17.7622 59.8223
17.9428 72.7367
18.1237 141.779
18.3044 88.3618
18.4852 78.9938
18.666 58.738
18.8469 56.1872
19.0278 54.7413
19.2088 57.7487
19.3898 75.8624
19.5709 52.7454
19.752 51.6404
19.9332 55.0746
20.1144 70.0433
20.2957 63.2361
20.477 52.6652
20.6586 48.2257
20.84 47.6976
21.0215 47.1619
21.203 49.4622
21.3846 47.5818
21.5662 47.3861
21.7479 51.4155
21.9297 65.1896
22.1115 55.9111
22.2933 48.8414
22.4753 47.3688
22.6572 47.6159
22.8393 50.969
23.0214 57.2994
23.2037 47.7252
23.3859 49.1556
23.5682 56.9828
23.7505 47.9794
23.9329 44.1742
24.1154 43.0776
24.2979 42.2673
24.4805 41.7985
24.6631 41.9895
24.8458 41.0384
25.0286 41.9356
25.2114 44.025
25.3943 44.2592
25.5773 40.0223
25.7605 39.4561
25.9436 39.9586
26.1268 41.2744
26.31 39.2909
26.4933 39.888
26.6767 41.8326
26.8601 39.9188
27.0437 38.1431
27.2272 37.8838
27.4109 37.6266
27.5946 37.7085
27.7784 37.1036
27.9623 37.8413
28.1462 38.4351
28.3304 36.6558
28.5145 35.137
28.6987 34.9482
28.8829 34.7826
29.0673 34.0838
29.2517 33.5632
29.4361 33.5322
29.6207 32.4325
29.8053 32.2109
29.99 31.9253
30.1748 31.7781
30.3597 31.663
30.5447 31.5506
30.7297 31.692
30.915 31.1139
31.1002 30.5428
31.2855 30.2526
31.4708 30.3751
31.6563 29.8332
31.8418 29.5931
32.0275 29.4768
32.2132 28.8943
32.399 28.3529
32.5848 27.9837
32.7708 27.5195
32.9569 27.4103
33.143 27.2533
33.3293 26.8968
33.5158 26.5554
33.7022 26.0933
33.8887 25.865
34.0753 25.5937
34.262 25.165
34.4488 24.8372
34.6357 24.4301
34.8227 24.2445
35.0098 24.0252
35.1969 23.7754
35.3842 23.5716
35.5716 23.469
35.759 23.0903
35.9468 22.6582
36.1345 22.4706
36.3222 22.2393
36.5101 21.9909
36.6981 21.6751
36.8861 21.3975
37.0743 21.1126
37.2626 20.8631
37.451 20.6852
37.6395 20.4364
37.8281 20.1005
38.0168 19.8355
38.2056 19.5327
38.3945 19.3367
38.5837 19.063
38.7728 18.8742
38.9621 18.5909
39.1514 18.3818
39.3409 18.1176
39.5304 17.9415
39.7201 17.7809
39.9099 17.506
40.0999 17.2729
40.2899 17.0824
40.48 16.7847
40.6703 16.6476
40.8607 16.4693
41.0512 16.2278
41.242 15.998
41.4327 15.7716
41.6236 15.5527
41.8146 15.3913
42.0057 15.1043
42.1969 14.9441
42.3882 14.7548
42.5797 14.5539
42.7713 14.3844
42.963 14.1819
43.1549 13.973
43.3468 13.7624
43.5389 13.5599
43.7312 13.3965
43.9237 13.2025
44.1162 13.0137
44.3088 12.8829
44.5016 12.6841
44.6945 12.5176
44.8875 12.3232
45.0806 12.1213
45.2739 11.9756
45.4673 11.8109
45.6609 11.6346
45.8546 11.4751
46.0484 11.3301
46.2424 11.1699
46.4365 11.0082
46.631 10.8504
46.8254 10.6901
47.0199 10.4772
47.2146 10.3842
47.4095 10.1826
47.6044 10.0718
47.7996 9.91858
47.9948 9.74423
48.1902 9.58259
48.3858 9.47349
48.5815 9.36148
48.7774 9.22078
48.9734 9.02611
49.1696 8.93599
49.3661 8.80055
49.5626 8.6362
49.7592 8.49217
49.956 8.40186
50.153 8.31279
50.3501 8.16387
50.5474 8.02286
50.7448 7.91801
50.9424 7.74979
51.1402 7.67143
51.3381 7.57172
51.5362 7.40113
51.7344 7.2966
51.9328 7.18801
52.1316 7.06646
52.3304 6.9702
52.5293 6.82915
52.7284 6.72489
52.9276 6.60022
53.1271 6.49794
53.3267 6.36774
53.5265 6.29163
53.7264 6.18791
53.9266 6.05636
54.1269 5.89304
54.3274 5.85366
54.528 5.69869
54.7289 5.56636
54.9301 5.36548
55.1314 5.24621
55.3328 5.08666
55.5344 4.86626
55.7361 4.7293

File: Ni3Fe_FD1037.xy
TT I
1.27165 6.73201
1.45013 6.20467
1.62863 4.80838
1.80712 4.34636
1.98562 4.5346
2.16411 4.38136
2.34263 5.36325
2.52115 7.09589
2.69965 8.77451
2.87818 8.59262
3.05672 11.2442
3.23527 14.6571
3.4138 18.2877
3.59237 21.3285
3.77094 24.779
3.9495 28.0824
4.12809 32.3512
4.30669 57.0535
4.4853 45.8416
4.6639 52.9456
4.84253 63.8782
5.02118 82.6949
5.19981 229.914
5.37848 218.507
5.55716 97.0096
5.73586 87.398
5.91455 89.1016
6.09328 4576.56
6.27201 75.9416
6.45075 63.3033
6.62952 57.7767
6.8083 54.3898
6.98711 52.2118
7.16591 51.5912
7.34475 55.6974
7.5236 60.0566
7.70247 52.9567
7.88135 54.7861
8.06026 58.7906
8.23919 65.6023
8.41812 77.3459
8.59709 1072.76
8.77609 94.6848
8.9551 82.1912
9.13412 78.5937
9.31318 90.2895
9.49226 80.5696
9.67134 86.14
9.85047 94.1009
10.0296 340.988
10.2088 443.976
10.388 97.5533
10.5672 503.916
10.7465 86.1626
10.9257 73.4415
11.105 68.1029
11.2844 64.4742
11.4637 61.4742
11.6431 60.3425
11.8225 59.5748
12.002 67.5421
12.1814 146.575
12.3609 64.3071
12.5405 61.143
12.72 63.8295
12.8996 67.6329
13.0792 76.6032
13.2589 225.314
13.4386 126.76
13.6183 234.508
13.7981 100.591
13.9779 73.2785
14.1577 76.1582
14.3376 66.8675
14.5175 66.0711
14.6974 67.2286
14.8774 108.495
15.0574 160.821
15.2374 66.2969
15.4175 63.6718
15.5976 63.0053
15.7778 93.16
15.958 168.009
16.1382 59.9226
16.3185 55.5211
16.4988 53.3748
16.6792 52.4938
16.8596 52.7557
17.04 53.6497
17.2205 64.2049
17.401 71.7572
17.5815 57.0402
17.7622 59.9991
17.9428 72.5783
18.1237 141.676
18.3044 88.1854
18.4852 79.2819
18.666 58.6763
18.8469 56.1447
19.0278 54.9645
19.2088 57.6365
19.3898 75.996
19.5709 52.7522
19.752 51.623
19.9332 54.8519
20.1144 70.0585
20.2957 63.3698
20.477 52.5508
20.6586 48.1986
20.84 47.6752
21.0215 47.1861
21.203 49.4436
21.3846 47.754
21.5662 47.3845
21.7479 51.5125
21.9297 64.9937
22.1115 55.8342
22.2933 48.9354
22.4753 47.5246
22.6572 47.4404
22.8393 50.7623
23.0214 57.3521
23.2037 47.6874
23.3859 49.0351
23.5682 56.9643
23.7505 47.9254
23.9329 44.203
24.1154 43.1558
24.2979 42.2919
24.4805 41.8002
24.6631 41.8126
24.8458 41.125
25.0286 41.8216
25.2114 44.0276
25.3943 44.3776
25.5773 40.1487
25.7605 39.4744
25.9436 40.033
26.1268 41.2232
26.31 39.2887
26.4933 39.8591
26.6767 41.7532
26.8601 39.8424
27.0437 38.1254
27.2272 37.7299
27.4109 37.608
27.5946 37.7972
27.7784 37.1276
27.9623 37.9429
28.1462 38.5304
28.3304 36.61
28.5145 35.2152
28.6987 35.0356
28.8829 34.7867
29.0673 34.061
29.2517 33.6559
29.4361 33.5427
29.6207 32.4498
29.8053 32.0785
29.99 32.0057
30.1748 31.9107
30.3597 31.6913
30.5447 31.5202
30.7297 31.6726
30.915 31.1696
31.1002 30.6383
31.2855 30.342
31.4708 30.2645
31.6563 29.8731
31.8418 29.5986
32.0275 29.5173
32.2132 28.9274
32.399 28.3889
32.5848 27.9499
32.7708 27.6145
32.9569 27.4698
33.143 27.2282
33.3293 26.9972
33.5158 26.5585
33.7022 26.0657
33.8887 25.8863
34.0753 25.5395
34.262 25.1858
34.4488 24.938
34.6357 24.4533
34.8227 24.2272
35.0098 24.013
35.1969 23.8323
35.3842 23.5227
35.5716 23.3679
35.759 23.1203
35.9468 22.7324
36.1345 22.5072
36.3222 22.3117
36.5101 22.0004
36.6981 21.747
36.8861 21.5018
37.0743 20.9994
37.2626 20.9095
37.451 20.6517
37.6395 20.4449
37.8281 20.1656
38.0168 19.8357
38.2056 19.6732
38.3945 19.2815
38.5837 19.1388
38.7728 18.8157
38.9621 18.5699
39.1514 18.3314
39.3409 18.0502
39.5304 17.8461
39.7201 17.7698
39.9099 17.4685
40.0999 17.2741
40.2899 17.0719
40.48 16.79
40.6703 16.5735
40.8607 16.4382
41.0512 16.1963
41.242 15.9713
41.4327 15.7453
41.6236 15.5404
41.8146 15.3705
42.0057 15.167
42.1969 14.9152
42.3882 14.717
42.5797 14.5604
42.7713 14.2881
42.963 14.1453
43.1549 13.9771
43.3468 13.7466
43.5389 13.5786
43.7312 13.347
43.9237 13.1762
44.1162 13.0016
44.3088 12.9045
44.5016 12.6748
44.6945 12.4615
44.8875 12.3213
45.0806 12.1605
45.2739 11.9643
45.4673 11.8044
45.6609 11.634
45.8546 11.4516
46.0484 11.3344
46.2424 11.1499
46.4365 10.9829
46.631 10.8278
46.8254 10.6736
47.0199 10.5215
47.2146 10.3722
47.4095 10.1948
47.6044 10.0251
47.7996 9.9373
47.9948 9.76368
48.1902 9.64211
48.3858 9.47598
48.5815 9.38821
48.7774 9.21691
48.9734 9.08535
49.1696 8.95406
49.3661 8.79537
49.5626 8.68556
49.7592 8.54595
49.956 8.45507
50.153 8.26151
50.3501 8.13018
50.5474 8.01607
50.7448 7.89259
50.9424 7.77277
51.1402 7.6822
51.3381 7.54914
51.5362 7.4154
51.7344 7.30412
51.9328 7.12714
52.1316 7.0423
52.3304 6.92566
52.5293 6.83893
52.7284 6.69174
52.9276 6.6014
53.1271 6.48733
53.3267 6.39387
53.5265 6.23154
53.7264 6.16559
53.9266 6.04484
54.1269 5.91961
54.3274 5.88002
54.528 5.65091
54.7289 5.56293
54.9301 5.42418
55.1314 5.26571
55.3328 5.0838
55.5344 4.83487
55.7361 4.7726

File: Ni3Fe_FD1038.xy
TT I
1.27165 6.85929
1.45013 5.52288
1.62863 4.8432
1.80712 4.27057
1.98562 4.49696
2.16411 4.5448
2.34263 5.5227
2.52115 7.47724
2.69965 8.51431
2.87818 8.46524
3.05672 11.435
3.23527 15.1321
3.4138 18.0675
3.59237 21.1743
3.77094 24.4724
3.9495 28.2247
4.12809 32.4053
4.30669 56.8517
4.4853 46.2805
4.6639 52.903
4.84253 63.8104
5.02118 82.614
5.19981 231.752
5.37848 216.546
5.55716 97.3105
5.73586 87.8474
5.91455 88.5217
6.09328 4604.29
6.27201 75.6034
6.45075 63.349
6.62952 57.7945
6.8083 54.283
6.98711 52.2781
7.16591 51.1494
7.34475 55.772
7.5236 59.8128
7.70247 52.5785
7.88135 54.9908
8.06026 58.8731
8.23919 65.6446
8.41812 77.7529
8.59709 1075.38
8.77609 94.6219
8.9551 82.3627
9.13412 79.1017
9.31318 90.5763
9.49226 81.1371
9.67134 86.7238
9.85047 93.5494
10.0296 343.36
10.2088 438.334
10.388 97.5716
10.5672 505.374
10.7465 86.9047
10.9257 73.1789
11.105 68.2128
11.2844 64.7608
11.4637 61.766
11.6431 60.4529
11.8225 59.4267
12.002 67.2051
12.1814 147.159
12.3609 64.5249
12.5405 61.2787
12.72 64.1611
12.8996 67.5765
13.0792 76.7741
13.2589 226.496
13.4386 126.795
13.6183 235.39
13.7981 100.225
13.9779 73.3931
14.1577 75.9515
14.3376 67.177
14.5175 66.3492
14.6974 67.3487
14.8774 108.71
15.0574 160.479
15.2374 66.4887
15.4175 64.0945
15.5976 62.9967
15.7778 93.4578
15.958 167.087
16.1382 59.7023
16.3185 55.4047
16.4988 53.3054
16.6792 52.3514
16.8596 52.9641
17.04 53.8243
17.2205 64.4707
17.401 71.5366
17.5815 57.2099
17.7622 59.8054
17.9428 72.7432
18.1237 142.062
18.3044 88.5306
18.4852 78.8401
18.666 58.7159
18.8469 56.308
19.0278 54.9136
19.2088 57.8723
19.3898 76.0122
19.5709 52.907
19.752 51.6136
19.9332 54.8314
20.1144 70.1479
20.2957 63.4443
20.477 52.6665
20.6586 48.2569
20.84 47.7194
21.0215 47.1064
21.203 49.4787
21.3846 47.7772
21.5662 47.4057
21.7479 51.6128
21.9297 65.1302
22.1115 55.6115
22.2933 49.0844
22.4753 47.4515
22.6572 47.5763
22.8393 50.9006
23.0214 57.3638
23.2037 47.763
23.3859 49.1517
23.5682 57.1326
23.7505 48.0039
23.9329 44.1803
24.1154 43.0979
24.2979 42.2559
24.4805 41.8248
24.6631 41.8795
24.8458 41.1542
25.0286 41.9808
25.2114 44.0945
25.3943 44.1885
25.5773 40.0231
25.7605 39.5018
25.9436 40.077
26.1268 41.1351
26.31 39.2256
26.4933 39.949
26.6767 41.8521
26.8601 39.8869
27.0437 38.1675
27.2272 37.8052
27.4109 37.6125
27.5946 37.7956
27.7784 37.2136
27.9623 37.9472
28.1462 38.555
28.3304 36.7457
28.5145 35.1767
28.6987 34.974
28.8829 34.768
29.0673 33.9739
29.2517 33.78
29.4361 33.5556
29.6207 32.4957
29.8053 32.1789
29.99 32.0293
30.1748 31.8128
30.3597 31.709
30.5447 31.5485
30.7297 31.7918
30.915 31.1268
31.1002 30.6697
31.2855 30.2675
31.4708 30.4667
31.6563 29.8726
31.8418 29.6598
32.0275 29.4102
32.2132 28.9783
32.399 28.4306
32.5848 27.8668
32.7708 27.6629
32.9569 27.4999
33.143 27.3857
33.3293 26.9815
33.5158 26.5812
33.7022 26.0572
33.8887 25.8794
34.0753 25.5319
34.262 25.1455
34.4488 24.7567
34.6357 24.4123
34.8227 24.2182
35.0098 24.0547
35.1969 23.8259
35.3842 23.5316
35.5716 23.4919
35.759 23.0896
35.9468 22.7584
36.1345 22.5172
36.3222 22.2729
36.5101 22.0027
36.6981 21.7995
36.8861 21.4667
37.0743 21.1785
37.2626 20.8996
37.451 20.6441
37.6395 20.5026
37.8281 20.1825
38.0168 19.8882
38.2056 19.5698
38.3945 19.2762
38.5837 19.1191
38.7728 18.92
38.9621 18.6712
39.1514 18.3965
39.3409 18.071
39.5304 17.9204
39.7201 17.7796
39.9099 17.539
40.0999 17.291
40.2899 17.0032
40.48 16.8905
40.6703 16.646
40.8607 16.5097
41.0512 16.2542
41.242 15.9274
41.4327 15.7456
41.6236 15.5948
41.8146 15.381
42.0057 15.1796
42.1969 14.9778
42.3882 14.768
42.5797 14.5409
42.7713 14.3492
42.963 14.1716
43.1549 14.0104
43.3468 13.7583
43.5389 13.6533
43.7312 13.4036
43.9237 13.2288
44.1162 13.0049
44.3088 12.8134
44.5016 12.6778
44.6945 12.4965
44.8875 12.3286
45.0806 12.1332
45.2739 11.9993
45.4673 11.8437
45.6609 11.6593
45.8546 11.4763
46.0484 11.3284
46.2424 11.1584
46.4365 10.988
46.631 10.8392
46.8254 10.6986
47.0199 10.5404
47.2146 10.3838
47.4095 10.2228
47.6044 10.0738
47.7996 9.9291
47.9948 9.77298
48.1902 9.63584
48.3858 9.50205
48.5815 9.34471
48.7774 9.22697
48.9734 9.0601
49.1696 8.94629
49.3661 8.79338
49.5626 8.65724
49.7592 8.53449
49.956 8.40453
50.153 8.29356
50.3501 8.14307
50.5474 8.06072
50.7448 7.92767
50.9424 7.80934
51.1402 7.70524
51.3381 7.54178
51.5362 7.38745
51.7344 7.31185
51.9328 7.1258
52.1316 7.05152
52.3304 6.98147
52.5293 6.81048
52.7284 6.69613
52.9276 6.57083
53.1271 6.52278
53.3267 6.39554
53.5265 6.22904
53.7264 6.17877
53.9266 6.08166
54.1269 5.98412
54.3274 5.78266
54.528 5.69335
54.7289 5.58146
54.9301 5.40555
55.1314 5.23888
55.3328 5.06837
55.5344 4.84028
55.7361 4.7093

File: Ni3Fe_FD1039.xy
TT I
1.27165 7.04169
1.45013 5.61821
1.62863 4.29273
1.80712 4.55864
1.98562 4.51676
2.16411 3.91682
2.34263 5.70922
2.52115 7.52242
2.69965 8.78246
2.87818 9.19932
3.05672 10.9461
3.23527 14.7241
3.4138 18.4173
3.59237 21.4053
3.77094 24.2706
3.9495 28.2444
4.12809 31.9711
4.30669 56.5305
4.4853 45.9944
4.6639 52.8212
4.84253 64.0097
5.02118 83.172
5.19981 232.604
5.37848 215.277
5.55716 97.7813
5.73586 88.1201
5.91455 88.7339
6.09328 4551.12
6.27201 76.1396
6.45075 63.1198
6.62952 57.9054
6.8083 54.5968
6.98711 52.5474
7.16591 51.2926
7.34475 56.0185
7.5236 59.5778
7.70247 53.0228
7.88135 54.9389
8.06026 58.778
8.23919 65.2689
8.41812 77.4015
8.59709 1076.81
8.77609 94.677
8.9551 82.2658
9.13412 79.1792
9.31318 90.206
9.49226 81.0577
9.67134 86.1928
9.85047 94.2241
10.0296 345.046
10.2088 434.641
10.388 97.5383
10.5672 505.974
10.7465 86.66
10.9257 73.6217
11.105 67.892
11.2844 64.6868
11.4637 61.8657
11.6431 60.3917
11.8225 59.9427
12.002 67.4682
12.1814 146.951
12.3609 64.2146
12.5405 61.563
12.72 63.6701
12.8996 67.763
13.0792 76.4907
13.2589 226.88
13.4386 126.654
13.6183 235.991
13.7981 100.155
13.9779 73.3256
14.1577 76.1747
14.3376 67.3844
14.5175 66.2947
14.6974 67.2008
14.8774 109.015
15.0574 160.074
15.2374 66.4719
15.4175 63.9729
15.5976 63.2589
15.7778 93.47
15.958 166.655
16.1382 59.8593
16.3185 55.6581
16.4988 53.3439
16.6792 52.5462
16.8596 52.8839
17.04 53.7612
17.2205 64.8309
17.401 71.4657
17.5815 57.2598
17.7622 60.0237
17.9428 72.7271
18.1237 141.579
18.3044 88.5998
18.4852 79.035
18.666 58.9525
18.8469 56.2091
19.0278 54.7183
19.2088 58.0298
19.3898 75.9818
19.5709 52.9144
19.752 51.4378
19.9332 54.749
20.1144 70.2008
20.2957 63.3737
20.477 52.749
20.6586 48.1869
20.84 47.8375
21.0215 47.3617
21.203 49.5225
21.3846 47.8331
21.5662 47.2954
21.7479 51.5968
21.9297 65.201
22.1115 55.7984
22.2933 48.9091
22.4753 47.4179
22.6572 47.5021
22.8393 50.9554
23.0214 57.3674
23.2037 47.5909
23.3859 49.1301
23.5682 57.3031
23.7505 48.1304
23.9329 44.1578
24.1154 43.14
24.2979 42.3452
24.4805 41.9571
24.6631 41.7935
24.8458 41.1399
25.0286 41.8407
25.2114 44.1193
25.3943 44.282
25.5773 39.9533
25.7605 39.5133
25.9436 40.0598
26.1268 41.2496
26.31 39.4768
26.4933 40.0457
26.6767 41.8738
26.8601 39.9925
27.0437 38.2802
27.2272 37.8168
27.4109 37.7133
27.5946 37.7084
27.7784 37.1935
27.9623 37.8894
28.1462 38.5996
28.3304 36.7495
28.5145 35.241
28.6987 34.9164
28.8829 34.7248
29.0673 34.0587
29.2517 33.624
29.4361 33.5451
29.6207 32.5174
29.8053 32.1287
29.99 31.9011
30.1748 31.8775
30.3597 31.6188
30.5447 31.6375
30.7297 31.718
30.915 31.0872
31.1002 30.6061
31.2855 30.3509
31.4708 30.2743
31.6563 29.894
31.8418 29.626
32.0275 29.5445
32.2132 28.8886
32.399 28.4613
32.5848 28.0376
32.7708 27.6267
32.9569 27.5151
33.143 27.3257
33.3293 26.9585
33.5158 26.576
33.7022 26.0764
33.8887 25.9036
34.0753 25.5424
34.262 25.113
34.4488 24.8306
34.6357 24.5121
34.8227 24.2429
35.0098 24.0971
35.1969 23.7132
35.3842 23.6297
35.5716 23.449
35.759 23.0609
35.9468 22.7437
36.1345 22.5176
36.3222 22.2693
36.5101 22.0511
36.6981 21.7155
36.8861 21.4534
37.0743 21.119
37.2626 20.8798
37.451 20.654
37.6395 20.5464
37.8281 20.1252
38.0168 19.84
38.2056 19.6244
38.3945 19.3987
38.5837 19.1392
38.7728 18.867
38.9621 18.6442
39.1514 18.3825
39.3409 18.1472
39.5304 17.9289
39.7201 17.7209
39.9099 17.5156
40.0999 17.2888
40.2899 17.0455
40.48 16.8259
40.6703 16.6071
40.8607 16.4379
41.0512 16.189
41.242 15.9761
41.4327 15.7793
41.6236 15.553
41.8146 15.3267
42.0057 15.1406
42.1969 14.9407
42.3882 14.7897
42.5797 14.5935
42.7713 14.3436
42.963 14.1627
43.1549 14.0061
43.3468 13.7476
43.5389 13.5531
43.7312 13.442
43.9237 13.2437
44.1162 13.071
44.3088 12.8291
44.5016 12.6435
44.6945 12.4698
44.8875 12.3164
45.0806 12.1459
45.2739 11.9673
45.4673 11.7976
45.6609 11.6473
45.8546 11.4829
46.0484 11.3274
46.2424 11.1681
46.4365 11.0135
46.631 10.7965
46.8254 10.66
47.0199 10.4629
47.2146 10.3786
47.4095 10.2161
47.6044 10.0518
47.7996 9.91529
47.9948 9.7741
48.1902 9.59454
48.3858 9.48902
48.5815 9.35138
48.7774 9.20779
48.9734 9.06642
49.1696 8.95707
49.3661 8.79062
49.5626 8.65779
49.7592 8.53658
49.956 8.38635
50.153 8.27631
50.3501 8.14257
50.5474 7.99705
50.7448 7.90079
50.9424 7.81147
51.1402 7.68704
51.3381 7.52922
51.5362 7.41552
51.7344 7.28433
51.9328 7.19141
52.1316 7.05873
52.3304 6.94272
52.5293 6.81768
52.7284 6.73443
52.9276 6.6097
53.1271 6.54696
53.3267 6.39374
53.5265 6.27649
53.7264 6.1567
53.9266 6.08382
54.1269 5.9451
54.3274 5.86982
54.528 5.71109
54.7289 5.5715
54.9301 5.39907
55.1314 5.28801
55.3328 5.0682
55.5344 4.9069
55.7361 4.74516

File: Ni3Fe_FD1040.xy
TT I
1.27165 6.92054
1.45013 5.75638
1.62863 5.05681
1.80712 4.62727
1.98562 4.44798
2.16411 4.85105
2.34263 5.61869
2.52115 7.55919
2.69965 8.76877
2.87818 9.0572
3.05672 10.6423
3.23527 14.2727
3.4138 18.1085
3.59237 21.2746
3.77094 25.0361
3.9495 28.2002
4.12809 32.5461
4.30669 57.0838
4.4853 46.8075
4.6639 52.409
4.84253 63.7971
5.02118 83.2983
5.19981 231.869
5.37848 215.782
5.55716 97.0776
5.73586 87.6399
5.91455 88.9337
6.09328 4566.7
6.27201 75.9516
6.45075 63.6598
6.62952 57.8264
6.8083 54.9511
6.98711 52.4733
7.16591 51.7366
7.34475 56.2879
7.5236 59.5215
7.70247 52.8013
7.88135 54.5229
8.06026 58.9668
8.23919 66.0309
8.41812 77.7158
8.59709 1074.36
8.77609 94.8446
8.9551 82.1948
9.13412 79.2101
9.31318 90.3571
9.49226 81.0828
9.67134 86.2594
9.85047 93.893
10.0296 344.129
10.2088 439.196
10.388 97.7258
10.5672 505.214
10.7465 86.5551
10.9257 73.4256
11.105 67.9014
11.2844 64.8115
11.4637 61.7179
11.6431 60.5526
11.8225 59.4539
12.002 67.2121
12.1814 146.958
12.3609 64.351
12.5405 61.4286
12.72 63.8048
12.8996 67.9835
13.0792 76.5741
13.2589 226.839
13.4386 126.935
13.6183 235.719
13.7981 100.308
13.9779 73.4229
14.1577 75.7842
14.3376 67.0305
14.5175 66.1954
14.6974 67.5781
14.8774 109.153
15.0574 161.189
15.2374 66.5306
15.4175 63.9406
15.5976 63.3153
15.7778 93.7516
15.958 166.864
16.1382 60.0391
16.3185 55.4616
16.4988 53.3617
16.6792 52.5723
16.8596 52.8057
17.04 53.6784
17.2205 64.6424
17.401 71.6219
17.5815 57.2022
17.7622 59.8343
17.9428 72.94
18.1237 141.838
18.3044 88.479
18.4852 79.1724
18.666 58.7843
18.8469 56.188
19.0278 54.942
19.2088 57.8246
19.3898 76.1175
19.5709 53.028
19.752 51.7652
19.9332 54.9049
20.1144 70.1912
20.2957 63.1019
20.477 52.7503
20.6586 48.2251
20.84 47.6681
21.0215 47.2128
21.203 49.4498
21.3846 47.6881
21.5662 47.4204
21.7479 51.7058
21.9297 65.1759
22.1115 55.8581
22.2933 48.9824
22.4753 47.4955
22.6572 47.5909
22.8393 50.9473
23.0214 57.3481
23.2037 47.5937
23.3859 49.3359
23.5682 57.1245
23.7505 47.8866
23.9329 44.1334
24.1154 43.1567
24.2979 42.2976
24.4805 42.0486
24.6631 41.9135
24.8458 41.2567
25.0286 42.0364
25.2114 44.2063
25.3943 44.2313
25.5773 39.9774
25.7605 39.5496
25.9436 39.912
26.1268 41.2082
26.31 39.2222
26.4933 39.9012
26.6767 41.7477
26.8601 40.0262
27.0437 38.2121
27.2272 37.7273
27.4109 37.579
27.5946 37.809
27.7784 37.2827
27.9623 37.8242
28.1462 38.516
28.3304 36.6591
28.5145 35.3068
28.6987 34.9748
28.8829 34.6609
29.0673 34.1057
29.2517 33.6871
29.4361 33.6347
29.6207 32.4968
29.8053 32.207
29.99 31.9164
30.1748 31.8492
30.3597 31.6629
30.5447 31.5426
30.7297 31.7982
30.915 31.16
31.1002 30.607
31.2855 30.4271
31.4708 30.3489
31.6563 29.8783
31.8418 29.7535
32.0275 29.4579
32.2132 28.77
32.399 28.3896
32.5848 27.9741
32.7708 27.6159
32.9569 27.487
33.143 27.3468
33.3293 26.9573
33.5158 26.5683
33.7022 26.1302
33.8887 25.8679
34.0753 25.485
34.262 25.1662
34.4488 24.8218
34.6357 24.5374
34.8227 24.2447
35.0098 24.1056
35.1969 23.7959
35.3842 23.6214
35.5716 23.3606
35.759 23.0586
35.9468 22.7406
36.1345 22.5937
36.3222 22.2071
36.5101 22.0601
36.6981 21.7666
36.8861 21.484
37.0743 21.1773
37.2626 20.8727
37.451 20.5744
37.6395 20.4751
37.8281 20.11
38.0168 19.8704
38.2056 19.5976
38.3945 19.3135
38.5837 19.1294
38.7728 18.8892
38.9621 18.5746
39.1514 18.3666
39.3409 18.1882
39.5304 17.8927
39.7201 17.7204
39.9099 17.5652
40.0999 17.3169
40.2899 17.0772
40.48 16.8072
40.6703 16.5732
40.8607 16.4999
41.0512 16.2788
41.242 15.9536
41.4327 15.7963
41.6236 15.5083
41.8146 15.3875
42.0057 15.1712
42.1969 14.9469
42.3882 14.7869
42.5797 14.5675
42.7713 14.3571
42.963 14.1659
43.1549 13.9638
43.3468 13.7502
43.5389 13.5977
43.7312 13.3738
43.9237 13.2364
44.1162 12.9968
44.3088 12.8873
44.5016 12.6744
44.6945 12.5253
44.8875 12.3426
45.0806 12.1508
45.2739 11.9768
45.4673 11.8061
45.6609 11.6329
45.8546 11.459
46.0484 11.3086
46.2424 11.1542
46.4365 11.0097
46.631 10.8774
46.8254 10.623
47.0199 10.4981
47.2146 10.3697
47.4095 10.1797
47.6044 10.079
47.7996 9.89384
47.9948 9.82191
48.1902 9.65309
48.3858 9.51336
48.5815 9.35164
48.7774 9.26
48.9734 9.093
49.1696 8.97831
49.3661 8.77505
49.5626 8.64971
49.7592 8.53184
49.956 8.43122
50.153 8.27934
50.3501 8.14981
50.5474 7.98553
50.7448 7.90927
50.9424 7.81295
51.1402 7.65913
51.3381 7.53761
51.5362 7.44431
51.7344 7.29484
51.9328 7.15516
52.1316 7.05251
52.3304 6.95366
52.5293 6.80958
52.7284 6.69404
52.9276 6.57701
53.1271 6.52313
53.3267 6.39994
53.5265 6.2697
53.7264 6.14981
53.9266 6.07968
54.1269 5.93745
54.3274 5.81785
54.528 5.70458
54.7289 5.47873
54.9301 5.41979
55.1314 5.26506
55.3328 5.05904
55.5344 4.87931
55.7361 4.73023