Folder: NiFe_MOF_catalyst_paper/XRD (part 24)

File: Ni3Fe_FD0120.xy
TT I
1.27165 7.70955
1.45013 6.4164
1.62863 5.68848
1.80712 5.17579
1.98562 5.14364
2.16411 4.84304
2.34263 4.37306
2.52115 4.53142
2.69965 5.33261
2.87818 7.48939
3.05672 11.224
3.23527 14.7445
3.4138 18.5234
3.59237 21.3817
3.77094 24.5633
3.9495 28.3023
4.12809 32.6141
4.30669 37.3543
4.4853 44.482
4.6639 53.3167
4.84253 65.3365
5.02118 90.7294
5.19981 595.137
5.37848 539.946
5.55716 108.281
5.73586 95.8388
5.91455 106.835
6.09328 2475.28
6.27201 91.32
6.45075 66.2191
6.62952 59.212
6.8083 54.7521
6.98711 52.9802
7.16591 51.7023
7.34475 51.5388
7.5236 56.1254
7.70247 53.4653
7.88135 55.5869
8.06026 59.9112
8.23919 67.1869
8.41812 83.3508
8.59709 827.824
8.77609 120.948
8.9551 84.4593
9.13412 80.7229
9.31318 89.1052
9.49226 82.82
9.67134 87.7234
9.85047 97.7475
10.0296 563.556
10.2088 1070.58
10.388 104.164
10.5672 299.521
10.7465 91.7808
10.9257 75.1479
11.105 69.6071
11.2844 65.5738
11.4637 62.7739
11.6431 61.617
11.8225 60.3738
12.002 66.3649
12.1814 110.991
12.3609 76.6924
12.5405 62.2625
12.72 64.4242
12.8996 69.2603
13.0792 78.4948
13.2589 195.229
13.4386 226.802
13.6183 181.062
13.7981 165.744
13.9779 75.367
14.1577 74.8058
14.3376 68.3635
14.5175 67.5098
14.6974 69.1502
14.8774 120.005
15.0574 205.393
15.2374 68.434
15.4175 65.646
15.5976 64.8088
15.7778 107.265
15.958 182.413
16.1382 61.441
16.3185 56.895
16.4988 54.4504
16.6792 53.3265
16.8596 53.6319
17.04 54.7964
17.2205 64.1351
17.401 81.0113
17.5815 58.3645
17.7622 60.5077
17.9428 83.905
18.1237 108.092
18.3044 87.2356
18.4852 96.8291
18.666 60.3365
18.8469 57.6509
19.0278 55.9872
19.2088 61.573
19.3898 67.0229
19.5709 56.2503
19.752 52.642
19.9332 57.6734
20.1144 65.3037
20.2957 60.2291
20.477 59.76
20.6586 49.3839
20.84 48.691
21.0215 48.4953
21.203 48.9826
21.3846 50.069
21.5662 48.2931
21.7479 53.5773
21.9297 60.2938
22.1115 55.9324
22.2933 52.4569
22.4753 48.4786
22.6572 48.4673
22.8393 51.2714
23.0214 56.0153
23.2037 49.7094
23.3859 51.3953
23.5682 52.2409
23.7505 53.7083
23.9329 45.2291
24.1154 43.9
24.2979 43.2314
24.4805 42.5419
24.6631 42.6667
24.8458 42.0322
25.0286 42.5099
25.2114 43.9385
25.3943 44.2494
25.5773 41.3705
25.7605 40.3128
25.9436 40.5457
26.1268 41.1195
26.31 40.772
26.4933 40.543
26.6767 41.4185
26.8601 41.0544
27.0437 39.2144
27.2272 38.6747
27.4109 38.2704
27.5946 38.2741
27.7784 38.3007
27.9623 38.0604
28.1462 38.9218
28.3304 37.5914
28.5145 36.1501
28.6987 35.527
28.8829 35.1099
29.0673 34.9153
29.2517 34.199
29.4361 33.8752
29.6207 33.2791
29.8053 32.7527
29.99 32.442
30.1748 32.1883
30.3597 32.3107
30.5447 31.9893
30.7297 31.9851
30.915 31.8061
31.1002 31.1803
31.2855 30.7929
31.4708 30.6899
31.6563 30.5588
31.8418 30.0188
32.0275 29.8314
32.2132 29.4582
32.399 28.8746
32.5848 28.362
32.7708 28.0524
32.9569 27.9386
33.143 27.6082
33.3293 27.2986
33.5158 27.101
33.7022 26.5508
33.8887 26.2066
34.0753 25.9417
34.262 25.4928
34.4488 25.2228
34.6357 24.9179
34.8227 24.6694
35.0098 24.4279
35.1969 24.1158
35.3842 23.8928
35.5716 23.7096
35.759 23.4913
35.9468 22.9992
36.1345 22.8856
36.3222 22.6981
36.5101 22.3907
36.6981 22.0964
36.8861 21.7726
37.0743 21.415
37.2626 21.1984
37.451 20.8916
37.6395 20.7609
37.8281 20.4985
38.0168 20.1106
38.2056 19.8719
38.3945 19.5837
38.5837 19.4103
38.7728 19.1666
38.9621 18.8998
39.1514 18.6744
39.3409 18.3981
39.5304 18.1887
39.7201 18.0065
39.9099 17.8099
40.0999 17.4843
40.2899 17.3468
40.48 17.0754
40.6703 16.9136
40.8607 16.6896
41.0512 16.4344
41.242 16.1658
41.4327 16.0182
41.6236 15.7793
41.8146 15.6265
42.0057 15.4173
42.1969 15.1382
42.3882 14.9914
42.5797 14.7786
42.7713 14.5818
42.963 14.3783
43.1549 14.159
43.3468 13.9537
43.5389 13.8109
43.7312 13.5831
43.9237 13.4551
44.1162 13.2162
44.3088 13.053
44.5016 12.8546
44.6945 12.7253
44.8875 12.4977
45.0806 12.3054
45.2739 12.1848
45.4673 11.9892
45.6609 11.7995
45.8546 11.6205
46.0484 11.4595
46.2424 11.3162
46.4365 11.1606
46.631 10.9886
46.8254 10.8323
47.0199 10.6526
47.2146 10.5563
47.4095 10.354
47.6044 10.1821
47.7996 10.0505
47.9948 9.91506
48.1902 9.75657
48.3858 9.64847
48.5815 9.49389
48.7774 9.38813
48.9734 9.20611
49.1696 9.07494
49.3661 8.96248
49.5626 8.78002
49.7592 8.68418
49.956 8.55277
50.153 8.40282
50.3501 8.29865
50.5474 8.14656
50.7448 8.04682
50.9424 7.87919
51.1402 7.80491
51.3381 7.64989
51.5362 7.53977
51.7344 7.42308
51.9328 7.27141
52.1316 7.16612
52.3304 7.02236
52.5293 6.90924
52.7284 6.83947
52.9276 6.68758
53.1271 6.61025
53.3267 6.49289
53.5265 6.34812
53.7264 6.22482
53.9266 6.14125
54.1269 6.03813
54.3274 5.89162
54.528 5.7491
54.7289 5.54924
54.9301 5.42191
55.1314 5.26626
55.3328 5.01486
55.5344 4.84076
55.7361 4.72683

File: Ni3Fe_FD0121.xy
TT I
1.27165 7.97916
1.45013 7.0776
1.62863 5.50419
1.80712 4.93503
1.98562 5.12181
2.16411 4.33773
2.34263 3.99898
2.52115 3.57299
2.69965 5.04062
2.87818 8.0139
3.05672 11.2816
3.23527 14.8331
3.4138 18.2758
3.59237 21.4284
3.77094 24.8227
3.9495 28.3839
4.12809 32.5903
4.30669 37.2466
4.4853 44.7185
4.6639 53.0813
4.84253 65.1603
5.02118 90.8473
5.19981 587.971
5.37848 539.163
5.55716 108.723
5.73586 95.5267
5.91455 106.341
6.09328 2477.63
6.27201 91.0925
6.45075 66.2317
6.62952 59.2859
6.8083 55.3007
6.98711 53.0048
7.16591 51.6
7.34475 51.5189
7.5236 56.5621
7.70247 53.4007
7.88135 55.4851
8.06026 59.9953
8.23919 67.2856
8.41812 83.2754
8.59709 829.361
8.77609 120.277
8.9551 84.6879
9.13412 80.8208
9.31318 88.2699
9.49226 82.8854
9.67134 87.6724
9.85047 97.6958
10.0296 560.294
10.2088 1083.5
10.388 104.393
10.5672 300.75
10.7465 91.2763
10.9257 74.9421
11.105 69.1775
11.2844 65.266
11.4637 62.6757
11.6431 61.6042
11.8225 60.3351
12.002 66.428
12.1814 111.609
12.3609 76.8609
12.5405 62.4315
12.72 64.1369
12.8996 69.1294
13.0792 78.4113
13.2589 195.447
13.4386 227.831
13.6183 181.706
13.7981 166.051
13.9779 75.1705
14.1577 74.3402
14.3376 68.1383
14.5175 67.6433
14.6974 68.9651
14.8774 120.447
15.0574 205.532
15.2374 68.473
15.4175 65.5219
15.5976 64.9142
15.7778 107.49
15.958 183.362
16.1382 61.461
16.3185 56.7373
16.4988 54.2882
16.6792 53.3573
16.8596 53.4754
17.04 54.8212
17.2205 64.2776
17.401 80.9842
17.5815 58.3496
17.7622 60.7565
17.9428 83.7565
18.1237 108.281
18.3044 87.9255
18.4852 97.0602
18.666 60.3001
18.8469 57.632
19.0278 56.0973
19.2088 61.3239
19.3898 67.1118
19.5709 56.3022
19.752 52.7832
19.9332 57.7608
20.1144 65.3836
20.2957 60.2737
20.477 59.7383
20.6586 49.2984
20.84 48.4519
21.0215 48.7418
21.203 49.0287
21.3846 50.2473
21.5662 48.585
21.7479 53.5656
21.9297 60.3861
22.1115 55.9912
22.2933 52.6445
22.4753 48.464
22.6572 48.6627
22.8393 51.5458
23.0214 56.0588
23.2037 49.5418
23.3859 51.4296
23.5682 52.3787
23.7505 53.7238
23.9329 45.2292
24.1154 43.9602
24.2979 43.403
24.4805 42.5297
24.6631 42.8143
24.8458 42.1395
25.0286 42.4743
25.2114 43.9788
25.3943 44.3146
25.5773 41.3878
25.7605 40.3763
25.9436 40.6524
26.1268 41.173
26.31 40.6997
26.4933 40.4868
26.6767 41.4289
26.8601 41.0095
27.0437 39.1825
27.2272 38.6631
27.4109 38.3015
27.5946 38.2344
27.7784 38.2346
27.9623 38.0434
28.1462 38.9679
28.3304 37.572
28.5145 35.9658
28.6987 35.6373
28.8829 35.0673
29.0673 34.9057
29.2517 34.1124
29.4361 33.9315
29.6207 33.2806
29.8053 32.8008
29.99 32.43
30.1748 32.2931
30.3597 32.3081
30.5447 32.0511
30.7297 32.0525
30.915 31.815
31.1002 31.1754
31.2855 30.8628
31.4708 30.6666
31.6563 30.6238
31.8418 30.1272
32.0275 29.8761
32.2132 29.4688
32.399 28.8417
32.5848 28.531
32.7708 28.1095
32.9569 28.0223
33.143 27.6138
33.3293 27.4231
33.5158 27.1012
33.7022 26.5715
33.8887 26.2795
34.0753 25.9886
34.262 25.5921
34.4488 25.2312
34.6357 24.9133
34.8227 24.5584
35.0098 24.4445
35.1969 24.1493
35.3842 23.9516
35.5716 23.7081
35.759 23.4803
35.9468 23.0446
36.1345 22.8332
36.3222 22.6227
36.5101 22.3667
36.6981 22.0144
36.8861 21.8621
37.0743 21.3816
37.2626 21.2578
37.451 20.9204
37.6395 20.7741
37.8281 20.4557
38.0168 20.2012
38.2056 19.8755
38.3945 19.6229
38.5837 19.3617
38.7728 19.1506
38.9621 18.9074
39.1514 18.6253
39.3409 18.3998
39.5304 18.2038
39.7201 17.9708
39.9099 17.7714
40.0999 17.5819
40.2899 17.332
40.48 17.0566
40.6703 16.8788
40.8607 16.6935
41.0512 16.4807
41.242 16.2395
41.4327 16.0044
41.6236 15.8492
41.8146 15.6082
42.0057 15.4168
42.1969 15.1703
42.3882 15.0263
42.5797 14.7478
42.7713 14.5566
42.963 14.3763
43.1549 14.2352
43.3468 14.0101
43.5389 13.8455
43.7312 13.5667
43.9237 13.4769
44.1162 13.215
44.3088 13.0037
44.5016 12.8582
44.6945 12.7475
44.8875 12.511
45.0806 12.3353
45.2739 12.1753
45.4673 12.0019
45.6609 11.8269
45.8546 11.6792
46.0484 11.4807
46.2424 11.3264
46.4365 11.1464
46.631 10.9731
46.8254 10.7759
47.0199 10.6972
47.2146 10.5214
47.4095 10.3517
47.6044 10.2087
47.7996 10.069
47.9948 9.85296
48.1902 9.7158
48.3858 9.6451
48.5815 9.49343
48.7774 9.33059
48.9734 9.20216
49.1696 9.09365
49.3661 8.96123
49.5626 8.78936
49.7592 8.68584
49.956 8.54995
50.153 8.4568
50.3501 8.28534
50.5474 8.16249
50.7448 8.04858
50.9424 7.93055
51.1402 7.79407
51.3381 7.67617
51.5362 7.55451
51.7344 7.41627
51.9328 7.26983
52.1316 7.15777
52.3304 7.05051
52.5293 6.93482
52.7284 6.83147
52.9276 6.73542
53.1271 6.61436
53.3267 6.49073
53.5265 6.36242
53.7264 6.25803
53.9266 6.19728
54.1269 5.98839
54.3274 5.92309
54.528 5.70216
54.7289 5.57767
54.9301 5.40739
55.1314 5.24616
55.3328 5.0336
55.5344 4.82292
55.7361 4.76873

File: Ni3Fe_FD0122.xy
TT I
1.27165 8.29974
1.45013 6.63501
1.62863 5.60455
1.80712 5.30592
1.98562 4.77449
2.16411 4.68844
2.34263 4.1701
2.52115 4.1452
2.69965 4.79309
2.87818 7.70971
3.05672 11.1297
3.23527 14.6498
3.4138 18.2728
3.59237 21.8108
3.77094 25.1136
3.9495 28.1793
4.12809 32.3918
4.30669 37.4914
4.4853 44.5136
4.6639 52.8977
4.84253 66.0166
5.02118 91.1431
5.19981 591.642
5.37848 538.604
5.55716 108.478
5.73586 95.676
5.91455 107.324
6.09328 2494.85
6.27201 91.2181
6.45075 66.1011
6.62952 59.2222
6.8083 55.2712
6.98711 52.8384
7.16591 51.7599
7.34475 51.7065
7.5236 56.3804
7.70247 53.2678
7.88135 55.5409
8.06026 59.8528
8.23919 67.4357
8.41812 83.1833
8.59709 832.507
8.77609 119.688
8.9551 85.1965
9.13412 80.7531
9.31318 88.6355
9.49226 82.6309
9.67134 87.9215
9.85047 98.1301
10.0296 561.082
10.2088 1066.94
10.388 104.239
10.5672 303.038
10.7465 91.5883
10.9257 74.6505
11.105 69.7076
11.2844 65.4839
11.4637 62.7246
11.6431 61.438
11.8225 60.462
12.002 65.9372
12.1814 112.066
12.3609 76.4021
12.5405 62.5196
12.72 64.1474
12.8996 68.9349
13.0792 78.4993
13.2589 196.093
13.4386 223.993
13.6183 182.037
13.7981 163.598
13.9779 75.2798
14.1577 74.7796
14.3376 68.5352
14.5175 67.7005
14.6974 69.0315
14.8774 119.881
15.0574 205.884
15.2374 68.4038
15.4175 65.5998
15.5976 64.8898
15.7778 107.162
15.958 183.541
16.1382 61.552
16.3185 56.6232
16.4988 54.4574
16.6792 53.3429
16.8596 53.701
17.04 54.9087
17.2205 64.2505
17.401 80.9008
17.5815 58.3216
17.7622 60.7172
17.9428 83.835
18.1237 108.712
18.3044 87.1827
18.4852 97.0012
18.666 60.3732
18.8469 57.6439
19.0278 56.305
19.2088 61.3926
19.3898 67.1508
19.5709 56.2839
19.752 52.8349
19.9332 58.1402
20.1144 65.3095
20.2957 60.2734
20.477 59.6281
20.6586 49.2574
20.84 48.7117
21.0215 48.5838
21.203 49.062
21.3846 50.025
21.5662 48.4661
21.7479 53.8114
21.9297 60.5972
22.1115 55.9778
22.2933 52.3415
22.4753 48.5149
22.6572 48.7534
22.8393 51.5547
23.0214 56.003
23.2037 49.6505
23.3859 51.5804
23.5682 52.4597
23.7505 53.7064
23.9329 45.2903
24.1154 43.9931
24.2979 43.2472
24.4805 42.495
24.6631 42.7266
24.8458 42.1089
25.0286 42.5506
25.2114 44.0167
25.3943 44.4735
25.5773 41.5394
25.7605 40.3554
25.9436 40.6273
26.1268 40.9854
26.31 40.7241
26.4933 40.6056
26.6767 41.426
26.8601 40.9966
27.0437 39.2811
27.2272 38.5981
27.4109 38.2124
27.5946 38.3128
27.7784 38.2308
27.9623 38.1482
28.1462 38.952
28.3304 37.6624
28.5145 36.0024
28.6987 35.6939
28.8829 35.2533
29.0673 34.8758
29.2517 34.1901
29.4361 33.9975
29.6207 33.2757
29.8053 32.8096
29.99 32.5267
30.1748 32.2195
30.3597 32.3424
30.5447 32.0091
30.7297 32.0367
30.915 31.9478
31.1002 31.197
31.2855 30.9463
31.4708 30.6469
31.6563 30.5464
31.8418 30.1576
32.0275 29.804
32.2132 29.4556
32.399 28.9019
32.5848 28.5172
32.7708 28.1416
32.9569 28.0704
33.143 27.5979
33.3293 27.4031
33.5158 27.0909
33.7022 26.5746
33.8887 26.2719
34.0753 25.9537
34.262 25.6321
34.4488 25.3484
34.6357 24.8681
34.8227 24.5788
35.0098 24.4014
35.1969 24.1528
35.3842 23.9034
35.5716 23.7706
35.759 23.4659
35.9468 23.118
36.1345 22.832
36.3222 22.7376
36.5101 22.3656
36.6981 22.1131
36.8861 21.7659
37.0743 21.4273
37.2626 21.2774
37.451 20.9683
37.6395 20.7886
37.8281 20.49
38.0168 20.1638
38.2056 19.9428
38.3945 19.713
38.5837 19.408
38.7728 19.1879
38.9621 18.9444
39.1514 18.6341
39.3409 18.3946
39.5304 18.2416
39.7201 18.0164
39.9099 17.8332
40.0999 17.5709
40.2899 17.3247
40.48 17.12
40.6703 16.8794
40.8607 16.6763
41.0512 16.4616
41.242 16.1714
41.4327 16.0161
41.6236 15.7857
41.8146 15.6086
42.0057 15.3742
42.1969 15.1349
42.3882 14.9873
42.5797 14.7981
42.7713 14.6453
42.963 14.4158
43.1549 14.1949
43.3468 13.9585
43.5389 13.8129
43.7312 13.5787
43.9237 13.4219
44.1162 13.2714
44.3088 13.0184
44.5016 12.8227
44.6945 12.7061
44.8875 12.4802
45.0806 12.3622
45.2739 12.2055
45.4673 11.99
45.6609 11.8187
45.8546 11.6991
46.0484 11.4807
46.2424 11.3165
46.4365 11.1857
46.631 11.0144
46.8254 10.8076
47.0199 10.6735
47.2146 10.5199
47.4095 10.3755
47.6044 10.224
47.7996 10.0757
47.9948 9.90382
48.1902 9.77921
48.3858 9.63554
48.5815 9.52045
48.7774 9.36352
48.9734 9.23177
49.1696 9.10247
49.3661 8.9321
49.5626 8.78266
49.7592 8.67868
49.956 8.54389
50.153 8.41633
50.3501 8.25392
50.5474 8.17388
50.7448 8.03836
50.9424 7.90786
51.1402 7.7947
51.3381 7.65679
51.5362 7.5398
51.7344 7.38446
51.9328 7.31295
52.1316 7.15207
52.3304 7.05153
52.5293 6.94874
52.7284 6.84621
52.9276 6.69918
53.1271 6.62478
53.3267 6.48554
53.5265 6.39511
53.7264 6.22828
53.9266 6.1425
54.1269 6.01873
54.3274 5.9111
54.528 5.74771
54.7289 5.56616
54.9301 5.39414
55.1314 5.25895
55.3328 4.97896
55.5344 4.8618
55.7361 4.69651

File: Ni3Fe_FD0123.xy
TT I
1.27165 8.37747
1.45013 6.94715
1.62863 6.51304
1.80712 5.65602
1.98562 5.52505
2.16411 4.98708
2.34263 4.64979
2.52115 4.40152
2.69965 6.17979
2.87818 7.81763
3.05672 10.9873
3.23527 14.8315
3.4138 18.7606
3.59237 21.4001
3.77094 25.2649
3.9495 28.246
4.12809 32.6294
4.30669 37.5213
4.4853 44.3645
4.6639 53.4086
4.84253 65.4001
5.02118 90.7943
5.19981 586.567
5.37848 533.799
5.55716 108.366
5.73586 95.4144
5.91455 106.739
6.09328 2499.92
6.27201 90.7706
6.45075 66.2176
6.62952 59.1527
6.8083 54.9246
6.98711 52.939
7.16591 51.7713
7.34475 51.8292
7.5236 56.2481
7.70247 53.2458
7.88135 55.5781
8.06026 60.0209
8.23919 67.3616
8.41812 83.5545
8.59709 836.538
8.77609 119.801
8.9551 84.5814
9.13412 80.7199
9.31318 88.3357
9.49226 83.1711
9.67134 87.6102
9.85047 98.0784
10.0296 558.626
10.2088 1076.78
10.388 104.43
10.5672 304.304
10.7465 91.6343
10.9257 75.235
11.105 69.3446
11.2844 65.6332
11.4637 62.4749
11.6431 61.5251
11.8225 60.5346
12.002 66.0164
12.1814 112.439
12.3609 76.8899
12.5405 62.5118
12.72 64.4382
12.8996 69.2365
13.0792 78.8467
13.2589 196.686
13.4386 227.324
13.6183 182.577
13.7981 165.631
13.9779 75.4558
14.1577 74.4476
14.3376 68.4119
14.5175 67.4421
14.6974 68.8715
14.8774 120.387
15.0574 206.423
15.2374 68.3999
15.4175 65.5366
15.5976 65.1599
15.7778 107.419
15.958 183.926
16.1382 61.5128
16.3185 56.5805
16.4988 54.6203
16.6792 53.5088
16.8596 53.6311
17.04 54.7611
17.2205 64.3382
17.401 80.9732
17.5815 58.549
17.7622 60.7033
17.9428 83.815
18.1237 109.159
18.3044 87.7682
18.4852 97.2825
18.666 60.3098
18.8469 57.8169
19.0278 56.2145
19.2088 61.4782
19.3898 67.1884
19.5709 56.2819
19.752 52.6923
19.9332 57.8984
20.1144 65.7552
20.2957 60.3941
20.477 59.555
20.6586 49.3885
20.84 48.6814
21.0215 48.5947
21.203 49.0489
21.3846 50.2177
21.5662 48.3798
21.7479 53.5616
21.9297 60.8115
22.1115 56.1234
22.2933 52.573
22.4753 48.4353
22.6572 48.6494
22.8393 51.4431
23.0214 56.0555
23.2037 49.7121
23.3859 51.583
23.5682 52.6611
23.7505 53.7457
23.9329 45.2104
24.1154 44.0251
24.2979 43.2315
24.4805 42.5914
24.6631 42.8114
24.8458 42.0398
25.0286 42.7568
25.2114 44.0117
25.3943 44.3271
25.5773 41.5028
25.7605 40.4085
25.9436 40.689
26.1268 41.1761
26.31 40.8009
26.4933 40.5351
26.6767 41.6153
26.8601 41.1031
27.0437 39.1154
27.2272 38.5941
27.4109 38.2727
27.5946 38.5047
27.7784 38.3532
27.9623 38.0872
28.1462 39.0024
28.3304 37.7764
28.5145 36.0441
28.6987 35.5912
28.8829 35.1878
29.0673 34.9876
29.2517 34.3824
29.4361 33.9567
29.6207 33.3415
29.8053 32.8258
29.99 32.507
30.1748 32.2367
30.3597 32.304
30.5447 32.1287
30.7297 32.0378
30.915 31.8549
31.1002 31.2341
31.2855 30.9896
31.4708 30.753
31.6563 30.6349
31.8418 30.1619
32.0275 29.9009
32.2132 29.5827
32.399 28.9819
32.5848 28.5616
32.7708 28.1131
32.9569 28.0285
33.143 27.6762
33.3293 27.4614
33.5158 27.0634
33.7022 26.6014
33.8887 26.321
34.0753 26.0263
34.262 25.6327
34.4488 25.2548
34.6357 24.9136
34.8227 24.7
35.0098 24.4298
35.1969 24.1186
35.3842 23.9151
35.5716 23.7872
35.759 23.5764
35.9468 23.0926
36.1345 22.9298
36.3222 22.6903
36.5101 22.3884
36.6981 22.1574
36.8861 21.8238
37.0743 21.497
37.2626 21.2672
37.451 20.9702
37.6395 20.7869
37.8281 20.4188
38.0168 20.2646
38.2056 19.9214
38.3945 19.6779
38.5837 19.4603
38.7728 19.1905
38.9621 18.8921
39.1514 18.5878
39.3409 18.4218
39.5304 18.2598
39.7201 18.0394
39.9099 17.8346
40.0999 17.586
40.2899 17.3055
40.48 17.1172
40.6703 16.9015
40.8607 16.7348
41.0512 16.4875
41.242 16.2241
41.4327 16.0954
41.6236 15.8124
41.8146 15.6389
42.0057 15.3851
42.1969 15.186
42.3882 15.0522
42.5797 14.8344
42.7713 14.6087
42.963 14.4247
43.1549 14.1763
43.3468 14.0561
43.5389 13.799
43.7312 13.6647
43.9237 13.4391
44.1162 13.2573
44.3088 13.0797
44.5016 12.8829
44.6945 12.7402
44.8875 12.5235
45.0806 12.3261
45.2739 12.1685
45.4673 12.0027
45.6609 11.836
45.8546 11.7219
46.0484 11.4856
46.2424 11.3342
46.4365 11.1845
46.631 10.9938
46.8254 10.8369
47.0199 10.6825
47.2146 10.5698
47.4095 10.3595
47.6044 10.2368
47.7996 10.0664
47.9948 9.91068
48.1902 9.8026
48.3858 9.66718
48.5815 9.51256
48.7774 9.35686
48.9734 9.24863
49.1696 9.09975
49.3661 8.95592
49.5626 8.81317
49.7592 8.6814
49.956 8.58644
50.153 8.47032
50.3501 8.29814
50.5474 8.18478
50.7448 8.11093
50.9424 7.93319
51.1402 7.79809
51.3381 7.65495
51.5362 7.56754
51.7344 7.44675
51.9328 7.30427
52.1316 7.20242
52.3304 7.07608
52.5293 6.95247
52.7284 6.8519
52.9276 6.69065
53.1271 6.60987
53.3267 6.52445
53.5265 6.38226
53.7264 6.28219
53.9266 6.16929
54.1269 6.04734
54.3274 5.93642
54.528 5.74603
54.7289 5.58051
54.9301 5.39186
55.1314 5.22142
55.3328 5.04134
55.5344 4.85917
55.7361 4.76279

File: Ni3Fe_FD0124.xy
TT I
1.27165 8.40555
1.45013 6.5033
1.62863 5.52239
1.80712 5.31291
1.98562 4.99354
2.16411 4.72215
2.34263 4.36668
2.52115 4.2746
2.69965 5.02363
2.87818 7.93873
3.05672 10.913
3.23527 15.1729
3.4138 18.6475
3.59237 21.5384
3.77094 25.0374
3.9495 28.6264
4.12809 32.3701
4.30669 37.1474
4.4853 44.9145
4.6639 53.3137
4.84253 65.6767
5.02118 90.9637
5.19981 590.81
5.37848 524.853
5.55716 108.6
5.73586 95.8164
5.91455 106.991
6.09328 2515.65
6.27201 90.6339
6.45075 66.2109
6.62952 59.511
6.8083 55.3204
6.98711 53.2336
7.16591 52.1192
7.34475 51.4283
7.5236 56.5626
7.70247 53.5516
7.88135 55.8592
8.06026 60.2892
8.23919 67.6571
8.41812 83.3608
8.59709 839.745
8.77609 119.612
8.9551 84.5938
9.13412 81.0406
9.31318 88.5785
9.49226 82.751
9.67134 88.0106
9.85047 98.0954
10.0296 560.252
10.2088 1058.36
10.388 104.149
10.5672 306.05
10.7465 91.3562
10.9257 75.4838
11.105 69.684
11.2844 65.6932
11.4637 62.845
11.6431 61.5022
11.8225 60.9189
12.002 66.3131
12.1814 112.543
12.3609 77.1784
12.5405 62.6745
12.72 64.5695
12.8996 69.0187
13.0792 78.9441
13.2589 197.305
13.4386 224.589
13.6183 183.263
13.7981 164.053
13.9779 75.4574
14.1577 74.6388
14.3376 68.3969
14.5175 67.7149
14.6974 69.1309
14.8774 120.383
15.0574 205.663
15.2374 68.5802
15.4175 65.4871
15.5976 64.9879
15.7778 107.28
15.958 183.637
16.1382 61.7237
16.3185 56.8326
16.4988 54.5547
16.6792 53.6886
16.8596 53.8926
17.04 54.9118
17.2205 64.4511
17.401 81.0613
17.5815 58.5943
17.7622 60.9078
17.9428 84.0741
18.1237 109.323
18.3044 87.7431
18.4852 96.802
18.666 60.5908
18.8469 57.6447
19.0278 56.3148
19.2088 61.3434
19.3898 67.3806
19.5709 56.2543
19.752 52.8466
19.9332 57.9216
20.1144 65.6138
20.2957 60.4111
20.477 59.4978
20.6586 49.3659
20.84 48.7662
21.0215 48.6058
21.203 49.1717
21.3846 50.3832
21.5662 48.5827
21.7479 53.7185
21.9297 60.659
22.1115 55.9819
22.2933 52.3471
22.4753 48.4506
22.6572 48.6474
22.8393 51.4343
23.0214 56.0766
23.2037 49.6441
23.3859 51.6488
23.5682 52.6342
23.7505 53.6136
23.9329 45.3597
24.1154 44.0441
24.2979 43.2946
24.4805 42.6098
24.6631 42.7607
24.8458 42.2255
25.0286 42.6829
25.2114 43.9563
25.3943 44.3319
25.5773 41.5663
25.7605 40.5769
25.9436 40.6915
26.1268 41.2205
26.31 40.7472
26.4933 40.5725
26.6767 41.5431
26.8601 41.0681
27.0437 39.2878
27.2272 38.7022
27.4109 38.3698
27.5946 38.51
27.7784 38.2473
27.9623 38.3229
28.1462 38.998
28.3304 37.758
28.5145 36.1738
28.6987 35.8013
28.8829 35.1413
29.0673 34.9503
29.2517 34.2637
29.4361 33.9833
29.6207 33.4168
29.8053 32.8235
29.99 32.5171
30.1748 32.2224
30.3597 32.4312
30.5447 32.1238
30.7297 32.1262
30.915 31.8653
31.1002 31.1751
31.2855 30.8626
31.4708 30.7357
31.6563 30.6908
31.8418 30.0858
32.0275 29.9917
32.2132 29.5585
32.399 28.8717
32.5848 28.4927
32.7708 28.1774
32.9569 28.0093
33.143 27.7485
33.3293 27.4932
33.5158 27.1172
33.7022 26.5934
33.8887 26.2405
34.0753 26.0608
34.262 25.6063
34.4488 25.3147
34.6357 24.9176
34.8227 24.6928
35.0098 24.3661
35.1969 24.1231
35.3842 23.9193
35.5716 23.7932
35.759 23.4952
35.9468 23.1265
36.1345 22.8651
36.3222 22.6303
36.5101 22.4117
36.6981 22.1138
36.8861 21.8179
37.0743 21.5628
37.2626 21.1904
37.451 20.9722
37.6395 20.7549
37.8281 20.5563
38.0168 20.1837
38.2056 19.9728
38.3945 19.6987
38.5837 19.4315
38.7728 19.1223
38.9621 19.0262
39.1514 18.6891
39.3409 18.4191
39.5304 18.1591
39.7201 17.9956
39.9099 17.8134
40.0999 17.5254
40.2899 17.3973
40.48 17.0879
40.6703 16.9367
40.8607 16.773
41.0512 16.4013
41.242 16.2615
41.4327 16.0944
41.6236 15.8254
41.8146 15.6719
42.0057 15.3917
42.1969 15.1801
42.3882 14.9872
42.5797 14.8229
42.7713 14.5898
42.963 14.4374
43.1549 14.2391
43.3468 14.0124
43.5389 13.7933
43.7312 13.6216
43.9237 13.4104
44.1162 13.2659
44.3088 13.0555
44.5016 12.8904
44.6945 12.7197
44.8875 12.534
45.0806 12.3598
45.2739 12.2029
45.4673 12.0237
45.6609 11.7828
45.8546 11.665
46.0484 11.5206
46.2424 11.3268
46.4365 11.1739
46.631 11.0423
46.8254 10.8698
47.0199 10.6871
47.2146 10.542
47.4095 10.3594
47.6044 10.2011
47.7996 10.0707
47.9948 9.92603
48.1902 9.77197
48.3858 9.63955
48.5815 9.47873
48.7774 9.36309
48.9734 9.25562
49.1696 9.08164
49.3661 8.95687
49.5626 8.79007
49.7592 8.69732
49.956 8.59014
50.153 8.40801
50.3501 8.29401
50.5474 8.16716
50.7448 8.04814
50.9424 7.92532
51.1402 7.80751
51.3381 7.64874
51.5362 7.55254
51.7344 7.40072
51.9328 7.30109
52.1316 7.21141
52.3304 7.08141
52.5293 6.94439
52.7284 6.82783
52.9276 6.73175
53.1271 6.62183
53.3267 6.53262
53.5265 6.38846
53.7264 6.27712
53.9266 6.16199
54.1269 6.03107
54.3274 5.94727
54.528 5.76013
54.7289 5.59226
54.9301 5.36453
55.1314 5.2581
55.3328 5.07252
55.5344 4.86024
55.7361 4.74177