Folder: NiFe_MOF_catalyst_paper/XRD (part 69)

File: Ni3Fe_FD0362.xy
TT I
1.27165 7.5766
1.45013 6.68149
1.62863 5.55663
1.80712 4.93973
1.98562 5.03615
2.16411 4.39864
2.34263 5.09844
2.52115 6.36096
2.69965 7.30063
2.87818 7.52539
3.05672 11.4772
3.23527 14.9372
3.4138 19.1854
3.59237 23.145
3.77094 26.1603
3.9495 30.1953
4.12809 34.5545
4.30669 113.337
4.4853 55.2947
4.6639 57.1804
4.84253 69.9405
5.02118 92.0193
5.19981 618.594
5.37848 221.098
5.55716 106.686
5.73586 96.7611
5.91455 102.049
6.09328 4004.31
6.27201 85.5966
6.45075 69.2947
6.62952 63.7697
6.8083 59.7532
6.98711 56.5384
7.16591 56.6526
7.34475 71.1422
7.5236 55.7337
7.70247 57.5967
7.88135 58.9979
8.06026 63.9643
8.23919 71.2323
8.41812 88.1195
8.59709 1196.36
8.77609 104.722
8.9551 90.9883
9.13412 84.6489
9.31318 85.9131
9.49226 87.2547
9.67134 96.9347
9.85047 103.584
10.0296 446.504
10.2088 450.176
10.388 110.015
10.5672 487.747
10.7465 89.3293
10.9257 79.5387
11.105 73.7707
11.2844 70.7503
11.4637 66.6057
11.6431 65.1827
11.8225 64.068
12.002 66.554
12.1814 151.533
12.3609 69.4099
12.5405 66.329
12.72 70.2013
12.8996 73.0532
13.0792 83.3663
13.2589 247.77
13.4386 131.937
13.6183 245.253
13.7981 101.791
13.9779 78.1913
14.1577 73.9072
14.3376 72.5404
14.5175 71.037
14.6974 72.9057
14.8774 120.808
15.0574 151.969
15.2374 71.6484
15.4175 68.376
15.5976 68.2437
15.7778 103.508
15.958 161.479
16.1382 63.2436
16.3185 59.6543
16.4988 57.0306
16.6792 56.0834
16.8596 56.3794
17.04 57.9539
17.2205 69.1307
17.401 73.2523
17.5815 60.966
17.7622 63.2101
17.9428 79.1255
18.1237 139.318
18.3044 91.8216
18.4852 78.8184
18.666 62.2284
18.8469 59.6852
19.0278 58.6449
19.2088 62.0218
19.3898 76.8923
19.5709 55.6059
19.752 54.8809
19.9332 58.5909
20.1144 71.41
20.2957 64.4936
20.477 55.2094
20.6586 50.9985
20.84 50.3708
21.0215 50.0814
21.203 52.0761
21.3846 50.3148
21.5662 50.4593
21.7479 54.8835
21.9297 66.0622
22.1115 57.1224
22.2933 51.3043
22.4753 49.8648
22.6572 50.6004
22.8393 53.6526
23.0214 58.91
23.2037 50.2151
23.3859 51.7731
23.5682 57.5511
23.7505 49.5741
23.9329 46.6692
24.1154 45.373
24.2979 44.6563
24.4805 44.1189
24.6631 44.0747
24.8458 43.4838
25.0286 44.2526
25.2114 45.8953
25.3943 45.8642
25.5773 42.0354
25.7605 41.6482
25.9436 42.0271
26.1268 42.9551
26.31 41.3206
26.4933 41.908
26.6767 43.2694
26.8601 41.5289
27.0437 40.0446
27.2272 39.6976
27.4109 39.4373
27.5946 39.5025
27.7784 39.0777
27.9623 39.5305
28.1462 39.9406
28.3304 38.2913
28.5145 37.0155
28.6987 36.7152
28.8829 36.2867
29.0673 35.7272
29.2517 35.216
29.4361 34.9519
29.6207 34.1227
29.8053 33.84
29.99 33.4493
30.1748 33.1904
30.3597 33.243
30.5447 33.0744
30.7297 33.1166
30.915 32.5023
31.1002 32.0574
31.2855 31.8126
31.4708 31.6474
31.6563 31.1974
31.8418 30.9867
32.0275 30.7804
32.2132 30.2377
32.399 29.6352
32.5848 29.1894
32.7708 28.9682
32.9569 28.8196
33.143 28.5685
33.3293 28.1681
33.5158 27.771
33.7022 27.3303
33.8887 27.0514
34.0753 26.7557
34.262 26.3401
34.4488 25.98
34.6357 25.6162
34.8227 25.3298
35.0098 25.1411
35.1969 24.8754
35.3842 24.6414
35.5716 24.401
35.759 24.1063
35.9468 23.6903
36.1345 23.5434
36.3222 23.3209
36.5101 23.0072
36.6981 22.7049
36.8861 22.3638
37.0743 22.0364
37.2626 21.7808
37.451 21.5805
37.6395 21.4083
37.8281 21.0082
38.0168 20.7506
38.2056 20.519
38.3945 20.225
38.5837 19.9895
38.7728 19.6662
38.9621 19.4162
39.1514 19.1695
39.3409 18.9898
39.5304 18.7025
39.7201 18.5394
39.9099 18.3226
40.0999 18.0771
40.2899 17.8408
40.48 17.5663
40.6703 17.4084
40.8607 17.1728
41.0512 16.9904
41.242 16.6968
41.4327 16.4592
41.6236 16.2848
41.8146 16.0606
42.0057 15.8522
42.1969 15.5954
42.3882 15.4308
42.5797 15.1548
42.7713 14.9939
42.963 14.7454
43.1549 14.6078
43.3468 14.4219
43.5389 14.163
43.7312 14.002
43.9237 13.8032
44.1162 13.6074
44.3088 13.45
44.5016 13.2455
44.6945 13.0566
44.8875 12.9056
45.0806 12.6733
45.2739 12.5724
45.4673 12.3317
45.6609 12.1726
45.8546 12.0259
46.0484 11.8276
46.2424 11.6467
46.4365 11.5388
46.631 11.3108
46.8254 11.1714
47.0199 10.9311
47.2146 10.8274
47.4095 10.6716
47.6044 10.4571
47.7996 10.3151
47.9948 10.1847
48.1902 10.0409
48.3858 9.9182
48.5815 9.74314
48.7774 9.58289
48.9734 9.47659
49.1696 9.3024
49.3661 9.22216
49.5626 9.04493
49.7592 8.93753
49.956 8.77301
50.153 8.65083
50.3501 8.531
50.5474 8.35962
50.7448 8.2723
50.9424 8.11076
51.1402 8.00238
51.3381 7.83943
51.5362 7.73694
51.7344 7.59484
51.9328 7.48584
52.1316 7.37164
52.3304 7.2071
52.5293 7.10451
52.7284 6.99817
52.9276 6.88462
53.1271 6.75806
53.3267 6.62537
53.5265 6.54268
53.7264 6.40259
53.9266 6.32092
54.1269 6.20075
54.3274 6.07395
54.528 5.93709
54.7289 5.78835
54.9301 5.612
55.1314 5.49718
55.3328 5.23098
55.5344 5.08156
55.7361 4.91515

File: Ni3Fe_FD0363.xy
TT I
1.27165 7.80822
1.45013 6.71543
1.62863 5.48613
1.80712 4.80063
1.98562 4.45046
2.16411 4.82608
2.34263 5.21245
2.52115 5.73954
2.69965 7.53517
2.87818 7.90943
3.05672 11.0779
3.23527 15.1851
3.4138 18.5829
3.59237 23.2676
3.77094 26.0763
3.9495 30.0057
4.12809 34.5824
4.30669 112.059
4.4853 54.9147
4.6639 57.1827
4.84253 70.0704
5.02118 91.5115
5.19981 615.332
5.37848 220.931
5.55716 106.226
5.73586 96.5816
5.91455 101.775
6.09328 4063.67
6.27201 85.247
6.45075 69.6433
6.62952 63.7209
6.8083 60.0929
6.98711 56.7295
7.16591 56.4674
7.34475 70.6368
7.5236 55.2737
7.70247 57.2897
7.88135 58.9614
8.06026 63.9773
8.23919 71.1799
8.41812 87.3903
8.59709 1190.28
8.77609 104.115
8.9551 91.2344
9.13412 84.8143
9.31318 85.7736
9.49226 87.2947
9.67134 96.4863
9.85047 103.579
10.0296 445.366
10.2088 455.232
10.388 110.454
10.5672 482.361
10.7465 89.1279
10.9257 79.6594
11.105 73.2617
11.2844 70.5041
11.4637 66.5018
11.6431 65.2856
11.8225 63.8145
12.002 66.5988
12.1814 151.323
12.3609 69.6674
12.5405 66.1383
12.72 69.7719
12.8996 73.1104
13.0792 82.9486
13.2589 247.738
13.4386 132.772
13.6183 245.152
13.7981 101.84
13.9779 78.0064
14.1577 74.0656
14.3376 72.3012
14.5175 70.8893
14.6974 72.8524
14.8774 120.588
15.0574 152.349
15.2374 71.5913
15.4175 68.2244
15.5976 68.2595
15.7778 103.849
15.958 161.446
16.1382 63.3167
16.3185 59.4919
16.4988 56.8071
16.6792 55.8673
16.8596 56.3925
17.04 57.9788
17.2205 69.0868
17.401 73.2495
17.5815 60.9143
17.7622 63.2276
17.9428 79.2755
18.1237 139.764
18.3044 91.7195
18.4852 79.138
18.666 62.0796
18.8469 59.4708
19.0278 58.398
19.2088 61.7542
19.3898 76.8367
19.5709 55.8447
19.752 54.8923
19.9332 58.4699
20.1144 71.4139
20.2957 64.4737
20.477 55.1378
20.6586 50.8617
20.84 50.2378
21.0215 50.0316
21.203 52.0372
21.3846 50.4695
21.5662 50.7438
21.7479 54.7248
21.9297 65.8974
22.1115 57.178
22.2933 51.1102
22.4753 50.1074
22.6572 50.4991
22.8393 53.5618
23.0214 58.7564
23.2037 50.253
23.3859 51.5868
23.5682 57.5983
23.7505 49.5485
23.9329 46.4885
24.1154 45.3454
24.2979 44.6555
24.4805 44.1767
24.6631 43.8531
24.8458 43.4828
25.0286 44.2123
25.2114 46.0283
25.3943 45.8183
25.5773 42.1576
25.7605 41.6195
25.9436 41.949
26.1268 42.773
26.31 41.3633
26.4933 41.8413
26.6767 43.268
26.8601 41.5036
27.0437 40.0016
27.2272 39.6037
27.4109 39.5586
27.5946 39.4196
27.7784 38.9868
27.9623 39.4787
28.1462 39.7984
28.3304 38.2287
28.5145 37.0202
28.6987 36.5762
28.8829 36.3846
29.0673 35.646
29.2517 35.2984
29.4361 35.0708
29.6207 34.0724
29.8053 33.7306
29.99 33.4239
30.1748 33.4009
30.3597 33.1698
30.5447 33.0
30.7297 33.0806
30.915 32.4092
31.1002 31.9932
31.2855 31.6367
31.4708 31.5956
31.6563 31.1827
31.8418 30.887
32.0275 30.7293
32.2132 30.2065
32.399 29.7571
32.5848 29.3418
32.7708 28.9187
32.9569 28.7978
33.143 28.4747
33.3293 28.1358
33.5158 27.62
33.7022 27.2985
33.8887 27.0717
34.0753 26.6691
34.262 26.2024
34.4488 26.003
34.6357 25.6883
34.8227 25.3376
35.0098 25.167
35.1969 24.8634
35.3842 24.5901
35.5716 24.4668
35.759 24.0257
35.9468 23.7435
36.1345 23.4682
36.3222 23.244
36.5101 23.0247
36.6981 22.7237
36.8861 22.342
37.0743 22.0461
37.2626 21.8623
37.451 21.4689
37.6395 21.3728
37.8281 21.0265
38.0168 20.7888
38.2056 20.4382
38.3945 20.2047
38.5837 19.9644
38.7728 19.6843
38.9621 19.5255
39.1514 19.1651
39.3409 18.9883
39.5304 18.745
39.7201 18.4729
39.9099 18.298
40.0999 18.0738
40.2899 17.7947
40.48 17.5715
40.6703 17.3576
40.8607 17.1557
41.0512 16.9759
41.242 16.62
41.4327 16.4613
41.6236 16.2329
41.8146 16.0088
42.0057 15.8094
42.1969 15.6313
42.3882 15.3912
42.5797 15.2366
42.7713 14.9744
42.963 14.763
43.1549 14.5971
43.3468 14.3681
43.5389 14.2033
43.7312 13.9804
43.9237 13.8101
44.1162 13.6013
44.3088 13.4054
44.5016 13.1632
44.6945 13.0357
44.8875 12.8339
45.0806 12.6787
45.2739 12.4919
45.4673 12.3497
45.6609 12.1495
45.8546 11.9678
46.0484 11.8138
46.2424 11.6505
46.4365 11.4939
46.631 11.3121
46.8254 11.1189
47.0199 10.9254
47.2146 10.8116
47.4095 10.6704
47.6044 10.4748
47.7996 10.3243
47.9948 10.2012
48.1902 10.0034
48.3858 9.93615
48.5815 9.76589
48.7774 9.63583
48.9734 9.44138
49.1696 9.32033
49.3661 9.18914
49.5626 9.01836
49.7592 8.89626
49.956 8.75543
50.153 8.66685
50.3501 8.52792
50.5474 8.36837
50.7448 8.23785
50.9424 8.13369
51.1402 7.96827
51.3381 7.8549
51.5362 7.73321
51.7344 7.60565
51.9328 7.4646
52.1316 7.36029
52.3304 7.2331
52.5293 7.10191
52.7284 7.00981
52.9276 6.8794
53.1271 6.80707
53.3267 6.67495
53.5265 6.53175
53.7264 6.41006
53.9266 6.3391
54.1269 6.19659
54.3274 6.09136
54.528 5.95068
54.7289 5.79156
54.9301 5.59303
55.1314 5.45537
55.3328 5.21351
55.5344 5.0359
55.7361 4.91286

File: Ni3Fe_FD0364.xy
TT I
1.27165 7.77541
1.45013 6.24654
1.62863 4.82076
1.80712 4.96243
1.98562 5.38324
2.16411 4.49391
2.34263 4.6637
2.52115 6.36078
2.69965 6.94928
2.87818 8.07771
3.05672 10.9914
3.23527 14.9993
3.4138 18.8765
3.59237 23.2069
3.77094 26.3711
3.9495 29.5761
4.12809 35.0528
4.30669 111.054
4.4853 55.396
4.6639 56.945
4.84253 69.721
5.02118 91.7445
5.19981 619.065
5.37848 221.004
5.55716 106.704
5.73586 96.4711
5.91455 102.316
6.09328 4050.1
6.27201 85.1537
6.45075 69.6106
6.62952 63.6617
6.8083 59.8011
6.98711 56.9282
7.16591 56.5248
7.34475 70.2434
7.5236 55.8385
7.70247 57.6301
7.88135 59.0659
8.06026 63.9172
8.23919 71.2486
8.41812 87.8162
8.59709 1195.76
8.77609 103.887
8.9551 91.0769
9.13412 84.6738
9.31318 85.7452
9.49226 87.2341
9.67134 96.9849
9.85047 103.877
10.0296 446.821
10.2088 451.271
10.388 110.47
10.5672 483.351
10.7465 89.5664
10.9257 79.6349
11.105 73.0735
11.2844 70.2294
11.4637 66.3906
11.6431 65.4189
11.8225 64.1577
12.002 66.4188
12.1814 151.764
12.3609 69.8077
12.5405 66.169
12.72 69.7196
12.8996 73.2105
13.0792 83.1487
13.2589 248.203
13.4386 132.135
13.6183 245.677
13.7981 102.183
13.9779 78.1547
14.1577 73.9047
14.3376 72.5321
14.5175 71.0361
14.6974 72.6537
14.8774 120.427
15.0574 152.339
15.2374 71.3732
15.4175 68.558
15.5976 68.1196
15.7778 103.776
15.958 161.498
16.1382 63.2889
16.3185 59.5436
16.4988 56.8482
16.6792 55.9751
16.8596 56.328
17.04 57.8325
17.2205 69.1929
17.401 73.0296
17.5815 60.6949
17.7622 63.2529
17.9428 79.2775
18.1237 139.634
18.3044 91.8048
18.4852 78.9942
18.666 62.1182
18.8469 59.596
19.0278 58.4151
19.2088 61.8811
19.3898 76.7776
19.5709 55.7263
19.752 54.6955
19.9332 58.7029
20.1144 71.3764
20.2957 64.3229
20.477 54.9631
20.6586 51.0662
20.84 50.15
21.0215 50.1456
21.203 52.1031
21.3846 50.4119
21.5662 50.3771
21.7479 54.8317
21.9297 66.1355
22.1115 57.0253
22.2933 51.3618
22.4753 50.1386
22.6572 50.5706
22.8393 53.7489
23.0214 58.9458
23.2037 50.2489
23.3859 51.5409
23.5682 57.741
23.7505 49.6333
23.9329 46.6157
24.1154 45.3007
24.2979 44.5231
24.4805 44.1493
24.6631 44.047
24.8458 43.4848
25.0286 44.2031
25.2114 45.8499
25.3943 45.8151
25.5773 42.0877
25.7605 41.7734
25.9436 41.9928
26.1268 42.7971
26.31 41.4121
26.4933 41.8066
26.6767 43.3472
26.8601 41.5923
27.0437 40.0238
27.2272 39.7322
27.4109 39.5916
27.5946 39.5801
27.7784 38.9907
27.9623 39.3899
28.1462 39.6898
28.3304 38.3272
28.5145 37.0664
28.6987 36.69
28.8829 36.3633
29.0673 35.7273
29.2517 35.2264
29.4361 35.0885
29.6207 34.0684
29.8053 33.8094
29.99 33.4868
30.1748 33.3794
30.3597 33.064
30.5447 33.1379
30.7297 32.9992
30.915 32.4845
31.1002 31.965
31.2855 31.669
31.4708 31.6196
31.6563 31.1108
31.8418 30.9635
32.0275 30.6082
32.2132 30.2142
32.399 29.7658
32.5848 29.3096
32.7708 28.9769
32.9569 28.6997
33.143 28.4831
33.3293 28.0883
33.5158 27.7375
33.7022 27.3735
33.8887 27.0922
34.0753 26.7379
34.262 26.3268
34.4488 25.9916
34.6357 25.6179
34.8227 25.3491
35.0098 25.1917
35.1969 24.8659
35.3842 24.6304
35.5716 24.3935
35.759 24.114
35.9468 23.7607
36.1345 23.5246
36.3222 23.2222
36.5101 22.9621
36.6981 22.73
36.8861 22.3853
37.0743 21.9881
37.2626 21.8408
37.451 21.5136
37.6395 21.3724
37.8281 21.0065
38.0168 20.7747
38.2056 20.4923
38.3945 20.1543
38.5837 20.0064
38.7728 19.7485
38.9621 19.4761
39.1514 19.2681
39.3409 18.9947
39.5304 18.7652
39.7201 18.5706
39.9099 18.3245
40.0999 18.0824
40.2899 17.8212
40.48 17.5107
40.6703 17.3498
40.8607 17.1517
41.0512 16.9085
41.242 16.6153
41.4327 16.5001
41.6236 16.204
41.8146 16.0098
42.0057 15.8308
42.1969 15.5806
42.3882 15.4438
42.5797 15.2359
42.7713 15.0525
42.963 14.8015
43.1549 14.5965
43.3468 14.3325
43.5389 14.2092
43.7312 13.9786
43.9237 13.8144
44.1162 13.6121
44.3088 13.4099
44.5016 13.2544
44.6945 13.0296
44.8875 12.8475
45.0806 12.6837
45.2739 12.5412
45.4673 12.3315
45.6609 12.1114
45.8546 12.0013
46.0484 11.8177
46.2424 11.6654
46.4365 11.4803
46.631 11.322
46.8254 11.1247
47.0199 10.9477
47.2146 10.8093
47.4095 10.6665
47.6044 10.5369
47.7996 10.3294
47.9948 10.1725
48.1902 10.0294
48.3858 9.93673
48.5815 9.76337
48.7774 9.63125
48.9734 9.4636
49.1696 9.30984
49.3661 9.19326
49.5626 9.03031
49.7592 8.90136
49.956 8.78794
50.153 8.65879
50.3501 8.51391
50.5474 8.38519
50.7448 8.23324
50.9424 8.15001
51.1402 8.02016
51.3381 7.83423
51.5362 7.71772
51.7344 7.60529
51.9328 7.46329
52.1316 7.33385
52.3304 7.22766
52.5293 7.12787
52.7284 6.98657
52.9276 6.87735
53.1271 6.76554
53.3267 6.66079
53.5265 6.51783
53.7264 6.43061
53.9266 6.29378
54.1269 6.21529
54.3274 6.03773
54.528 5.9013
54.7289 5.69625
54.9301 5.60854
55.1314 5.471
55.3328 5.28174
55.5344 5.13406
55.7361 4.90175

File: Ni3Fe_FD0365.xy
TT I
1.27165 7.45525
1.45013 6.17629
1.62863 5.47053
1.80712 5.34348
1.98562 4.64061
2.16411 3.82944
2.34263 4.37037
2.52115 5.86923
2.69965 7.45805
2.87818 8.29402
3.05672 10.6535
3.23527 14.8913
3.4138 18.8409
3.59237 23.4018
3.77094 26.33
3.9495 29.9225
4.12809 34.5587
4.30669 109.875
4.4853 55.0495
4.6639 56.5783
4.84253 70.1747
5.02118 92.0152
5.19981 619.039
5.37848 221.26
5.55716 106.845
5.73586 96.5594
5.91455 101.823
6.09328 4061.26
6.27201 84.9949
6.45075 69.4924
6.62952 63.5916
6.8083 59.9539
6.98711 56.7613
7.16591 56.5593
7.34475 70.0153
7.5236 55.4966
7.70247 57.3954
7.88135 59.0414
8.06026 64.0366
8.23919 71.3933
8.41812 87.4541
8.59709 1194.2
8.77609 103.847
8.9551 90.8122
9.13412 84.624
9.31318 86.0422
9.49226 87.3188
9.67134 96.6038
9.85047 103.808
10.0296 446.892
10.2088 454.306
10.388 109.958
10.5672 482.453
10.7465 89.0887
10.9257 79.6222
11.105 73.4065
11.2844 70.5003
11.4637 66.3642
11.6431 65.1886
11.8225 63.9745
12.002 66.5267
12.1814 151.941
12.3609 69.4351
12.5405 66.3444
12.72 69.8773
12.8996 73.1925
13.0792 83.2844
13.2589 248.274
13.4386 132.306
13.6183 245.283
13.7981 101.916
13.9779 77.9738
14.1577 74.0705
14.3376 72.4073
14.5175 71.0236
14.6974 72.7086
14.8774 120.561
15.0574 152.879
15.2374 71.589
15.4175 68.2652
15.5976 68.1122
15.7778 103.597
15.958 160.817
16.1382 63.1778
16.3185 59.5048
16.4988 56.9922
16.6792 55.8661
16.8596 56.3586
17.04 58.0883
17.2205 69.2656
17.401 73.2619
17.5815 61.007
17.7622 63.1878
17.9428 79.1401
18.1237 139.807
18.3044 91.8635
18.4852 79.1256
18.666 62.0454
18.8469 59.6729
19.0278 58.4557
19.2088 61.745
19.3898 76.9147
19.5709 55.6865
19.752 54.752
19.9332 58.4712
20.1144 71.4917
20.2957 64.4873
20.477 55.0928
20.6586 51.0076
20.84 50.1099
21.0215 50.052
21.203 51.8237
21.3846 50.4535
21.5662 50.5777
21.7479 54.8824
21.9297 66.094
22.1115 57.2736
22.2933 51.3039
22.4753 50.0744
22.6572 50.7408
22.8393 53.6903
23.0214 58.9201
23.2037 50.3819
23.3859 51.6592
23.5682 57.768
23.7505 49.6428
23.9329 46.4692
24.1154 45.2032
24.2979 44.6743
24.4805 43.9813
24.6631 43.9682
24.8458 43.5281
25.0286 44.2007
25.2114 46.0278
25.3943 45.8601
25.5773 41.9567
25.7605 41.6056
25.9436 41.973
26.1268 42.8374
26.31 41.2782
26.4933 41.9592
26.6767 43.2776
26.8601 41.5063
27.0437 40.0785
27.2272 39.6395
27.4109 39.4375
27.5946 39.3599
27.7784 39.0353
27.9623 39.3853
28.1462 39.813
28.3304 38.1483
28.5145 36.844
28.6987 36.6741
28.8829 36.2912
29.0673 35.5309
29.2517 35.1654
29.4361 34.9863
29.6207 34.0736
29.8053 33.7314
29.99 33.3797
30.1748 33.3449
30.3597 33.1401
30.5447 32.9639
30.7297 33.0772
30.915 32.3436
31.1002 31.9871
31.2855 31.6571
31.4708 31.5588
31.6563 31.1713
31.8418 30.9438
32.0275 30.7035
32.2132 30.265
32.399 29.6434
32.5848 29.1961
32.7708 28.9318
32.9569 28.7853
33.143 28.5414
33.3293 28.0324
33.5158 27.6417
33.7022 27.2678
33.8887 26.9837
34.0753 26.6157
34.262 26.2953
34.4488 26.027
34.6357 25.6064
34.8227 25.3483
35.0098 25.1964
35.1969 24.8103
35.3842 24.5867
35.5716 24.358
35.759 24.1234
35.9468 23.7758
36.1345 23.4857
36.3222 23.2341
36.5101 23.044
36.6981 22.6645
36.8861 22.3843
37.0743 22.0522
37.2626 21.8347
37.451 21.5458
37.6395 21.3803
37.8281 21.0167
38.0168 20.7636
38.2056 20.5184
38.3945 20.2028
38.5837 19.9428
38.7728 19.7136
38.9621 19.4881
39.1514 19.1517
39.3409 18.9424
39.5304 18.7046
39.7201 18.5298
39.9099 18.3374
40.0999 17.9982
40.2899 17.7855
40.48 17.6021
40.6703 17.3798
40.8607 17.1433
41.0512 16.8986
41.242 16.6772
41.4327 16.4805
41.6236 16.2454
41.8146 16.049
42.0057 15.7987
42.1969 15.579
42.3882 15.3657
42.5797 15.1904
42.7713 15.0075
42.963 14.767
43.1549 14.5425
43.3468 14.3266
43.5389 14.1764
43.7312 13.9493
43.9237 13.8013
44.1162 13.5904
44.3088 13.4351
44.5016 13.1889
44.6945 13.0463
44.8875 12.9312
45.0806 12.6958
45.2739 12.4808
45.4673 12.3089
45.6609 12.1507
45.8546 12.0045
46.0484 11.8144
46.2424 11.6146
46.4365 11.473
46.631 11.2687
46.8254 11.1226
47.0199 10.9329
47.2146 10.8378
47.4095 10.6302
47.6044 10.4902
47.7996 10.3268
47.9948 10.1752
48.1902 10.0361
48.3858 9.91845
48.5815 9.76992
48.7774 9.62658
48.9734 9.48696
49.1696 9.338
49.3661 9.16588
49.5626 9.05034
49.7592 8.91961
49.956 8.77199
50.153 8.66505
50.3501 8.48442
50.5474 8.3874
50.7448 8.26096
50.9424 8.11201
51.1402 7.99685
51.3381 7.87752
51.5362 7.74138
51.7344 7.59227
51.9328 7.48013
52.1316 7.36353
52.3304 7.27791
52.5293 7.11143
52.7284 7.03941
52.9276 6.9068
53.1271 6.77925
53.3267 6.65661
53.5265 6.51809
53.7264 6.4452
53.9266 6.28159
54.1269 6.16172
54.3274 6.06832
54.528 5.91726
54.7289 5.7865
54.9301 5.605
55.1314 5.47548
55.3328 5.27279
55.5344 5.08984
55.7361 4.93127

File: Ni3Fe_FD0366.xy
TT I
1.27165 8.02915
1.45013 6.7539
1.62863 5.68906
1.80712 4.93583
1.98562 4.31322
2.16411 4.96499
2.34263 4.55427
2.52115 6.29194
2.69965 7.07809
2.87818 8.40254
3.05672 10.9112
3.23527 15.0211
3.4138 18.9906
3.59237 23.2863
3.77094 26.383
3.9495 29.896
4.12809 34.8605
4.30669 108.419
4.4853 54.9223
4.6639 57.2276
4.84253 69.939
5.02118 92.0041
5.19981 621.528
5.37848 221.459
5.55716 106.7
5.73586 96.8028
5.91455 101.926
6.09328 4067.38
6.27201 85.2563
6.45075 69.7454
6.62952 63.5342
6.8083 60.1418
6.98711 57.0475
7.16591 56.3845
7.34475 69.4608
7.5236 55.5269
7.70247 57.375
7.88135 59.2422
8.06026 64.0957
8.23919 71.3282
8.41812 87.9485
8.59709 1195.64
8.77609 103.847
8.9551 90.8621
9.13412 84.8129
9.31318 86.0299
9.49226 87.1988
9.67134 96.4657
9.85047 103.824
10.0296 448.734
10.2088 451.58
10.388 110.057
10.5672 482.139
10.7465 89.3314
10.9257 79.2145
11.105 73.5546
11.2844 70.5242
11.4637 66.4109
11.6431 65.389
11.8225 64.1721
12.002 66.5652
12.1814 152.052
12.3609 69.3811
12.5405 66.1271
12.72 70.0305
12.8996 73.6041
13.0792 83.3558
13.2589 248.04
13.4386 131.732
13.6183 245.693
13.7981 101.841
13.9779 77.8866
14.1577 73.8933
14.3376 72.2608
14.5175 70.8585
14.6974 72.6468
14.8774 120.636
15.0574 152.463
15.2374 71.8261
15.4175 68.3302
15.5976 68.1474
15.7778 103.711
15.958 160.998
16.1382 63.3124
16.3185 59.5273
16.4988 57.1109
16.6792 55.9256
16.8596 56.3053
17.04 57.7969
17.2205 69.2515
17.401 72.9477
17.5815 60.9069
17.7622 63.2557
17.9428 79.3693
18.1237 139.316
18.3044 91.6899
18.4852 78.7707
18.666 62.0332
18.8469 59.8017
19.0278 58.4203
19.2088 61.6931
19.3898 76.8496
19.5709 55.8771
19.752 54.8719
19.9332 58.317
20.1144 71.389
20.2957 64.4799
20.477 55.0372
20.6586 50.9048
20.84 50.0606
21.0215 49.9072
21.203 52.0378
21.3846 50.2112
21.5662 50.5599
21.7479 54.6819
21.9297 66.0098
22.1115 57.0415
22.2933 51.294
22.4753 50.1553
22.6572 50.5285
22.8393 53.7983
23.0214 58.7151
23.2037 50.3656
23.3859 51.7055
23.5682 57.783
23.7505 49.632
23.9329 46.5008
24.1154 45.2409
24.2979 44.5755
24.4805 44.1818
24.6631 44.0005
24.8458 43.5212
25.0286 44.2893
25.2114 45.8971
25.3943 45.866
25.5773 42.0305
25.7605 41.6679
25.9436 41.9093
26.1268 42.7155
26.31 41.3999
26.4933 41.8858
26.6767 43.3441
26.8601 41.5592
27.0437 39.9226
27.2272 39.6769
27.4109 39.4499
27.5946 39.4732
27.7784 38.9581
27.9623 39.4886
28.1462 39.7357
28.3304 38.2721
28.5145 36.9786
28.6987 36.4984
28.8829 36.3814
29.0673 35.6119
29.2517 35.2698
29.4361 35.0602
29.6207 34.0345
29.8053 33.757
29.99 33.5
30.1748 33.2942
30.3597 33.1599
30.5447 32.991
30.7297 32.9913
30.915 32.5188
31.1002 31.9059
31.2855 31.7699
31.4708 31.6218
31.6563 31.2436
31.8418 30.8902
32.0275 30.7495
32.2132 30.1786
32.399 29.6492
32.5848 29.2678
32.7708 28.8416
32.9569 28.8304
33.143 28.481
33.3293 28.1258
33.5158 27.7871
33.7022 27.3126
33.8887 26.9839
34.0753 26.6877
34.262 26.3138
34.4488 26.0059
34.6357 25.7184
34.8227 25.4193
35.0098 25.1187
35.1969 24.8326
35.3842 24.5571
35.5716 24.3932
35.759 24.0762
35.9468 23.7426
36.1345 23.5378
36.3222 23.2329
36.5101 23.0402
36.6981 22.6195
36.8861 22.3783
37.0743 22.0317
37.2626 21.8223
37.451 21.5136
37.6395 21.3338
37.8281 20.9826
38.0168 20.7645
38.2056 20.4353
38.3945 20.1796
38.5837 19.9872
38.7728 19.6823
38.9621 19.4793
39.1514 19.1797
39.3409 18.9312
39.5304 18.6569
39.7201 18.504
39.9099 18.2745
40.0999 18.0551
40.2899 17.8201
40.48 17.5763
40.6703 17.3542
40.8607 17.16
41.0512 16.865
41.242 16.7206
41.4327 16.4726
41.6236 16.1984
41.8146 16.018
42.0057 15.8206
42.1969 15.5878
42.3882 15.4292
42.5797 15.2458
42.7713 14.9886
42.963 14.7895
43.1549 14.5888
43.3468 14.38
43.5389 14.1395
43.7312 13.9504
43.9237 13.8104
44.1162 13.6178
44.3088 13.4569
44.5016 13.2234
44.6945 13.0524
44.8875 12.891
45.0806 12.6678
45.2739 12.5226
45.4673 12.3716
45.6609 12.1522
45.8546 12.0257
46.0484 11.8198
46.2424 11.6883
46.4365 11.4482
46.631 11.3035
46.8254 11.1113
47.0199 10.9742
47.2146 10.8185
47.4095 10.645
47.6044 10.5109
47.7996 10.343
47.9948 10.1875
48.1902 10.0483
48.3858 9.94586
48.5815 9.7827
48.7774 9.61777
48.9734 9.4663
49.1696 9.31981
49.3661 9.18454
49.5626 9.04898
49.7592 8.93989
49.956 8.79014
50.153 8.6301
50.3501 8.51177
50.5474 8.37711
50.7448 8.25876
50.9424 8.1062
51.1402 7.99959
51.3381 7.87197
51.5362 7.73337
51.7344 7.63345
51.9328 7.4824
52.1316 7.33796
52.3304 7.22716
52.5293 7.12784
52.7284 7.01405
52.9276 6.84873
53.1271 6.77605
53.3267 6.65056
53.5265 6.54972
53.7264 6.45838
53.9266 6.3111
54.1269 6.19937
54.3274 6.11763
54.528 5.95315
54.7289 5.77944
54.9301 5.61811
55.1314 5.50109
55.3328 5.30746
55.5344 5.05107
55.7361 4.95299