Folder: NiFe_MOF_catalyst_paper/XRD (part 179)

File: Ni3Fe_FD0969.xy
TT I
1.27165 7.18559
1.45013 6.75726
1.62863 5.22983
1.80712 4.8055
1.98562 4.62592
2.16411 4.4837
2.34263 6.17898
2.52115 7.51481
2.69965 8.80952
2.87818 8.39303
3.05672 11.6425
3.23527 15.4476
3.4138 18.8818
3.59237 24.0779
3.77094 26.0159
3.9495 29.612
4.12809 34.7009
4.30669 204.665
4.4853 63.4971
4.6639 54.5477
4.84253 65.9627
5.02118 84.5388
5.19981 278.799
5.37848 174.371
5.55716 99.7909
5.73586 89.8608
5.91455 90.6243
6.09328 4613.98
6.27201 80.8756
6.45075 66.1842
6.62952 61.519
6.8083 57.8197
6.98711 54.9933
7.16591 54.6806
7.34475 87.9368
7.5236 53.8342
7.70247 55.5114
7.88135 56.6785
8.06026 60.8701
8.23919 68.3603
8.41812 82.9033
8.59709 1142.15
8.77609 96.6904
8.9551 89.7926
9.13412 80.5402
9.31318 80.8327
9.49226 83.0353
9.67134 95.6821
9.85047 97.8516
10.0296 300.552
10.2088 362.244
10.388 101.858
10.5672 525.012
10.7465 84.8136
10.9257 76.8344
11.105 70.6916
11.2844 68.936
11.4637 64.0896
11.6431 62.3868
11.8225 60.8176
12.002 62.0123
12.1814 154.507
12.3609 69.118
12.5405 63.3949
12.72 68.3864
12.8996 69.6338
13.0792 76.9509
13.2589 232.957
13.4386 119.037
13.6183 248.553
13.7981 94.9522
13.9779 74.3633
14.1577 70.8948
14.3376 69.8384
14.5175 67.3376
14.6974 69.1088
14.8774 106.042
15.0574 145.94
15.2374 69.5654
15.4175 65.0522
15.5976 64.2946
15.7778 90.7379
15.958 150.728
16.1382 61.449
16.3185 57.4777
16.4988 54.4999
16.6792 53.1255
16.8596 54.0623
17.04 54.5632
17.2205 65.1317
17.401 69.0622
17.5815 57.9329
17.7622 59.8767
17.9428 70.8651
18.1237 137.86
18.3044 89.8371
18.4852 75.3094
18.666 59.1821
18.8469 56.9192
19.0278 55.8638
19.2088 58.1304
19.3898 75.0935
19.5709 53.0176
19.752 52.1517
19.9332 54.8582
20.1144 68.7323
20.2957 63.6532
20.477 52.4938
20.6586 48.7747
20.84 47.8643
21.0215 47.6491
21.203 50.0545
21.3846 47.7807
21.5662 47.6086
21.7479 51.4882
21.9297 63.653
22.1115 55.3323
22.2933 48.8872
22.4753 47.9747
22.6572 47.8256
22.8393 50.9638
23.0214 56.1243
23.2037 47.7163
23.3859 48.8149
23.5682 56.4137
23.7505 47.3461
23.9329 44.3192
24.1154 43.2856
24.2979 42.559
24.4805 42.2251
24.6631 42.0898
24.8458 41.4576
25.0286 41.9173
25.2114 43.9288
25.3943 43.6835
25.5773 40.1083
25.7605 39.7524
25.9436 40.0362
26.1268 41.0121
26.31 39.3077
26.4933 39.945
26.6767 41.436
26.8601 39.7416
27.0437 38.1781
27.2272 37.6898
27.4109 37.7596
27.5946 37.7054
27.7784 37.1559
27.9623 37.7892
28.1462 38.1066
28.3304 36.4967
28.5145 35.3133
28.6987 34.9585
28.8829 34.9171
29.0673 34.0806
29.2517 33.6769
29.4361 33.4046
29.6207 32.6025
29.8053 32.3097
29.99 31.8839
30.1748 31.8328
30.3597 31.6463
30.5447 31.5807
30.7297 31.6998
30.915 31.0138
31.1002 30.5734
31.2855 30.1764
31.4708 30.1898
31.6563 29.7452
31.8418 29.6378
32.0275 29.309
32.2132 28.8739
32.399 28.4602
32.5848 27.925
32.7708 27.608
32.9569 27.4868
33.143 27.2932
33.3293 26.8794
33.5158 26.4757
33.7022 26.1892
33.8887 25.8119
34.0753 25.3902
34.262 25.2014
34.4488 24.8032
34.6357 24.5562
34.8227 24.3318
35.0098 24.0041
35.1969 23.7828
35.3842 23.5865
35.5716 23.366
35.759 23.0829
35.9468 22.7189
36.1345 22.4783
36.3222 22.242
36.5101 22.0522
36.6981 21.7558
36.8861 21.4355
37.0743 21.1268
37.2626 20.8703
37.451 20.5111
37.6395 20.5651
37.8281 20.0623
38.0168 19.8497
38.2056 19.5974
38.3945 19.3058
38.5837 19.1179
38.7728 18.8786
38.9621 18.6815
39.1514 18.3826
39.3409 18.0964
39.5304 17.9038
39.7201 17.7533
39.9099 17.5519
40.0999 17.288
40.2899 17.0344
40.48 16.8518
40.6703 16.6239
40.8607 16.4343
41.0512 16.2501
41.242 15.9598
41.4327 15.7543
41.6236 15.6029
41.8146 15.362
42.0057 15.1818
42.1969 14.9056
42.3882 14.8285
42.5797 14.5363
42.7713 14.4487
42.963 14.1959
43.1549 13.9699
43.3468 13.846
43.5389 13.634
43.7312 13.3908
43.9237 13.2158
44.1162 13.053
44.3088 12.839
44.5016 12.6755
44.6945 12.5105
44.8875 12.3252
45.0806 12.1548
45.2739 11.9727
45.4673 11.863
45.6609 11.6871
45.8546 11.5018
46.0484 11.3442
46.2424 11.1862
46.4365 11.0191
46.631 10.8381
46.8254 10.7001
47.0199 10.5007
47.2146 10.4228
47.4095 10.1854
47.6044 10.0892
47.7996 9.87814
47.9948 9.76207
48.1902 9.64012
48.3858 9.49256
48.5815 9.37241
48.7774 9.23185
48.9734 9.08058
49.1696 8.94705
49.3661 8.84956
49.5626 8.66084
49.7592 8.51835
49.956 8.40916
50.153 8.28425
50.3501 8.1477
50.5474 8.09698
50.7448 7.90668
50.9424 7.79764
51.1402 7.71049
51.3381 7.53933
51.5362 7.46148
51.7344 7.30282
51.9328 7.17205
52.1316 7.02319
52.3304 6.95062
52.5293 6.83993
52.7284 6.74555
52.9276 6.57604
53.1271 6.50681
53.3267 6.41891
53.5265 6.24831
53.7264 6.16088
53.9266 6.03306
54.1269 5.94902
54.3274 5.83694
54.528 5.7299
54.7289 5.57324
54.9301 5.37477
55.1314 5.22903
55.3328 5.02655
55.5344 4.82025
55.7361 4.76169

File: Ni3Fe_FD0970.xy
TT I
1.27165 7.26057
1.45013 6.61013
1.62863 5.30385
1.80712 4.53886
1.98562 5.08091
2.16411 4.79458
2.34263 5.29146
2.52115 7.55822
2.69965 8.68653
2.87818 9.31899
3.05672 11.1647
3.23527 15.2806
3.4138 18.7939
3.59237 23.991
3.77094 26.0754
3.9495 29.7116
4.12809 34.7232
4.30669 205.706
4.4853 63.7652
4.6639 54.4039
4.84253 66.1
5.02118 84.3562
5.19981 277.932
5.37848 173.733
5.55716 100.184
5.73586 90.2205
5.91455 90.7691
6.09328 4607.93
6.27201 80.6665
6.45075 66.3722
6.62952 61.7452
6.8083 57.7651
6.98711 54.6079
7.16591 54.6103
7.34475 87.857
7.5236 54.2187
7.70247 55.3911
7.88135 56.8989
8.06026 60.857
8.23919 68.3941
8.41812 82.8245
8.59709 1146.19
8.77609 96.1274
8.9551 89.488
9.13412 80.173
9.31318 81.023
9.49226 82.9974
9.67134 95.8971
9.85047 97.9175
10.0296 299.547
10.2088 361.072
10.388 101.665
10.5672 524.678
10.7465 84.6739
10.9257 76.9883
11.105 70.3979
11.2844 68.8118
11.4637 63.5447
11.6431 62.591
11.8225 61.1781
12.002 62.2689
12.1814 154.719
12.3609 69.3367
12.5405 63.3883
12.72 68.2949
12.8996 69.2672
13.0792 77.1886
13.2589 233.205
13.4386 118.532
13.6183 248.541
13.7981 94.7921
13.9779 74.3943
14.1577 70.8621
14.3376 70.2694
14.5175 67.5253
14.6974 68.7152
14.8774 106.313
15.0574 145.639
15.2374 69.4604
15.4175 65.0197
15.5976 64.4617
15.7778 90.8597
15.958 150.808
16.1382 61.605
16.3185 57.5283
16.4988 54.3471
16.6792 53.5442
16.8596 54.1153
17.04 54.5932
17.2205 65.2526
17.401 69.0776
17.5815 58.0747
17.7622 59.8056
17.9428 70.6709
18.1237 137.796
18.3044 89.4649
18.4852 75.269
18.666 59.3453
18.8469 56.748
19.0278 55.8427
19.2088 57.9745
19.3898 75.1658
19.5709 53.0088
19.752 52.128
19.9332 54.6734
20.1144 68.7223
20.2957 63.7131
20.477 52.328
20.6586 48.6717
20.84 47.8466
21.0215 47.5363
21.203 49.982
21.3846 47.7842
21.5662 47.7251
21.7479 51.2762
21.9297 63.3884
22.1115 55.3167
22.2933 48.9532
22.4753 48.0142
22.6572 47.8577
22.8393 51.034
23.0214 56.0635
23.2037 47.848
23.3859 48.5624
23.5682 56.4335
23.7505 47.346
23.9329 44.3755
24.1154 43.2988
24.2979 42.6208
24.4805 42.1809
24.6631 41.8701
24.8458 41.4673
25.0286 42.0335
25.2114 43.7376
25.3943 43.7146
25.5773 40.2604
25.7605 39.7228
25.9436 39.9975
26.1268 40.9828
26.31 39.3113
26.4933 39.7831
26.6767 41.4383
26.8601 39.6669
27.0437 38.1796
27.2272 37.7818
27.4109 37.6691
27.5946 37.7001
27.7784 37.1323
27.9623 37.6703
28.1462 38.0345
28.3304 36.3894
28.5145 35.2859
28.6987 34.9519
28.8829 34.7521
29.0673 33.9674
29.2517 33.7734
29.4361 33.5273
29.6207 32.6619
29.8053 32.2328
29.99 31.9236
30.1748 31.8663
30.3597 31.662
30.5447 31.5901
30.7297 31.6519
30.915 30.9835
31.1002 30.4831
31.2855 30.3622
31.4708 30.2885
31.6563 29.7781
31.8418 29.5694
32.0275 29.3425
32.2132 28.9354
32.399 28.4134
32.5848 27.9892
32.7708 27.5898
32.9569 27.5261
33.143 27.2752
33.3293 26.8814
33.5158 26.5508
33.7022 26.069
33.8887 25.8871
34.0753 25.4857
34.262 25.161
34.4488 24.9123
34.6357 24.5725
34.8227 24.2149
35.0098 23.9368
35.1969 23.8019
35.3842 23.5875
35.5716 23.3462
35.759 23.0137
35.9468 22.7398
36.1345 22.4719
36.3222 22.3243
36.5101 22.0903
36.6981 21.7953
36.8861 21.4033
37.0743 21.1413
37.2626 20.8422
37.451 20.6165
37.6395 20.4522
37.8281 20.163
38.0168 19.8191
38.2056 19.6469
38.3945 19.3046
38.5837 19.1195
38.7728 18.8273
38.9621 18.6334
39.1514 18.3307
39.3409 18.1473
39.5304 17.9581
39.7201 17.7428
39.9099 17.5085
40.0999 17.2429
40.2899 16.9843
40.48 16.8809
40.6703 16.619
40.8607 16.4981
41.0512 16.1738
41.242 16.0033
41.4327 15.7514
41.6236 15.5439
41.8146 15.4539
42.0057 15.1615
42.1969 14.9032
42.3882 14.7946
42.5797 14.4905
42.7713 14.3609
42.963 14.1782
43.1549 13.9695
43.3468 13.7907
43.5389 13.6344
43.7312 13.4341
43.9237 13.2727
44.1162 13.0622
44.3088 12.8371
44.5016 12.6921
44.6945 12.5031
44.8875 12.3148
45.0806 12.173
45.2739 12.0019
45.4673 11.8307
45.6609 11.6321
45.8546 11.4984
46.0484 11.3312
46.2424 11.1475
46.4365 11.0472
46.631 10.8382
46.8254 10.6301
47.0199 10.5091
47.2146 10.3544
47.4095 10.2082
47.6044 10.0893
47.7996 9.919
47.9948 9.78161
48.1902 9.62861
48.3858 9.48662
48.5815 9.3429
48.7774 9.26266
48.9734 9.04227
49.1696 8.95667
49.3661 8.78595
49.5626 8.66751
49.7592 8.57708
49.956 8.41638
50.153 8.28382
50.3501 8.17506
50.5474 8.05248
50.7448 7.91033
50.9424 7.79372
51.1402 7.70804
51.3381 7.54961
51.5362 7.40625
51.7344 7.27781
51.9328 7.15402
52.1316 7.05185
52.3304 6.97986
52.5293 6.80319
52.7284 6.75815
52.9276 6.60666
53.1271 6.54334
53.3267 6.39599
53.5265 6.24803
53.7264 6.13674
53.9266 6.07961
54.1269 5.94228
54.3274 5.82385
54.528 5.73905
54.7289 5.56706
54.9301 5.34943
55.1314 5.28384
55.3328 5.03758
55.5344 4.89666
55.7361 4.75875

File: Ni3Fe_FD0971.xy
TT I
1.27165 7.17049
1.45013 5.56224
1.62863 5.28855
1.80712 4.53629
1.98562 4.39764
2.16411 5.21094
2.34263 5.3903
2.52115 7.07847
2.69965 9.17339
2.87818 8.88606
3.05672 11.0881
3.23527 15.0668
3.4138 19.0481
3.59237 23.6924
3.77094 26.2002
3.9495 29.8114
4.12809 34.1951
4.30669 207.529
4.4853 63.821
4.6639 54.6411
4.84253 65.825
5.02118 84.764
5.19981 277.82
5.37848 172.839
5.55716 99.7956
5.73586 90.1291
5.91455 90.5302
6.09328 4615.78
6.27201 80.4074
6.45075 65.7237
6.62952 61.7661
6.8083 57.3674
6.98711 54.9876
7.16591 54.5643
7.34475 88.9759
7.5236 54.2533
7.70247 55.3989
7.88135 56.9534
8.06026 61.4361
8.23919 68.0271
8.41812 82.7883
8.59709 1144.37
8.77609 96.3781
8.9551 89.5884
9.13412 80.3262
9.31318 80.993
9.49226 83.1188
9.67134 96.5486
9.85047 97.6804
10.0296 298.007
10.2088 360.455
10.388 101.489
10.5672 523.385
10.7465 84.4557
10.9257 76.785
11.105 70.5633
11.2844 69.1732
11.4637 63.4707
11.6431 62.3747
11.8225 61.3284
12.002 62.0821
12.1814 153.458
12.3609 69.1216
12.5405 63.2104
12.72 68.5719
12.8996 69.3478
13.0792 76.9172
13.2589 233.202
13.4386 118.978
13.6183 247.262
13.7981 94.5424
13.9779 74.0415
14.1577 70.8663
14.3376 70.0571
14.5175 67.3593
14.6974 68.958
14.8774 106.079
15.0574 146.25
15.2374 69.5049
15.4175 65.0875
15.5976 64.4287
15.7778 90.6403
15.958 151.425
16.1382 61.6391
16.3185 57.4859
16.4988 54.323
16.6792 53.4478
16.8596 54.2173
17.04 54.7431
17.2205 65.1555
17.401 68.833
17.5815 58.0613
17.7622 59.9043
17.9428 70.9502
18.1237 137.212
18.3044 89.5669
18.4852 75.085
18.666 59.0864
18.8469 56.8039
19.0278 55.7117
19.2088 58.0597
19.3898 74.9651
19.5709 53.0716
19.752 52.2613
19.9332 54.8105
20.1144 68.7217
20.2957 63.402
20.477 52.4578
20.6586 48.6933
20.84 47.9021
21.0215 47.5717
21.203 50.0965
21.3846 47.9026
21.5662 47.8876
21.7479 51.2776
21.9297 63.5798
22.1115 55.1439
22.2933 49.0147
22.4753 47.8827
22.6572 47.8858
22.8393 50.6465
23.0214 56.0243
23.2037 47.866
23.3859 48.6016
23.5682 56.5183
23.7505 47.4173
23.9329 44.4503
24.1154 43.24
24.2979 42.5753
24.4805 42.203
24.6631 42.0246
24.8458 41.4622
25.0286 41.9435
25.2114 43.8716
25.3943 43.6576
25.5773 40.2957
25.7605 39.7722
25.9436 40.1163
26.1268 40.8551
26.31 39.3271
26.4933 39.9176
26.6767 41.4175
26.8601 39.6681
27.0437 38.1229
27.2272 37.852
27.4109 37.5871
27.5946 37.5708
27.7784 37.0078
27.9623 37.8017
28.1462 38.0504
28.3304 36.5603
28.5145 35.1719
28.6987 34.8787
28.8829 34.7733
29.0673 34.0746
29.2517 33.7453
29.4361 33.5417
29.6207 32.511
29.8053 32.2438
29.99 31.8889
30.1748 31.8599
30.3597 31.6719
30.5447 31.6114
30.7297 31.6646
30.915 31.0533
31.1002 30.4877
31.2855 30.2484
31.4708 30.2313
31.6563 29.8159
31.8418 29.5163
32.0275 29.372
32.2132 28.8518
32.399 28.4438
32.5848 28.0292
32.7708 27.5646
32.9569 27.4552
33.143 27.2929
33.3293 26.833
33.5158 26.5565
33.7022 26.063
33.8887 25.8683
34.0753 25.5944
34.262 25.0786
34.4488 24.7998
34.6357 24.5723
34.8227 24.248
35.0098 24.0154
35.1969 23.7735
35.3842 23.5799
35.5716 23.3683
35.759 23.1011
35.9468 22.715
36.1345 22.5041
36.3222 22.287
36.5101 22.0177
36.6981 21.8121
36.8861 21.4548
37.0743 21.086
37.2626 20.8543
37.451 20.6867
37.6395 20.4462
37.8281 20.0695
38.0168 19.8582
38.2056 19.5746
38.3945 19.3557
38.5837 19.0678
38.7728 18.9102
38.9621 18.5431
39.1514 18.3942
39.3409 18.1453
39.5304 17.9442
39.7201 17.7644
39.9099 17.47
40.0999 17.2704
40.2899 17.0517
40.48 16.7854
40.6703 16.6346
40.8607 16.475
41.0512 16.2393
41.242 15.9677
41.4327 15.8131
41.6236 15.5619
41.8146 15.3778
42.0057 15.1366
42.1969 14.9805
42.3882 14.808
42.5797 14.5607
42.7713 14.3702
42.963 14.1774
43.1549 13.9633
43.3468 13.7765
43.5389 13.5749
43.7312 13.4008
43.9237 13.2443
44.1162 13.0347
44.3088 12.8693
44.5016 12.6689
44.6945 12.4894
44.8875 12.3499
45.0806 12.1762
45.2739 12.0241
45.4673 11.8531
45.6609 11.6667
45.8546 11.4989
46.0484 11.3256
46.2424 11.1718
46.4365 10.9742
46.631 10.8983
46.8254 10.6957
47.0199 10.5161
47.2146 10.3636
47.4095 10.1999
47.6044 10.0882
47.7996 9.93238
47.9948 9.74853
48.1902 9.65471
48.3858 9.50591
48.5815 9.39673
48.7774 9.2408
48.9734 9.08287
49.1696 8.96743
49.3661 8.82086
49.5626 8.65963
49.7592 8.5457
49.956 8.42585
50.153 8.31632
50.3501 8.14627
50.5474 8.0241
50.7448 7.93222
50.9424 7.80695
51.1402 7.70191
51.3381 7.53843
51.5362 7.45894
51.7344 7.29171
51.9328 7.15752
52.1316 7.06242
52.3304 6.92764
52.5293 6.88158
52.7284 6.74134
52.9276 6.59437
53.1271 6.5167
53.3267 6.39282
53.5265 6.33943
53.7264 6.17503
53.9266 6.06032
54.1269 5.9376
54.3274 5.81042
54.528 5.69091
54.7289 5.57004
54.9301 5.43324
55.1314 5.2767
55.3328 5.05898
55.5344 4.87984
55.7361 4.72979

File: Ni3Fe_FD0972.xy
TT I
1.27165 7.2108
1.45013 6.36816
1.62863 4.96521
1.80712 4.94222
1.98562 5.12358
2.16411 5.72015
2.34263 5.97361
2.52115 7.83168
2.69965 8.37242
2.87818 8.78247
3.05672 11.3929
3.23527 15.4417
3.4138 19.0408
3.59237 23.8679
3.77094 26.1544
3.9495 29.6512
4.12809 34.1488
4.30669 211.83
4.4853 63.9954
4.6639 54.5049
4.84253 65.7759
5.02118 84.3831
5.19981 275.407
5.37848 172.709
5.55716 99.5352
5.73586 89.9042
5.91455 90.2084
6.09328 4617.16
6.27201 80.3088
6.45075 66.0797
6.62952 61.4771
6.8083 57.7285
6.98711 55.2165
7.16591 54.5093
7.34475 89.6973
7.5236 53.8541
7.70247 55.3105
7.88135 56.4975
8.06026 60.7779
8.23919 67.9185
8.41812 83.0275
8.59709 1135.27
8.77609 96.3666
8.9551 89.5902
9.13412 80.0654
9.31318 80.4914
9.49226 82.8573
9.67134 95.8859
9.85047 97.2254
10.0296 294.852
10.2088 365.285
10.388 101.571
10.5672 523.605
10.7465 84.5668
10.9257 76.9665
11.105 70.5615
11.2844 68.8531
11.4637 63.995
11.6431 62.2892
11.8225 61.2274
12.002 61.9177
12.1814 153.453
12.3609 69.1625
12.5405 63.3843
12.72 68.7004
12.8996 69.338
13.0792 76.5663
13.2589 232.674
13.4386 120.054
13.6183 245.879
13.7981 94.7669
13.9779 74.177
14.1577 70.8157
14.3376 69.9449
14.5175 67.261
14.6974 68.8131
14.8774 105.307
15.0574 146.966
15.2374 69.5448
15.4175 64.8247
15.5976 64.1542
15.7778 90.4687
15.958 152.023
16.1382 61.1728
16.3185 57.3907
16.4988 54.3065
16.6792 53.2675
16.8596 54.2522
17.04 54.5445
17.2205 64.8328
17.401 68.7678
17.5815 57.9854
17.7622 59.9182
17.9428 70.5513
18.1237 137.549
18.3044 89.2701
18.4852 75.2875
18.666 59.1669
18.8469 56.7235
19.0278 55.7391
19.2088 57.8802
19.3898 74.8893
19.5709 52.8849
19.752 52.2508
19.9332 54.6946
20.1144 68.715
20.2957 63.3984
20.477 52.5381
20.6586 48.7601
20.84 47.9123
21.0215 47.365
21.203 50.0167
21.3846 48.0145
21.5662 47.7803
21.7479 51.2955
21.9297 63.6511
22.1115 55.3141
22.2933 48.8978
22.4753 47.8851
22.6572 47.7007
22.8393 50.6547
23.0214 56.1098
23.2037 47.7688
23.3859 48.599
23.5682 56.5161
23.7505 47.3118
23.9329 44.3583
24.1154 43.3193
24.2979 42.6264
24.4805 41.9817
24.6631 41.9152
24.8458 41.2156
25.0286 41.8492
25.2114 43.7382
25.3943 43.7341
25.5773 40.0932
25.7605 39.6028
25.9436 40.029
26.1268 41.0039
26.31 39.2685
26.4933 39.9602
26.6767 41.5092
26.8601 39.6554
27.0437 38.0624
27.2272 37.8091
27.4109 37.6442
27.5946 37.4449
27.7784 37.0796
27.9623 37.7268
28.1462 38.0665
28.3304 36.5111
28.5145 35.3522
28.6987 34.9821
28.8829 34.7042
29.0673 34.0403
29.2517 33.6086
29.4361 33.5002
29.6207 32.5444
29.8053 32.2588
29.99 31.842
30.1748 31.9104
30.3597 31.6248
30.5447 31.6842
30.7297 31.5372
30.915 31.0231
31.1002 30.5313
31.2855 30.273
31.4708 30.2808
31.6563 29.8108
31.8418 29.6108
32.0275 29.3542
32.2132 28.6987
32.399 28.3235
32.5848 27.9381
32.7708 27.6616
32.9569 27.5307
33.143 27.2902
33.3293 26.8847
33.5158 26.5129
33.7022 26.0976
33.8887 25.824
34.0753 25.4778
34.262 25.0997
34.4488 24.8647
34.6357 24.5367
34.8227 24.2252
35.0098 24.1084
35.1969 23.7609
35.3842 23.5744
35.5716 23.3461
35.759 23.0947
35.9468 22.719
36.1345 22.5222
36.3222 22.2347
36.5101 22.1077
36.6981 21.6951
36.8861 21.3332
37.0743 21.1121
37.2626 20.8215
37.451 20.6163
37.6395 20.4425
37.8281 20.0895
38.0168 19.8485
38.2056 19.5457
38.3945 19.3289
38.5837 19.0419
38.7728 18.8632
38.9621 18.5969
39.1514 18.3352
39.3409 18.0951
39.5304 17.892
39.7201 17.7291
39.9099 17.5632
40.0999 17.2496
40.2899 17.0736
40.48 16.7929
40.6703 16.5849
40.8607 16.4647
41.0512 16.1655
41.242 15.9391
41.4327 15.7743
41.6236 15.525
41.8146 15.3599
42.0057 15.1363
42.1969 14.9913
42.3882 14.7717
42.5797 14.5657
42.7713 14.3216
42.963 14.1316
43.1549 13.9938
43.3468 13.7446
43.5389 13.6003
43.7312 13.4002
43.9237 13.2527
44.1162 13.0305
44.3088 12.838
44.5016 12.6896
44.6945 12.5414
44.8875 12.3508
45.0806 12.1232
45.2739 11.9934
45.4673 11.8736
45.6609 11.6608
45.8546 11.5034
46.0484 11.343
46.2424 11.1564
46.4365 10.9888
46.631 10.8164
46.8254 10.6503
47.0199 10.488
47.2146 10.3793
47.4095 10.2129
47.6044 10.0453
47.7996 9.90752
47.9948 9.80099
48.1902 9.60598
48.3858 9.5123
48.5815 9.3633
48.7774 9.24483
48.9734 9.07937
49.1696 8.9544
49.3661 8.8379
49.5626 8.64566
49.7592 8.55444
49.956 8.42222
50.153 8.31014
50.3501 8.15397
50.5474 8.04413
50.7448 7.91472
50.9424 7.7894
51.1402 7.65222
51.3381 7.54405
51.5362 7.42621
51.7344 7.30697
51.9328 7.18306
52.1316 7.06379
52.3304 6.96435
52.5293 6.82205
52.7284 6.72198
52.9276 6.62083
53.1271 6.56645
53.3267 6.38117
53.5265 6.25708
53.7264 6.1605
53.9266 6.01937
54.1269 5.94704
54.3274 5.81705
54.528 5.72766
54.7289 5.51008
54.9301 5.35986
55.1314 5.23834
55.3328 5.03463
55.5344 4.84459
55.7361 4.81403

File: Ni3Fe_FD0973.xy
TT I
1.27165 6.9759
1.45013 5.75556
1.62863 5.4532
1.80712 4.83805
1.98562 4.86633
2.16411 5.10736
2.34263 5.51713
2.52115 7.8369
2.69965 9.37653
2.87818 8.74215
3.05672 11.4445
3.23527 15.135
3.4138 19.1659
3.59237 23.8402
3.77094 25.8516
3.9495 29.7672
4.12809 34.5195
4.30669 211.84
4.4853 64.2632
4.6639 54.6225
4.84253 66.273
5.02118 84.2807
5.19981 277.313
5.37848 171.849
5.55716 99.3177
5.73586 89.7745
5.91455 90.8271
6.09328 4606.69
6.27201 80.7741
6.45075 66.0893
6.62952 61.9132
6.8083 57.5017
6.98711 55.0355
7.16591 54.6791
7.34475 89.1546
7.5236 53.9968
7.70247 55.2598
7.88135 56.8355
8.06026 60.9125
8.23919 68.1298
8.41812 83.0908
8.59709 1138.12
8.77609 96.2458
8.9551 89.7866
9.13412 80.3001
9.31318 81.0028
9.49226 82.9872
9.67134 96.1517
9.85047 97.7216
10.0296 297.904
10.2088 355.523
10.388 101.952
10.5672 527.632
10.7465 84.8519
10.9257 76.8683
11.105 70.6925
11.2844 69.0168
11.4637 63.6382
11.6431 62.478
11.8225 61.4137
12.002 62.3769
12.1814 153.588
12.3609 68.9518
12.5405 63.3006
12.72 68.4187
12.8996 69.459
13.0792 76.7571
13.2589 233.003
13.4386 118.744
13.6183 247.292
13.7981 94.4225
13.9779 74.3009
14.1577 70.6071
14.3376 70.0408
14.5175 67.5766
14.6974 68.6602
14.8774 105.691
15.0574 145.486
15.2374 69.3528
15.4175 64.831
15.5976 64.3441
15.7778 90.7103
15.958 149.911
16.1382 60.9181
16.3185 57.5316
16.4988 54.2469
16.6792 53.4147
16.8596 53.9762
17.04 54.4125
17.2205 64.9733
17.401 68.6697
17.5815 57.9066
17.7622 59.7838
17.9428 70.5927
18.1237 137.503
18.3044 89.5284
18.4852 75.0058
18.666 59.1402
18.8469 56.8642
19.0278 55.6362
19.2088 57.8958
19.3898 75.0827
19.5709 53.0203
19.752 52.0774
19.9332 54.834
20.1144 68.6698
20.2957 63.2838
20.477 52.3434
20.6586 48.5537
20.84 47.862
21.0215 47.3902
21.203 50.0277
21.3846 47.9475
21.5662 47.7227
21.7479 51.319
21.9297 63.3666
22.1115 54.9793
22.2933 48.9454
22.4753 47.9076
22.6572 47.6789
22.8393 50.7397
23.0214 56.1038
23.2037 47.7117
23.3859 48.4597
23.5682 56.4386
23.7505 47.2621
23.9329 44.2088
24.1154 43.1961
24.2979 42.628
24.4805 42.1235
24.6631 41.8766
24.8458 41.2552
25.0286 41.9872
25.2114 43.6758
25.3943 43.7287
25.5773 40.1119
25.7605 39.6087
25.9436 40.0167
26.1268 40.9797
26.31 39.3229
26.4933 39.9225
26.6767 41.3479
26.8601 39.6306
27.0437 38.1504
27.2272 37.6489
27.4109 37.5689
27.5946 37.6729
27.7784 37.1338
27.9623 37.6664
28.1462 38.1149
28.3304 36.4089
28.5145 35.2238
28.6987 34.9578
28.8829 34.7264
29.0673 33.941
29.2517 33.7399
29.4361 33.5136
29.6207 32.6013
29.8053 32.2276
29.99 31.9353
30.1748 31.781
30.3597 31.595
30.5447 31.484
30.7297 31.571
30.915 30.9579
31.1002 30.4904
31.2855 30.2924
31.4708 30.2284
31.6563 29.8194
31.8418 29.6191
32.0275 29.3294
32.2132 28.81
32.399 28.2823
32.5848 27.9548
32.7708 27.6369
32.9569 27.5349
33.143 27.2886
33.3293 26.8186
33.5158 26.5556
33.7022 26.0459
33.8887 25.8013
34.0753 25.5385
34.262 25.2153
34.4488 24.8597
34.6357 24.5184
34.8227 24.2044
35.0098 23.9647
35.1969 23.7747
35.3842 23.5107
35.5716 23.3687
35.759 22.9908
35.9468 22.6677
36.1345 22.4234
36.3222 22.2344
36.5101 22.014
36.6981 21.7003
36.8861 21.3546
37.0743 21.0582
37.2626 20.818
37.451 20.6423
37.6395 20.4565
37.8281 20.1273
38.0168 19.8645
38.2056 19.5828
38.3945 19.3575
38.5837 19.1454
38.7728 18.8914
38.9621 18.5795
39.1514 18.3283
39.3409 18.1895
39.5304 17.9158
39.7201 17.72
39.9099 17.5154
40.0999 17.2894
40.2899 17.0401
40.48 16.7848
40.6703 16.607
40.8607 16.4318
41.0512 16.2022
41.242 15.8906
41.4327 15.7276
41.6236 15.4986
41.8146 15.357
42.0057 15.167
42.1969 15.0076
42.3882 14.7599
42.5797 14.5297
42.7713 14.3692
42.963 14.1704
43.1549 13.9747
43.3468 13.8031
43.5389 13.5877
43.7312 13.4108
43.9237 13.217
44.1162 12.97
44.3088 12.84
44.5016 12.7019
44.6945 12.4997
44.8875 12.3828
45.0806 12.1643
45.2739 11.9674
45.4673 11.8048
45.6609 11.6035
45.8546 11.4811
46.0484 11.3574
46.2424 11.1453
46.4365 10.9885
46.631 10.8102
46.8254 10.6864
47.0199 10.4927
47.2146 10.3644
47.4095 10.21
47.6044 10.0641
47.7996 9.91081
47.9948 9.74141
48.1902 9.62654
48.3858 9.46317
48.5815 9.38623
48.7774 9.25056
48.9734 9.07995
49.1696 8.953
49.3661 8.77653
49.5626 8.65858
49.7592 8.4947
49.956 8.42032
50.153 8.27638
50.3501 8.17076
50.5474 8.03534
50.7448 7.91642
50.9424 7.78925
51.1402 7.67753
51.3381 7.55697
51.5362 7.42608
51.7344 7.29016
51.9328 7.1601
52.1316 7.03012
52.3304 6.94783
52.5293 6.79393
52.7284 6.73716
52.9276 6.62286
53.1271 6.52681
53.3267 6.42966
53.5265 6.26811
53.7264 6.13316
53.9266 6.04708
54.1269 5.9727
54.3274 5.83041
54.528 5.69608
54.7289 5.53561
54.9301 5.37713
55.1314 5.25197
55.3328 5.07533
55.5344 4.87671
55.7361 4.65683