Folder: NiFe_MOF_catalyst_paper/XRD (part 152)

File: Ni3Fe_FD0824.xy
TT I
1.27165 7.64899
1.45013 6.27117
1.62863 4.97898
1.80712 4.75097
1.98562 4.28218
2.16411 4.84496
2.34263 5.49433
2.52115 7.57448
2.69965 8.44806
2.87818 8.47161
3.05672 11.0479
3.23527 15.1075
3.4138 18.5752
3.59237 23.0949
3.77094 25.1015
3.9495 29.5574
4.12809 33.7495
4.30669 96.468
4.4853 52.9491
4.6639 55.0119
4.84253 68.4577
5.02118 86.8855
5.19981 402.978
5.37848 193.615
5.55716 101.618
5.73586 92.4942
5.91455 94.9887
6.09328 4559.74
6.27201 79.5055
6.45075 69.5483
6.62952 62.4275
6.8083 59.0806
6.98711 55.3753
7.16591 55.6221
7.34475 65.2053
7.5236 53.7103
7.70247 56.9061
7.88135 57.2064
8.06026 62.5001
8.23919 68.816
8.41812 83.2976
8.59709 1223.68
8.77609 96.7463
8.9551 89.2646
9.13412 82.5395
9.31318 84.6769
9.49226 84.655
9.67134 95.0552
9.85047 100.758
10.0296 345.66
10.2088 350.756
10.388 104.476
10.5672 540.107
10.7465 85.1981
10.9257 77.3411
11.105 70.7312
11.2844 67.6247
11.4637 64.1193
11.6431 62.6725
11.8225 62.2303
12.002 63.9553
12.1814 161.887
12.3609 65.8673
12.5405 64.4873
12.72 67.3128
12.8996 70.8557
13.0792 79.9741
13.2589 249.627
13.4386 116.887
13.6183 258.96
13.7981 93.2477
13.9779 75.0345
14.1577 71.1659
14.3376 69.5443
14.5175 68.308
14.6974 70.1163
14.8774 111.962
15.0574 139.514
15.2374 68.7809
15.4175 65.7741
15.5976 65.3811
15.7778 95.6498
15.958 146.921
16.1382 60.7883
16.3185 57.3736
16.4988 54.8311
16.6792 53.8833
16.8596 54.3092
17.04 55.5291
17.2205 66.9485
17.401 68.3781
17.5815 58.7556
17.7622 60.7689
17.9428 73.1926
18.1237 141.8
18.3044 90.8979
18.4852 73.8636
18.666 59.6724
18.8469 57.4502
19.0278 56.171
19.2088 58.607
19.3898 75.2611
19.5709 53.5588
19.752 52.8587
19.9332 55.727
20.1144 70.0085
20.2957 64.0888
20.477 52.5686
20.6586 49.0988
20.84 48.4202
21.0215 47.9014
21.203 50.4785
21.3846 48.428
21.5662 48.4755
21.7479 52.4142
21.9297 64.0228
22.1115 55.6569
22.2933 49.0773
22.4753 48.153
22.6572 48.4581
22.8393 51.7928
23.0214 56.4632
23.2037 48.1309
23.3859 49.2087
23.5682 57.0899
23.7505 47.366
23.9329 44.7545
24.1154 43.6275
24.2979 43.0375
24.4805 42.5463
24.6631 42.3713
24.8458 41.8584
25.0286 42.3784
25.2114 44.261
25.3943 43.926
25.5773 40.5306
25.7605 40.0177
25.9436 40.5318
26.1268 41.3638
26.31 39.6909
26.4933 40.3469
26.6767 41.8861
26.8601 40.0155
27.0437 38.3768
27.2272 38.1934
27.4109 38.0037
27.5946 37.9755
27.7784 37.4236
27.9623 38.0076
28.1462 38.333
28.3304 36.7513
28.5145 35.516
28.6987 35.29
28.8829 35.0814
29.0673 34.178
29.2517 34.0049
29.4361 33.7486
29.6207 32.8032
29.8053 32.5479
29.99 32.1825
30.1748 32.1041
30.3597 31.9368
30.5447 31.7953
30.7297 31.9626
30.915 31.2679
31.1002 30.8311
31.2855 30.5173
31.4708 30.568
31.6563 29.9617
31.8418 29.8472
32.0275 29.5186
32.2132 29.0301
32.399 28.6295
32.5848 28.1879
32.7708 27.8758
32.9569 27.7032
33.143 27.4665
33.3293 27.0769
33.5158 26.6517
33.7022 26.2939
33.8887 26.0169
34.0753 25.7098
34.262 25.4001
34.4488 25.0146
34.6357 24.7205
34.8227 24.4205
35.0098 24.2359
35.1969 24.0091
35.3842 23.7459
35.5716 23.5113
35.759 23.3059
35.9468 22.8711
36.1345 22.6037
36.3222 22.4496
36.5101 22.1157
36.6981 21.8684
36.8861 21.5372
37.0743 21.2551
37.2626 21.016
37.451 20.7898
37.6395 20.5641
37.8281 20.3029
38.0168 19.9383
38.2056 19.7279
38.3945 19.4728
38.5837 19.2091
38.7728 19.0112
38.9621 18.7496
39.1514 18.4826
39.3409 18.2466
39.5304 17.9864
39.7201 17.8504
39.9099 17.574
40.0999 17.3726
40.2899 17.139
40.48 16.9463
40.6703 16.8004
40.8607 16.5811
41.0512 16.3137
41.242 16.0962
41.4327 15.8839
41.6236 15.6261
41.8146 15.4364
42.0057 15.2247
42.1969 15.0655
42.3882 14.8114
42.5797 14.6171
42.7713 14.4496
42.963 14.2706
43.1549 14.067
43.3468 13.875
43.5389 13.6812
43.7312 13.4722
43.9237 13.2587
44.1162 13.1207
44.3088 12.9109
44.5016 12.7576
44.6945 12.5476
44.8875 12.3811
45.0806 12.2391
45.2739 12.0612
45.4673 11.8607
45.6609 11.7042
45.8546 11.605
46.0484 11.415
46.2424 11.2497
46.4365 11.0566
46.631 10.8941
46.8254 10.75
47.0199 10.5885
47.2146 10.4579
47.4095 10.287
47.6044 10.1276
47.7996 9.99699
47.9948 9.8063
48.1902 9.67071
48.3858 9.53023
48.5815 9.44078
48.7774 9.27775
48.9734 9.1331
49.1696 9.01919
49.3661 8.86262
49.5626 8.72693
49.7592 8.56994
49.956 8.47372
50.153 8.33514
50.3501 8.19559
50.5474 8.07369
50.7448 7.95537
50.9424 7.87348
51.1402 7.73591
51.3381 7.56295
51.5362 7.49208
51.7344 7.3477
51.9328 7.21589
52.1316 7.0603
52.3304 6.964
52.5293 6.88914
52.7284 6.76562
52.9276 6.64291
53.1271 6.56426
53.3267 6.40257
53.5265 6.30101
53.7264 6.18991
53.9266 6.10405
54.1269 6.00241
54.3274 5.90213
54.528 5.72848
54.7289 5.60434
54.9301 5.39149
55.1314 5.31942
55.3328 5.08148
55.5344 4.89929
55.7361 4.77284

File: Ni3Fe_FD0825.xy
TT I
1.27165 7.07761
1.45013 5.79085
1.62863 5.65649
1.80712 4.80976
1.98562 4.75583
2.16411 4.72234
2.34263 4.71127
2.52115 7.1784
2.69965 8.2686
2.87818 8.8365
3.05672 11.2291
3.23527 15.1258
3.4138 18.3244
3.59237 23.4678
3.77094 25.4762
3.9495 29.4656
4.12809 33.8307
4.30669 96.1168
4.4853 52.6348
4.6639 55.0696
4.84253 68.4148
5.02118 86.3291
5.19981 403.282
5.37848 194.093
5.55716 101.563
5.73586 92.2974
5.91455 94.7335
6.09328 4596.12
6.27201 79.2445
6.45075 69.6615
6.62952 62.747
6.8083 59.1707
6.98711 55.0707
7.16591 55.6897
7.34475 65.2255
7.5236 53.8158
7.70247 56.4239
7.88135 57.1058
8.06026 61.985
8.23919 68.9405
8.41812 82.9367
8.59709 1219.47
8.77609 96.7899
8.9551 88.8471
9.13412 82.3547
9.31318 84.5893
9.49226 84.2547
9.67134 94.3951
9.85047 100.842
10.0296 343.079
10.2088 350.277
10.388 104.448
10.5672 538.15
10.7465 85.48
10.9257 77.0131
11.105 70.7267
11.2844 67.4922
11.4637 64.1419
11.6431 62.6638
11.8225 62.1543
12.002 63.9061
12.1814 161.031
12.3609 65.939
12.5405 64.3448
12.72 67.3077
12.8996 70.6873
13.0792 79.8849
13.2589 249.226
13.4386 117.791
13.6183 258.595
13.7981 93.4149
13.9779 75.1144
14.1577 70.847
14.3376 69.3762
14.5175 68.3871
14.6974 70.0484
14.8774 111.713
15.0574 140.404
15.2374 68.6714
15.4175 65.58
15.5976 65.4281
15.7778 95.6539
15.958 146.32
16.1382 60.7473
16.3185 57.3517
16.4988 54.7705
16.6792 53.8335
16.8596 54.1347
17.04 55.4485
17.2205 66.9489
17.401 68.399
17.5815 58.5322
17.7622 60.8168
17.9428 73.1833
18.1237 141.067
18.3044 91.4401
18.4852 73.8141
18.666 59.4079
18.8469 57.5382
19.0278 56.1772
19.2088 58.8189
19.3898 75.5949
19.5709 53.4561
19.752 52.8111
19.9332 55.4046
20.1144 69.7839
20.2957 63.9946
20.477 52.3092
20.6586 49.1049
20.84 48.2657
21.0215 48.1584
21.203 50.5006
21.3846 48.3021
21.5662 48.551
21.7479 52.399
21.9297 64.2267
22.1115 55.5506
22.2933 49.0522
22.4753 48.1401
22.6572 48.5359
22.8393 51.5579
23.0214 56.3335
23.2037 48.1987
23.3859 49.3489
23.5682 56.8951
23.7505 47.2436
23.9329 44.6673
24.1154 43.7725
24.2979 42.8536
24.4805 42.5802
24.6631 42.394
24.8458 41.7313
25.0286 42.5175
25.2114 44.1775
25.3943 44.1062
25.5773 40.3534
25.7605 39.9561
25.9436 40.4188
26.1268 41.2029
26.31 39.7345
26.4933 40.2915
26.6767 41.6571
26.8601 39.9415
27.0437 38.4426
27.2272 37.9849
27.4109 38.064
27.5946 37.9629
27.7784 37.4767
27.9623 38.1529
28.1462 38.3442
28.3304 36.6715
28.5145 35.593
28.6987 35.242
28.8829 35.0238
29.0673 34.3012
29.2517 33.9278
29.4361 33.6752
29.6207 32.6752
29.8053 32.4515
29.99 32.3178
30.1748 32.0358
30.3597 31.8415
30.5447 31.8675
30.7297 31.9732
30.915 31.201
31.1002 30.8629
31.2855 30.4275
31.4708 30.6046
31.6563 30.0462
31.8418 29.8314
32.0275 29.5297
32.2132 29.0653
32.399 28.588
32.5848 28.2041
32.7708 27.8715
32.9569 27.6917
33.143 27.5432
33.3293 27.0896
33.5158 26.7257
33.7022 26.2917
33.8887 26.0374
34.0753 25.7488
34.262 25.3133
34.4488 24.9949
34.6357 24.7444
34.8227 24.4168
35.0098 24.1577
35.1969 23.9468
35.3842 23.7585
35.5716 23.4753
35.759 23.1592
35.9468 22.8339
36.1345 22.6901
36.3222 22.3968
36.5101 22.2367
36.6981 21.8839
36.8861 21.5971
37.0743 21.2655
37.2626 20.9763
37.451 20.7048
37.6395 20.5888
37.8281 20.2037
38.0168 19.9386
38.2056 19.742
38.3945 19.4663
38.5837 19.2075
38.7728 19.0169
38.9621 18.7195
39.1514 18.4527
39.3409 18.2529
39.5304 18.1014
39.7201 17.8599
39.9099 17.5989
40.0999 17.4305
40.2899 17.2046
40.48 16.8996
40.6703 16.7367
40.8607 16.5949
41.0512 16.3616
41.242 16.0191
41.4327 15.9358
41.6236 15.6778
41.8146 15.5053
42.0057 15.2363
42.1969 15.047
42.3882 14.8786
42.5797 14.6188
42.7713 14.4189
42.963 14.3431
43.1549 14.0624
43.3468 13.8486
43.5389 13.6769
43.7312 13.4695
43.9237 13.2892
44.1162 13.0955
44.3088 12.9248
44.5016 12.7605
44.6945 12.554
44.8875 12.4127
45.0806 12.2301
45.2739 12.0356
45.4673 11.8878
45.6609 11.7271
45.8546 11.6025
46.0484 11.4144
46.2424 11.2451
46.4365 11.0871
46.631 10.8797
46.8254 10.7417
47.0199 10.5857
47.2146 10.4465
47.4095 10.2846
47.6044 10.1376
47.7996 9.98047
47.9948 9.81348
48.1902 9.67199
48.3858 9.56738
48.5815 9.41654
48.7774 9.2934
48.9734 9.12267
49.1696 9.02579
49.3661 8.86004
49.5626 8.69792
49.7592 8.57631
49.956 8.48985
50.153 8.34345
50.3501 8.21547
50.5474 8.0967
50.7448 7.95439
50.9424 7.83193
51.1402 7.74167
51.3381 7.56047
51.5362 7.52797
51.7344 7.30613
51.9328 7.22022
52.1316 7.11321
52.3304 6.97611
52.5293 6.86367
52.7284 6.74441
52.9276 6.63257
53.1271 6.56167
53.3267 6.43493
53.5265 6.27886
53.7264 6.2137
53.9266 6.089
54.1269 5.98275
54.3274 5.85047
54.528 5.72567
54.7289 5.58426
54.9301 5.44851
55.1314 5.27684
55.3328 5.07627
55.5344 4.92464
55.7361 4.80697

File: Ni3Fe_FD0827.xy
TT I
1.27165 7.42592
1.45013 6.09733
1.62863 4.94539
1.80712 4.94947
1.98562 5.03835
2.16411 4.88985
2.34263 5.7854
2.52115 6.81268
2.69965 8.60859
2.87818 8.52464
3.05672 10.4581
3.23527 15.1681
3.4138 18.5693
3.59237 23.2365
3.77094 25.5421
3.9495 29.1706
4.12809 33.9663
4.30669 96.1393
4.4853 52.8037
4.6639 55.2611
4.84253 68.3524
5.02118 86.5988
5.19981 404.303
5.37848 195.02
5.55716 101.503
5.73586 92.468
5.91455 95.1069
6.09328 4587.65
6.27201 79.0361
6.45075 69.9821
6.62952 62.7761
6.8083 59.5233
6.98711 54.9614
7.16591 55.8659
7.34475 64.3339
7.5236 53.6022
7.70247 56.3849
7.88135 57.2574
8.06026 62.1062
8.23919 69.0078
8.41812 82.8477
8.59709 1218.16
8.77609 97.0144
8.9551 89.1661
9.13412 82.8625
9.31318 84.7554
9.49226 84.1423
9.67134 94.9363
9.85047 101.215
10.0296 342.886
10.2088 351.474
10.388 104.578
10.5672 537.13
10.7465 85.4557
10.9257 77.2971
11.105 70.6985
11.2844 67.5874
11.4637 64.0981
11.6431 62.7384
11.8225 62.3695
12.002 63.9118
12.1814 161.483
12.3609 65.6326
12.5405 64.4796
12.72 67.4271
12.8996 70.7085
13.0792 79.9779
13.2589 249.527
13.4386 117.811
13.6183 258.73
13.7981 93.2503
13.9779 74.8392
14.1577 71.2151
14.3376 69.6355
14.5175 68.0879
14.6974 69.9381
14.8774 112.052
15.0574 140.34
15.2374 68.6992
15.4175 65.5762
15.5976 65.3374
15.7778 95.627
15.958 146.478
16.1382 60.6181
16.3185 57.2699
16.4988 54.9165
16.6792 53.9411
16.8596 54.2897
17.04 55.5727
17.2205 66.721
17.401 68.3096
17.5815 58.5136
17.7622 60.7849
17.9428 73.2076
18.1237 141.012
18.3044 91.3705
18.4852 73.8354
18.666 59.6533
18.8469 57.5083
19.0278 56.0181
19.2088 58.7702
19.3898 75.6061
19.5709 53.4751
19.752 52.6835
19.9332 55.8132
20.1144 69.6175
20.2957 64.0799
20.477 52.2529
20.6586 49.1122
20.84 48.3401
21.0215 48.133
21.203 50.5694
21.3846 48.3122
21.5662 48.4389
21.7479 52.2977
21.9297 64.1787
22.1115 55.8696
22.2933 49.1289
22.4753 48.2805
22.6572 48.3819
22.8393 51.6573
23.0214 56.4084
23.2037 48.3299
23.3859 49.3661
23.5682 56.997
23.7505 47.2278
23.9329 44.6748
24.1154 43.8144
24.2979 43.021
24.4805 42.3885
24.6631 42.4058
24.8458 41.7013
25.0286 42.3807
25.2114 44.191
25.3943 44.0996
25.5773 40.439
25.7605 39.928
25.9436 40.4644
26.1268 41.3404
26.31 39.6309
26.4933 40.3112
26.6767 41.8483
26.8601 39.8829
27.0437 38.4438
27.2272 38.07
27.4109 38.0678
27.5946 37.9229
27.7784 37.5726
27.9623 38.1558
28.1462 38.3817
28.3304 36.698
28.5145 35.5423
28.6987 35.2713
28.8829 34.9536
29.0673 34.2704
29.2517 33.9183
29.4361 33.8169
29.6207 32.7698
29.8053 32.457
29.99 32.1527
30.1748 32.1463
30.3597 31.9342
30.5447 31.8597
30.7297 31.8811
30.915 31.2795
31.1002 30.7663
31.2855 30.5299
31.4708 30.4814
31.6563 29.9967
31.8418 29.8181
32.0275 29.5905
32.2132 29.0918
32.399 28.5322
32.5848 28.1413
32.7708 27.8847
32.9569 27.7021
33.143 27.5669
33.3293 27.0967
33.5158 26.7167
33.7022 26.3294
33.8887 26.0581
34.0753 25.7245
34.262 25.3432
34.4488 25.0126
34.6357 24.625
34.8227 24.3783
35.0098 24.2272
35.1969 23.9239
35.3842 23.7322
35.5716 23.4852
35.759 23.2146
35.9468 22.8181
36.1345 22.6727
36.3222 22.3739
36.5101 22.1513
36.6981 21.8609
36.8861 21.528
37.0743 21.1953
37.2626 21.0323
37.451 20.7257
37.6395 20.5689
37.8281 20.2482
38.0168 19.9411
38.2056 19.7673
38.3945 19.4462
38.5837 19.2489
38.7728 19.0018
38.9621 18.7542
39.1514 18.5673
39.3409 18.1984
39.5304 18.0546
39.7201 17.8302
39.9099 17.6489
40.0999 17.3757
40.2899 17.1972
40.48 16.9444
40.6703 16.7555
40.8607 16.5614
41.0512 16.3251
41.242 16.0591
41.4327 15.8835
41.6236 15.6525
41.8146 15.4691
42.0057 15.2198
42.1969 15.0334
42.3882 14.8417
42.5797 14.639
42.7713 14.4371
42.963 14.2528
43.1549 14.0218
43.3468 13.8227
43.5389 13.6897
43.7312 13.4661
43.9237 13.2904
44.1162 13.1161
44.3088 12.9503
44.5016 12.7509
44.6945 12.5246
44.8875 12.4499
45.0806 12.1988
45.2739 12.0878
45.4673 11.8928
45.6609 11.679
45.8546 11.555
46.0484 11.4327
46.2424 11.2629
46.4365 11.1068
46.631 10.8894
46.8254 10.7273
47.0199 10.5798
47.2146 10.4033
47.4095 10.2696
47.6044 10.1182
47.7996 9.94841
47.9948 9.80288
48.1902 9.70875
48.3858 9.5496
48.5815 9.42406
48.7774 9.26439
48.9734 9.13195
49.1696 9.00932
49.3661 8.85515
49.5626 8.70969
49.7592 8.61771
49.956 8.50277
50.153 8.31276
50.3501 8.17695
50.5474 8.07589
50.7448 7.94695
50.9424 7.84506
51.1402 7.74407
51.3381 7.55781
51.5362 7.43819
51.7344 7.36877
51.9328 7.24005
52.1316 7.09158
52.3304 6.98523
52.5293 6.89857
52.7284 6.77205
52.9276 6.68095
53.1271 6.5718
53.3267 6.42509
53.5265 6.30906
53.7264 6.1799
53.9266 6.08014
54.1269 5.9526
54.3274 5.87245
54.528 5.73413
54.7289 5.57824
54.9301 5.43765
55.1314 5.30916
55.3328 5.07263
55.5344 4.9595
55.7361 4.77718

File: Ni3Fe_FD0828.xy
TT I
1.27165 7.18212
1.45013 5.84417
1.62863 5.27175
1.80712 4.9968
1.98562 4.48266
2.16411 4.86333
2.34263 6.05173
2.52115 7.84828
2.69965 8.35702
2.87818 8.98747
3.05672 11.6745
3.23527 14.7123
3.4138 18.6179
3.59237 22.7394
3.77094 25.87
3.9495 29.4263
4.12809 33.8427
4.30669 94.6863
4.4853 52.356
4.6639 55.2827
4.84253 67.9232
5.02118 86.8754
5.19981 406.528
5.37848 195.092
5.55716 101.578
5.73586 92.3531
5.91455 95.1367
6.09328 4576.74
6.27201 79.0669
6.45075 70.2053
6.62952 62.6694
6.8083 59.4582
6.98711 55.0574
7.16591 56.0696
7.34475 64.4089
7.5236 53.9217
7.70247 56.7663
7.88135 57.2036
8.06026 62.4418
8.23919 68.8662
8.41812 83.2293
8.59709 1218.89
8.77609 96.9763
8.9551 88.7307
9.13412 82.9292
9.31318 84.8232
9.49226 84.4606
9.67134 94.8886
9.85047 100.501
10.0296 343.49
10.2088 350.991
10.388 104.435
10.5672 538.16
10.7465 85.5398
10.9257 77.2632
11.105 70.6752
11.2844 67.6578
11.4637 64.0558
11.6431 62.7231
11.8225 62.1544
12.002 64.1862
12.1814 161.941
12.3609 65.6774
12.5405 64.5273
12.72 67.2048
12.8996 71.0104
13.0792 79.7319
13.2589 250.34
13.4386 117.319
13.6183 259.65
13.7981 93.1968
13.9779 75.2
14.1577 71.2937
14.3376 69.4037
14.5175 68.0387
14.6974 70.0435
14.8774 112.115
15.0574 140.208
15.2374 68.8912
15.4175 65.9292
15.5976 65.2436
15.7778 95.708
15.958 146.013
16.1382 60.911
16.3185 57.0472
16.4988 54.7078
16.6792 53.8271
16.8596 54.3399
17.04 55.5907
17.2205 66.5683
17.401 68.669
17.5815 58.6346
17.7622 60.8339
17.9428 73.1775
18.1237 141.267
18.3044 91.3632
18.4852 73.6103
18.666 59.7017
18.8469 57.3012
19.0278 56.2199
19.2088 58.6423
19.3898 75.6694
19.5709 53.4768
19.752 52.6922
19.9332 55.7046
20.1144 69.6186
20.2957 63.9674
20.477 52.3522
20.6586 49.1495
20.84 48.4044
21.0215 47.9607
21.203 50.5693
21.3846 48.2924
21.5662 48.3958
21.7479 52.3236
21.9297 63.9644
22.1115 55.7327
22.2933 48.924
22.4753 48.1942
22.6572 48.3979
22.8393 51.6182
23.0214 56.2944
23.2037 48.2277
23.3859 49.2654
23.5682 57.0257
23.7505 47.3913
23.9329 44.7138
24.1154 43.6446
24.2979 42.7424
24.4805 42.4996
24.6631 42.2037
24.8458 41.6864
25.0286 42.3204
25.2114 44.1413
25.3943 44.0042
25.5773 40.4064
25.7605 39.8571
25.9436 40.4321
26.1268 41.2324
26.31 39.6639
26.4933 40.2854
26.6767 41.758
26.8601 39.8954
27.0437 38.3318
27.2272 38.0741
27.4109 38.1243
27.5946 38.0405
27.7784 37.3938
27.9623 38.1439
28.1462 38.2564
28.3304 36.6008
28.5145 35.5279
28.6987 35.1553
28.8829 35.0703
29.0673 34.2862
29.2517 33.9675
29.4361 33.7454
29.6207 32.7067
29.8053 32.4453
29.99 32.146
30.1748 32.0701
30.3597 31.8364
30.5447 31.8271
30.7297 31.8942
30.915 31.1646
31.1002 30.779
31.2855 30.5449
31.4708 30.4692
31.6563 29.9186
31.8418 29.868
32.0275 29.6046
32.2132 28.953
32.399 28.5785
32.5848 28.2002
32.7708 27.7837
32.9569 27.733
33.143 27.5136
33.3293 27.0602
33.5158 26.7229
33.7022 26.2677
33.8887 26.0547
34.0753 25.6513
34.262 25.4082
34.4488 24.9361
34.6357 24.7161
34.8227 24.3862
35.0098 24.1977
35.1969 23.9602
35.3842 23.7199
35.5716 23.5091
35.759 23.2171
35.9468 22.8894
36.1345 22.6535
36.3222 22.4249
36.5101 22.1977
36.6981 21.9317
36.8861 21.5225
37.0743 21.2138
37.2626 20.9953
37.451 20.7079
37.6395 20.6097
37.8281 20.2471
38.0168 19.9759
38.2056 19.8181
38.3945 19.4763
38.5837 19.1801
38.7728 18.9677
38.9621 18.7383
39.1514 18.4802
39.3409 18.209
39.5304 18.0168
39.7201 17.8645
39.9099 17.6331
40.0999 17.4161
40.2899 17.1505
40.48 16.902
40.6703 16.7486
40.8607 16.5257
41.0512 16.2667
41.242 16.0778
41.4327 15.8418
41.6236 15.6694
41.8146 15.4265
42.0057 15.2514
42.1969 15.0343
42.3882 14.8562
42.5797 14.6818
42.7713 14.4545
42.963 14.2375
43.1549 14.0985
43.3468 13.8561
43.5389 13.7108
43.7312 13.4062
43.9237 13.3027
44.1162 13.1113
44.3088 12.9038
44.5016 12.7598
44.6945 12.5491
44.8875 12.3894
45.0806 12.2673
45.2739 12.0259
45.4673 11.8976
45.6609 11.7162
45.8546 11.5636
46.0484 11.3799
46.2424 11.2129
46.4365 11.0886
46.631 10.8667
46.8254 10.7455
47.0199 10.5509
47.2146 10.401
47.4095 10.2266
47.6044 10.1007
47.7996 9.91498
47.9948 9.79437
48.1902 9.67393
48.3858 9.53085
48.5815 9.39953
48.7774 9.27643
48.9734 9.17234
49.1696 8.98325
49.3661 8.88585
49.5626 8.67588
49.7592 8.63341
49.956 8.47109
50.153 8.3346
50.3501 8.19174
50.5474 8.07733
50.7448 7.95757
50.9424 7.81335
51.1402 7.70339
51.3381 7.60823
51.5362 7.45877
51.7344 7.37353
51.9328 7.22288
52.1316 7.0841
52.3304 6.99275
52.5293 6.85601
52.7284 6.75212
52.9276 6.60056
53.1271 6.54049
53.3267 6.42734
53.5265 6.28623
53.7264 6.20367
53.9266 6.08073
54.1269 5.99111
54.3274 5.80638
54.528 5.75482
54.7289 5.57665
54.9301 5.41245
55.1314 5.32993
55.3328 5.0934
55.5344 4.92961
55.7361 4.75513

File: Ni3Fe_FD0829.xy
TT I
1.27165 7.63052
1.45013 6.4273
1.62863 5.27379
1.80712 5.40379
1.98562 3.82493
2.16411 4.49189
2.34263 5.31105
2.52115 7.20234
2.69965 8.97149
2.87818 8.80813
3.05672 11.0249
3.23527 15.2471
3.4138 18.8161
3.59237 23.3175
3.77094 25.8256
3.9495 29.8145
4.12809 34.1735
4.30669 93.0509
4.4853 52.2858
4.6639 55.1285
4.84253 68.595
5.02118 86.9701
5.19981 407.14
5.37848 195.585
5.55716 101.217
5.73586 92.3801
5.91455 95.1011
6.09328 4554.13
6.27201 79.4877
6.45075 69.9052
6.62952 62.8001
6.8083 59.2643
6.98711 55.0209
7.16591 56.1236
7.34475 64.2729
7.5236 53.5552
7.70247 57.113
7.88135 57.1619
8.06026 62.3427
8.23919 68.9281
8.41812 83.1371
8.59709 1218.52
8.77609 97.1321
8.9551 88.8939
9.13412 82.6446
9.31318 85.041
9.49226 84.8828
9.67134 95.0482
9.85047 101.284
10.0296 345.036
10.2088 349.9
10.388 104.313
10.5672 538.091
10.7465 85.464
10.9257 77.1784
11.105 70.784
11.2844 67.4567
11.4637 64.1551
11.6431 62.8231
11.8225 62.2966
12.002 64.0676
12.1814 161.743
12.3609 65.7418
12.5405 64.433
12.72 67.3476
12.8996 71.0201
13.0792 79.6918
13.2589 249.729
13.4386 117.262
13.6183 259.425
13.7981 93.4526
13.9779 75.0789
14.1577 71.187
14.3376 69.5411
14.5175 68.2985
14.6974 69.9969
14.8774 112.143
15.0574 139.902
15.2374 68.4883
15.4175 65.4006
15.5976 65.2907
15.7778 95.7675
15.958 146.141
16.1382 60.6342
16.3185 57.2916
16.4988 54.8049
16.6792 53.7658
16.8596 54.4667
17.04 55.3119
17.2205 66.8746
17.401 68.4244
17.5815 58.736
17.7622 60.7988
17.9428 73.1867
18.1237 141.396
18.3044 91.5894
18.4852 73.4816
18.666 59.5969
18.8469 57.5524
19.0278 56.1278
19.2088 58.5863
19.3898 75.3188
19.5709 53.4789
19.752 52.8477
19.9332 55.8981
20.1144 69.807
20.2957 64.1409
20.477 52.4367
20.6586 49.1146
20.84 48.3143
21.0215 47.9998
21.203 50.4099
21.3846 48.2753
21.5662 48.4872
21.7479 52.2088
21.9297 63.8623
22.1115 55.61
22.2933 49.1625
22.4753 48.2076
22.6572 48.6159
22.8393 51.7448
23.0214 56.4807
23.2037 48.308
23.3859 49.3248
23.5682 56.967
23.7505 47.3942
23.9329 44.7245
24.1154 43.7012
24.2979 42.8137
24.4805 42.4459
24.6631 42.2764
24.8458 41.7648
25.0286 42.4683
25.2114 44.1858
25.3943 43.9467
25.5773 40.4485
25.7605 39.9761
25.9436 40.5572
26.1268 41.279
26.31 39.5678
26.4933 40.3722
26.6767 41.797
26.8601 40.0113
27.0437 38.4695
27.2272 38.0903
27.4109 38.0322
27.5946 37.8835
27.7784 37.4649
27.9623 38.0509
28.1462 38.4037
28.3304 36.6356
28.5145 35.5869
28.6987 35.2629
28.8829 35.069
29.0673 34.2597
29.2517 33.9321
29.4361 33.7494
29.6207 32.6721
29.8053 32.5112
29.99 32.1818
30.1748 32.0569
30.3597 31.8531
30.5447 31.8008
30.7297 31.8718
30.915 31.2736
31.1002 30.7844
31.2855 30.5635
31.4708 30.517
31.6563 29.956
31.8418 29.782
32.0275 29.605
32.2132 29.0291
32.399 28.6443
32.5848 28.1158
32.7708 27.8162
32.9569 27.7035
33.143 27.5799
33.3293 27.0652
33.5158 26.7129
33.7022 26.2507
33.8887 25.9892
34.0753 25.7033
34.262 25.2771
34.4488 24.8761
34.6357 24.6777
34.8227 24.3985
35.0098 24.1681
35.1969 23.9496
35.3842 23.7546
35.5716 23.5238
35.759 23.2313
35.9468 22.894
36.1345 22.6118
36.3222 22.4433
36.5101 22.1777
36.6981 21.8201
36.8861 21.5334
37.0743 21.269
37.2626 20.9308
37.451 20.7225
37.6395 20.5728
37.8281 20.2257
38.0168 20.0009
38.2056 19.7286
38.3945 19.4236
38.5837 19.2897
38.7728 18.9964
38.9621 18.6821
39.1514 18.4967
39.3409 18.1641
39.5304 18.0667
39.7201 17.8413
39.9099 17.6017
40.0999 17.3799
40.2899 17.2011
40.48 16.8979
40.6703 16.7024
40.8607 16.5513
41.0512 16.3143
41.242 16.1238
41.4327 15.8676
41.6236 15.6565
41.8146 15.4616
42.0057 15.2411
42.1969 15.0662
42.3882 14.8435
42.5797 14.6217
42.7713 14.4306
42.963 14.2558
43.1549 14.033
43.3468 13.8552
43.5389 13.6665
43.7312 13.4538
43.9237 13.2992
44.1162 13.1009
44.3088 12.9127
44.5016 12.737
44.6945 12.6102
44.8875 12.4438
45.0806 12.241
45.2739 12.0318
45.4673 11.8769
45.6609 11.7104
45.8546 11.5881
46.0484 11.3949
46.2424 11.2533
46.4365 11.0934
46.631 10.8863
46.8254 10.7409
47.0199 10.6011
47.2146 10.4016
47.4095 10.2521
47.6044 10.1134
47.7996 9.93032
47.9948 9.83057
48.1902 9.68677
48.3858 9.5406
48.5815 9.39557
48.7774 9.29327
48.9734 9.12036
49.1696 9.01278
49.3661 8.83535
49.5626 8.67403
49.7592 8.61072
49.956 8.45902
50.153 8.3421
50.3501 8.20924
50.5474 8.09005
50.7448 7.98219
50.9424 7.83682
51.1402 7.76482
51.3381 7.58599
51.5362 7.46612
51.7344 7.31941
51.9328 7.22213
52.1316 7.09157
52.3304 6.96161
52.5293 6.84583
52.7284 6.77505
52.9276 6.64699
53.1271 6.5345
53.3267 6.44095
53.5265 6.29291
53.7264 6.20865
53.9266 6.11446
54.1269 5.98613
54.3274 5.91066
54.528 5.73707
54.7289 5.58148
54.9301 5.39882
55.1314 5.29591
55.3328 5.15388
55.5344 4.91585
55.7361 4.74238