Folder: NiFe_MOF_catalyst_paper/XRD (part 157)

File: Ni3Fe_FD0853.xy
TT I
1.27165 6.93896
1.45013 6.22326
1.62863 4.48299
1.80712 4.31464
1.98562 4.63124
2.16411 4.92476
2.34263 5.8537
2.52115 7.67547
2.69965 8.27333
2.87818 8.95379
3.05672 11.2889
3.23527 15.034
3.4138 19.3301
3.59237 23.4831
3.77094 26.1334
3.9495 29.4513
4.12809 34.5489
4.30669 208.448
4.4853 63.9875
4.6639 54.9181
4.84253 66.3742
5.02118 85.0865
5.19981 296.26
5.37848 176.056
5.55716 100.566
5.73586 90.646
5.91455 91.4858
6.09328 4460.34
6.27201 81.0459
6.45075 66.1069
6.62952 61.9624
6.8083 58.0565
6.98711 55.0376
7.16591 54.3983
7.34475 88.5596
7.5236 54.1501
7.70247 55.3353
7.88135 57.144
8.06026 61.2439
8.23919 68.4046
8.41812 83.315
8.59709 1136.66
8.77609 97.7318
8.9551 90.4654
9.13412 81.0536
9.31318 81.3979
9.49226 83.5486
9.67134 96.999
9.85047 98.1498
10.0296 311.201
10.2088 396.917
10.388 102.667
10.5672 538.04
10.7465 85.3472
10.9257 77.2047
11.105 70.7621
11.2844 69.4518
11.4637 64.1158
11.6431 62.7017
11.8225 61.4515
12.002 62.4908
12.1814 152.591
12.3609 69.1796
12.5405 63.4843
12.72 68.9117
12.8996 69.8472
13.0792 77.2817
13.2589 233.287
13.4386 121.575
13.6183 249.172
13.7981 96.0997
13.9779 74.6321
14.1577 71.4601
14.3376 70.6107
14.5175 67.8646
14.6974 69.5154
14.8774 106.939
15.0574 147.688
15.2374 70.1557
15.4175 65.5189
15.5976 64.6907
15.7778 92.0079
15.958 152.739
16.1382 61.9457
16.3185 57.8078
16.4988 54.8307
16.6792 53.6533
16.8596 54.6071
17.04 54.8646
17.2205 65.5662
17.401 70.1385
17.5815 58.3363
17.7622 60.4078
17.9428 71.6276
18.1237 138.019
18.3044 89.8844
18.4852 76.209
18.666 59.4226
18.8469 57.2781
19.0278 56.256
19.2088 58.4639
19.3898 75.8582
19.5709 53.3526
19.752 52.4674
19.9332 55.4239
20.1144 68.8324
20.2957 63.5897
20.477 52.8512
20.6586 49.0887
20.84 48.2103
21.0215 47.8375
21.203 50.3778
21.3846 48.3056
21.5662 48.0043
21.7479 51.7165
21.9297 63.5412
22.1115 55.3807
22.2933 49.2063
22.4753 48.325
22.6572 48.0703
22.8393 51.1382
23.0214 56.6426
23.2037 48.129
23.3859 49.0312
23.5682 56.6756
23.7505 47.7822
23.9329 44.6215
24.1154 43.6125
24.2979 42.8188
24.4805 42.5878
24.6631 42.109
24.8458 41.6842
25.0286 42.1777
25.2114 44.0231
25.3943 44.0946
25.5773 40.3896
25.7605 39.9019
25.9436 40.183
26.1268 41.1869
26.31 39.5866
26.4933 40.2127
26.6767 41.7079
26.8601 39.8599
27.0437 38.3758
27.2272 38.0476
27.4109 37.8546
27.5946 37.7849
27.7784 37.4565
27.9623 37.9718
28.1462 38.262
28.3304 36.7238
28.5145 35.518
28.6987 35.163
28.8829 35.0598
29.0673 34.2206
29.2517 33.8911
29.4361 33.8277
29.6207 32.7213
29.8053 32.4797
29.99 32.095
30.1748 32.0168
30.3597 31.7644
30.5447 31.8342
30.7297 31.8079
30.915 31.1677
31.1002 30.7311
31.2855 30.4446
31.4708 30.3953
31.6563 30.0873
31.8418 29.7317
32.0275 29.5482
32.2132 29.0165
32.399 28.6044
32.5848 28.1165
32.7708 27.7395
32.9569 27.6542
33.143 27.401
33.3293 26.9744
33.5158 26.6773
33.7022 26.2733
33.8887 26.0288
34.0753 25.7098
34.262 25.3559
34.4488 25.0027
34.6357 24.7157
34.8227 24.4058
35.0098 24.1846
35.1969 23.9399
35.3842 23.7818
35.5716 23.4654
35.759 23.2204
35.9468 22.8348
36.1345 22.6215
36.3222 22.4063
36.5101 22.1778
36.6981 21.7989
36.8861 21.5464
37.0743 21.3044
37.2626 20.9824
37.451 20.7564
37.6395 20.5587
37.8281 20.2443
38.0168 19.9447
38.2056 19.776
38.3945 19.4924
38.5837 19.2527
38.7728 18.9648
38.9621 18.6888
39.1514 18.5297
39.3409 18.2153
39.5304 17.9943
39.7201 17.887
39.9099 17.6031
40.0999 17.3456
40.2899 17.1846
40.48 16.8833
40.6703 16.7548
40.8607 16.528
41.0512 16.3245
41.242 16.0738
41.4327 15.8349
41.6236 15.6341
41.8146 15.4709
42.0057 15.2287
42.1969 15.0096
42.3882 14.8789
42.5797 14.6278
42.7713 14.4566
42.963 14.3112
43.1549 14.0173
43.3468 13.8182
43.5389 13.7179
43.7312 13.4613
43.9237 13.348
44.1162 13.1364
44.3088 12.9206
44.5016 12.7482
44.6945 12.555
44.8875 12.4102
45.0806 12.2433
45.2739 12.1024
45.4673 11.8876
45.6609 11.7043
45.8546 11.5864
46.0484 11.3748
46.2424 11.2009
46.4365 11.093
46.631 10.9122
46.8254 10.7438
47.0199 10.6068
47.2146 10.4781
47.4095 10.2284
47.6044 10.1192
47.7996 9.97245
47.9948 9.82361
48.1902 9.66759
48.3858 9.55913
48.5815 9.42414
48.7774 9.27827
48.9734 9.15335
49.1696 9.01249
49.3661 8.8719
49.5626 8.70276
49.7592 8.60985
49.956 8.44448
50.153 8.33281
50.3501 8.17088
50.5474 8.10763
50.7448 7.9449
50.9424 7.86602
51.1402 7.72124
51.3381 7.57469
51.5362 7.48652
51.7344 7.35817
51.9328 7.20296
52.1316 7.11563
52.3304 7.00891
52.5293 6.87309
52.7284 6.75318
52.9276 6.61355
53.1271 6.54078
53.3267 6.43367
53.5265 6.29366
53.7264 6.19012
53.9266 6.14275
54.1269 6.01299
54.3274 5.85304
54.528 5.71913
54.7289 5.57396
54.9301 5.46035
55.1314 5.30153
55.3328 5.12825
55.5344 4.92286
55.7361 4.79035

File: Ni3Fe_FD0854.xy
TT I
1.27165 6.93084
1.45013 6.24154
1.62863 5.43532
1.80712 5.06469
1.98562 4.86143
2.16411 5.38834
2.34263 5.21032
2.52115 7.54072
2.69965 8.51031
2.87818 9.09231
3.05672 10.6887
3.23527 15.1267
3.4138 18.5932
3.59237 23.9737
3.77094 26.2566
3.9495 29.742
4.12809 34.5488
4.30669 209.866
4.4853 64.1038
4.6639 54.9109
4.84253 66.1799
5.02118 85.3748
5.19981 296.876
5.37848 176.59
5.55716 100.727
5.73586 90.6092
5.91455 91.8125
6.09328 4446.24
6.27201 81.0506
6.45075 66.401
6.62952 62.0154
6.8083 57.8219
6.98711 55.1174
7.16591 54.8437
7.34475 88.4824
7.5236 54.4621
7.70247 55.575
7.88135 57.2717
8.06026 61.2422
8.23919 68.7638
8.41812 83.6714
8.59709 1135.41
8.77609 97.4494
8.9551 90.3204
9.13412 81.1078
9.31318 81.7352
9.49226 83.461
9.67134 96.9542
9.85047 98.1926
10.0296 311.025
10.2088 395.017
10.388 102.234
10.5672 536.264
10.7465 85.3497
10.9257 77.4753
11.105 70.8138
11.2844 69.4067
11.4637 64.1807
11.6431 62.7686
11.8225 61.7181
12.002 62.2952
12.1814 153.634
12.3609 69.4503
12.5405 63.5534
12.72 68.9449
12.8996 69.8108
13.0792 77.4764
13.2589 233.727
13.4386 121.321
13.6183 248.982
13.7981 95.8429
13.9779 74.8556
14.1577 71.418
14.3376 70.5141
14.5175 67.8924
14.6974 69.2311
14.8774 106.782
15.0574 147.424
15.2374 70.1145
15.4175 65.2912
15.5976 64.8209
15.7778 91.7449
15.958 152.958
16.1382 61.9396
16.3185 57.8145
16.4988 54.671
16.6792 53.7578
16.8596 54.5855
17.04 54.7214
17.2205 65.75
17.401 69.9936
17.5815 58.4835
17.7622 60.1354
17.9428 71.3969
18.1237 137.64
18.3044 89.9576
18.4852 76.1505
18.666 59.5548
18.8469 57.2092
19.0278 56.1678
19.2088 58.4047
19.3898 75.7906
19.5709 53.5482
19.752 52.6224
19.9332 55.3792
20.1144 68.7917
20.2957 63.7843
20.477 52.9948
20.6586 48.9891
20.84 48.1792
21.0215 47.9611
21.203 50.3727
21.3846 48.4172
21.5662 47.9931
21.7479 51.7613
21.9297 63.5136
22.1115 55.5746
22.2933 49.3019
22.4753 48.2665
22.6572 48.2757
22.8393 51.2695
23.0214 56.6646
23.2037 48.1067
23.3859 49.0069
23.5682 56.5738
23.7505 47.62
23.9329 44.591
24.1154 43.6789
24.2979 42.8758
24.4805 42.4289
24.6631 42.2996
24.8458 41.6937
25.0286 42.2501
25.2114 44.0778
25.3943 44.092
25.5773 40.3467
25.7605 39.9678
25.9436 40.3872
26.1268 41.1872
26.31 39.501
26.4933 40.2777
26.6767 41.6238
26.8601 39.8366
27.0437 38.573
27.2272 38.0444
27.4109 37.9437
27.5946 37.952
27.7784 37.4032
27.9623 37.9165
28.1462 38.4138
28.3304 36.7397
28.5145 35.5209
28.6987 35.1312
28.8829 34.9852
29.0673 34.2794
29.2517 33.8642
29.4361 33.7433
29.6207 32.8056
29.8053 32.6043
29.99 32.2113
30.1748 31.9523
30.3597 31.8102
30.5447 31.7029
30.7297 31.8729
30.915 31.2385
31.1002 30.7176
31.2855 30.5055
31.4708 30.4655
31.6563 30.031
31.8418 29.7926
32.0275 29.5786
32.2132 28.9946
32.399 28.5973
32.5848 28.0898
32.7708 27.8362
32.9569 27.6538
33.143 27.396
33.3293 26.9571
33.5158 26.68
33.7022 26.2354
33.8887 26.0819
34.0753 25.6389
34.262 25.3447
34.4488 24.9737
34.6357 24.6832
34.8227 24.3421
35.0098 24.2641
35.1969 23.8901
35.3842 23.704
35.5716 23.498
35.759 23.1929
35.9468 22.913
36.1345 22.6787
36.3222 22.3849
36.5101 22.1699
36.6981 21.8602
36.8861 21.5531
37.0743 21.1986
37.2626 20.9024
37.451 20.7808
37.6395 20.6117
37.8281 20.2646
38.0168 19.9365
38.2056 19.7847
38.3945 19.4692
38.5837 19.1841
38.7728 18.9993
38.9621 18.6783
39.1514 18.431
39.3409 18.3505
39.5304 18.0522
39.7201 17.8201
39.9099 17.6247
40.0999 17.3901
40.2899 17.1447
40.48 16.9699
40.6703 16.729
40.8607 16.5119
41.0512 16.3146
41.242 16.0506
41.4327 15.868
41.6236 15.6609
41.8146 15.5209
42.0057 15.2133
42.1969 15.0685
42.3882 14.9243
42.5797 14.6103
42.7713 14.4721
42.963 14.2839
43.1549 14.0605
43.3468 13.8857
43.5389 13.6589
43.7312 13.4876
43.9237 13.313
44.1162 13.1149
44.3088 12.9439
44.5016 12.6913
44.6945 12.6258
44.8875 12.399
45.0806 12.2399
45.2739 12.0695
45.4673 11.9063
45.6609 11.6941
45.8546 11.5387
46.0484 11.4078
46.2424 11.2091
46.4365 11.0758
46.631 10.9272
46.8254 10.7282
47.0199 10.5943
47.2146 10.4487
47.4095 10.2785
47.6044 10.1201
47.7996 9.96506
47.9948 9.83415
48.1902 9.65546
48.3858 9.57312
48.5815 9.40487
48.7774 9.25956
48.9734 9.13637
49.1696 9.04189
49.3661 8.86587
49.5626 8.69392
49.7592 8.61037
49.956 8.46441
50.153 8.34598
50.3501 8.22383
50.5474 8.09411
50.7448 7.99279
50.9424 7.84162
51.1402 7.7114
51.3381 7.58036
51.5362 7.45149
51.7344 7.35943
51.9328 7.23239
52.1316 7.06532
52.3304 6.99062
52.5293 6.84344
52.7284 6.72224
52.9276 6.64628
53.1271 6.54099
53.3267 6.47332
53.5265 6.29208
53.7264 6.19389
53.9266 6.09924
54.1269 5.99332
54.3274 5.85221
54.528 5.74944
54.7289 5.53953
54.9301 5.45479
55.1314 5.31812
55.3328 5.08814
55.5344 4.88219
55.7361 4.75925

File: Ni3Fe_FD0855.xy
TT I
1.27165 7.31753
1.45013 6.09506
1.62863 5.03347
1.80712 4.79186
1.98562 4.68678
2.16411 4.91921
2.34263 5.35374
2.52115 7.18613
2.69965 8.50966
2.87818 9.09177
3.05672 11.341
3.23527 15.4332
3.4138 18.7299
3.59237 24.0476
3.77094 26.0098
3.9495 29.2414
4.12809 34.3875
4.30669 212.904
4.4853 64.6147
4.6639 54.9745
4.84253 66.282
5.02118 85.1276
5.19981 296.389
5.37848 176.496
5.55716 100.392
5.73586 90.7295
5.91455 91.448
6.09328 4374.61
6.27201 81.8672
6.45075 66.3807
6.62952 62.3382
6.8083 57.9726
6.98711 55.0477
7.16591 54.6619
7.34475 89.4505
7.5236 54.3118
7.70247 55.3857
7.88135 57.338
8.06026 61.3517
8.23919 68.6717
8.41812 83.7647
8.59709 1135.94
8.77609 97.6468
8.9551 90.489
9.13412 80.8592
9.31318 81.1253
9.49226 83.5876
9.67134 97.0821
9.85047 98.4389
10.0296 309.109
10.2088 397.481
10.388 102.666
10.5672 530.271
10.7465 85.485
10.9257 77.4018
11.105 71.0167
11.2844 69.2538
11.4637 63.9819
11.6431 62.8981
11.8225 61.8474
12.002 62.5711
12.1814 154.215
12.3609 69.5744
12.5405 63.8587
12.72 68.864
12.8996 69.9496
13.0792 77.5526
13.2589 233.862
13.4386 121.389
13.6183 249.395
13.7981 96.1486
13.9779 74.8896
14.1577 71.4185
14.3376 70.6567
14.5175 67.9419
14.6974 69.2719
14.8774 106.87
15.0574 146.972
15.2374 70.0193
15.4175 65.349
15.5976 64.8761
15.7778 91.4086
15.958 153.143
16.1382 61.736
16.3185 57.9148
16.4988 54.7113
16.6792 53.7795
16.8596 54.4795
17.04 54.8421
17.2205 65.5569
17.401 70.1953
17.5815 58.4808
17.7622 60.4309
17.9428 71.4055
18.1237 137.817
18.3044 90.1308
18.4852 76.2062
18.666 59.5873
18.8469 57.2347
19.0278 56.0915
19.2088 58.4797
19.3898 75.7212
19.5709 53.7487
19.752 52.5474
19.9332 55.4866
20.1144 68.8967
20.2957 63.7501
20.477 53.0195
20.6586 49.0566
20.84 48.076
21.0215 47.956
21.203 50.2156
21.3846 48.4526
21.5662 48.0526
21.7479 51.6768
21.9297 63.6753
22.1115 55.6609
22.2933 49.2263
22.4753 48.2545
22.6572 48.1067
22.8393 51.2566
23.0214 56.4247
23.2037 48.1434
23.3859 48.9712
23.5682 56.6924
23.7505 47.7054
23.9329 44.6468
24.1154 43.605
24.2979 42.8746
24.4805 42.3293
24.6631 42.1335
24.8458 41.6731
25.0286 42.2654
25.2114 44.1417
25.3943 44.0765
25.5773 40.2768
25.7605 39.8299
25.9436 40.2896
26.1268 41.0553
26.31 39.5877
26.4933 40.207
26.6767 41.6446
26.8601 39.8648
27.0437 38.3527
27.2272 38.0884
27.4109 37.8169
27.5946 37.7941
27.7784 37.4318
27.9623 37.8661
28.1462 38.3504
28.3304 36.7701
28.5145 35.4835
28.6987 35.2412
28.8829 34.9798
29.0673 34.2022
29.2517 33.912
29.4361 33.7239
29.6207 32.6762
29.8053 32.4012
29.99 32.1843
30.1748 32.0884
30.3597 31.8291
30.5447 31.7623
30.7297 31.8151
30.915 31.2761
31.1002 30.7553
31.2855 30.4741
31.4708 30.4455
31.6563 29.9208
31.8418 29.7891
32.0275 29.5377
32.2132 28.952
32.399 28.5625
32.5848 28.1066
32.7708 27.8092
32.9569 27.6514
33.143 27.4965
33.3293 27.0307
33.5158 26.6761
33.7022 26.2891
33.8887 25.9664
34.0753 25.683
34.262 25.3715
34.4488 25.0016
34.6357 24.6777
34.8227 24.435
35.0098 24.2402
35.1969 23.8624
35.3842 23.6501
35.5716 23.5422
35.759 23.1161
35.9468 22.8632
36.1345 22.6233
36.3222 22.3349
36.5101 22.1408
36.6981 21.8297
36.8861 21.5145
37.0743 21.2657
37.2626 21.0032
37.451 20.6476
37.6395 20.5706
37.8281 20.2421
38.0168 20.0379
38.2056 19.6918
38.3945 19.4002
38.5837 19.1997
38.7728 18.9743
38.9621 18.7719
39.1514 18.472
39.3409 18.2748
39.5304 18.0613
39.7201 17.888
39.9099 17.625
40.0999 17.3845
40.2899 17.1109
40.48 16.9038
40.6703 16.7636
40.8607 16.5452
41.0512 16.2987
41.242 16.0083
41.4327 15.8906
41.6236 15.601
41.8146 15.4949
42.0057 15.284
42.1969 15.0893
42.3882 14.868
42.5797 14.6607
42.7713 14.5213
42.963 14.2219
43.1549 14.0593
43.3468 13.8951
43.5389 13.6947
43.7312 13.431
43.9237 13.3153
44.1162 13.0867
44.3088 12.9183
44.5016 12.7742
44.6945 12.5945
44.8875 12.4173
45.0806 12.2324
45.2739 12.0013
45.4673 11.887
45.6609 11.6985
45.8546 11.5846
46.0484 11.3687
46.2424 11.2292
46.4365 11.0794
46.631 10.8862
46.8254 10.7658
47.0199 10.5477
47.2146 10.4131
47.4095 10.2848
47.6044 10.1117
47.7996 9.96131
47.9948 9.80187
48.1902 9.6569
48.3858 9.55772
48.5815 9.44428
48.7774 9.30626
48.9734 9.15029
49.1696 9.01609
49.3661 8.87084
49.5626 8.71467
49.7592 8.62758
49.956 8.48169
50.153 8.31592
50.3501 8.20934
50.5474 8.05416
50.7448 7.98205
50.9424 7.82592
51.1402 7.71204
51.3381 7.5858
51.5362 7.4766
51.7344 7.35752
51.9328 7.24455
52.1316 7.04005
52.3304 7.00881
52.5293 6.87416
52.7284 6.75687
52.9276 6.67583
53.1271 6.5803
53.3267 6.40634
53.5265 6.30026
53.7264 6.21471
53.9266 6.09392
54.1269 5.96838
54.3274 5.89414
54.528 5.75089
54.7289 5.55681
54.9301 5.41521
55.1314 5.27901
55.3328 5.09586
55.5344 4.88961
55.7361 4.76227

File: Ni3Fe_FD0856.xy
TT I
1.27165 7.02714
1.45013 5.52939
1.62863 5.56015
1.80712 5.06889
1.98562 4.3527
2.16411 5.30771
2.34263 5.84628
2.52115 7.62258
2.69965 8.82233
2.87818 9.45958
3.05672 11.6962
3.23527 15.377
3.4138 18.85
3.59237 23.7836
3.77094 25.9245
3.9495 29.6887
4.12809 34.7728
4.30669 215.933
4.4853 64.8219
4.6639 54.8176
4.84253 66.1244
5.02118 85.2078
5.19981 295.796
5.37848 176.512
5.55716 100.251
5.73586 90.3541
5.91455 91.3927
6.09328 4368.08
6.27201 81.369
6.45075 66.3057
6.62952 61.9032
6.8083 57.8956
6.98711 55.5314
7.16591 54.7843
7.34475 89.8678
7.5236 54.2433
7.70247 55.6303
7.88135 57.2115
8.06026 61.3919
8.23919 68.3046
8.41812 83.485
8.59709 1133.29
8.77609 97.5227
8.9551 90.4633
9.13412 80.9164
9.31318 81.4091
9.49226 83.3333
9.67134 96.9748
9.85047 97.98
10.0296 307.963
10.2088 397.616
10.388 102.597
10.5672 526.335
10.7465 85.3618
10.9257 77.2214
11.105 71.2596
11.2844 69.6199
11.4637 64.3462
11.6431 63.0104
11.8225 61.5705
12.002 62.5161
12.1814 153.079
12.3609 69.5513
12.5405 63.445
12.72 68.7312
12.8996 69.7451
13.0792 77.5073
13.2589 233.191
13.4386 121.723
13.6183 248.686
13.7981 96.1145
13.9779 74.8403
14.1577 71.405
14.3376 70.7798
14.5175 67.9623
14.6974 69.3556
14.8774 106.797
15.0574 147.552
15.2374 70.0038
15.4175 65.4094
15.5976 64.6989
15.7778 91.2554
15.958 154.169
16.1382 61.8053
16.3185 57.9251
16.4988 54.7875
16.6792 53.6906
16.8596 54.3556
17.04 54.955
17.2205 65.4827
17.401 70.0466
17.5815 58.2664
17.7622 60.426
17.9428 71.3724
18.1237 138.055
18.3044 89.9214
18.4852 76.2851
18.666 59.5339
18.8469 57.422
19.0278 55.9643
19.2088 58.2851
19.3898 76.0742
19.5709 53.4123
19.752 52.6957
19.9332 55.2872
20.1144 68.8717
20.2957 63.8837
20.477 53.0018
20.6586 48.9888
20.84 48.0353
21.0215 47.8855
21.203 50.4669
21.3846 48.2862
21.5662 48.0665
21.7479 51.7186
21.9297 63.6132
22.1115 55.5952
22.2933 49.0213
22.4753 48.362
22.6572 48.2137
22.8393 51.1725
23.0214 56.6122
23.2037 48.2285
23.3859 48.9492
23.5682 56.5202
23.7505 47.6825
23.9329 44.6424
24.1154 43.5472
24.2979 42.8962
24.4805 42.4339
24.6631 42.3247
24.8458 41.6898
25.0286 42.1434
25.2114 44.0843
25.3943 43.9658
25.5773 40.4198
25.7605 39.9785
25.9436 40.2364
26.1268 41.2017
26.31 39.5678
26.4933 40.0554
26.6767 41.6034
26.8601 39.8786
27.0437 38.3356
27.2272 38.008
27.4109 37.9173
27.5946 37.9331
27.7784 37.3682
27.9623 37.8929
28.1462 38.3872
28.3304 36.592
28.5145 35.4904
28.6987 35.1796
28.8829 34.9859
29.0673 34.2606
29.2517 33.8974
29.4361 33.7173
29.6207 32.7724
29.8053 32.4048
29.99 32.2254
30.1748 32.0749
30.3597 31.9009
30.5447 31.6825
30.7297 31.8715
30.915 31.1854
31.1002 30.824
31.2855 30.4766
31.4708 30.4629
31.6563 30.011
31.8418 29.7095
32.0275 29.5812
32.2132 29.1843
32.399 28.5184
32.5848 28.1862
32.7708 27.7937
32.9569 27.654
33.143 27.5114
33.3293 27.0467
33.5158 26.6717
33.7022 26.2231
33.8887 26.0109
34.0753 25.6331
34.262 25.378
34.4488 25.0731
34.6357 24.7034
34.8227 24.4019
35.0098 24.1761
35.1969 23.9214
35.3842 23.6381
35.5716 23.4285
35.759 23.124
35.9468 22.8544
36.1345 22.5979
36.3222 22.387
36.5101 22.2222
36.6981 21.826
36.8861 21.4969
37.0743 21.2377
37.2626 21.0172
37.451 20.7638
37.6395 20.5575
37.8281 20.279
38.0168 20.0175
38.2056 19.6651
38.3945 19.4688
38.5837 19.189
38.7728 18.9282
38.9621 18.7671
39.1514 18.5376
39.3409 18.2816
39.5304 17.9742
39.7201 17.811
39.9099 17.5856
40.0999 17.3529
40.2899 17.1393
40.48 16.8799
40.6703 16.6836
40.8607 16.4894
41.0512 16.3078
41.242 16.0076
41.4327 15.8904
41.6236 15.6853
41.8146 15.4872
42.0057 15.25
42.1969 15.0128
42.3882 14.85
42.5797 14.6503
42.7713 14.4801
42.963 14.2192
43.1549 14.0665
43.3468 13.8315
43.5389 13.694
43.7312 13.4731
43.9237 13.3197
44.1162 13.1102
44.3088 12.9753
44.5016 12.7611
44.6945 12.5444
44.8875 12.3845
45.0806 12.2363
45.2739 12.0596
45.4673 11.9172
45.6609 11.7425
45.8546 11.5683
46.0484 11.4089
46.2424 11.2628
46.4365 11.0693
46.631 10.9168
46.8254 10.7562
47.0199 10.6016
47.2146 10.4591
47.4095 10.2663
47.6044 10.1351
47.7996 9.9873
47.9948 9.82621
48.1902 9.67782
48.3858 9.57657
48.5815 9.41436
48.7774 9.3093
48.9734 9.10458
49.1696 8.98873
49.3661 8.85445
49.5626 8.67955
49.7592 8.60902
49.956 8.48441
50.153 8.33318
50.3501 8.18895
50.5474 8.07414
50.7448 7.95468
50.9424 7.82881
51.1402 7.75081
51.3381 7.586
51.5362 7.50334
51.7344 7.34451
51.9328 7.2065
52.1316 7.06031
52.3304 7.00807
52.5293 6.87455
52.7284 6.77238
52.9276 6.65411
53.1271 6.54852
53.3267 6.44569
53.5265 6.31052
53.7264 6.20656
53.9266 6.09883
54.1269 6.03029
54.3274 5.90453
54.528 5.72718
54.7289 5.58754
54.9301 5.40527
55.1314 5.26827
55.3328 5.08745
55.5344 4.90006
55.7361 4.79378

File: Ni3Fe_FD0857.xy
TT I
1.27165 7.03549
1.45013 5.76092
1.62863 5.25769
1.80712 4.85292
1.98562 4.85653
2.16411 4.63482
2.34263 5.99832
2.52115 7.38305
2.69965 8.79955
2.87818 9.00968
3.05672 11.9194
3.23527 15.435
3.4138 18.4842
3.59237 23.6098
3.77094 26.1113
3.9495 29.4438
4.12809 34.2509
4.30669 218.494
4.4853 65.4868
4.6639 54.6794
4.84253 66.6262
5.02118 84.5432
5.19981 293.842
5.37848 177.543
5.55716 100.282
5.73586 90.6253
5.91455 91.4069
6.09328 4381.73
6.27201 81.5491
6.45075 66.4625
6.62952 62.2561
6.8083 58.1517
6.98711 55.4239
7.16591 54.7349
7.34475 91.1363
7.5236 54.2853
7.70247 55.7171
7.88135 57.0349
8.06026 61.2119
8.23919 68.3323
8.41812 83.4751
8.59709 1128.77
8.77609 97.3008
8.9551 90.8317
9.13412 81.073
9.31318 81.1708
9.49226 83.2281
9.67134 97.2611
9.85047 98.0947
10.0296 305.048
10.2088 401.206
10.388 102.585
10.5672 526.037
10.7465 85.4151
10.9257 77.6282
11.105 70.7146
11.2844 69.6036
11.4637 64.1257
11.6431 62.7482
11.8225 61.638
12.002 62.4101
12.1814 153.188
12.3609 69.4499
12.5405 63.3361
12.72 69.0244
12.8996 69.7187
13.0792 77.2916
13.2589 232.09
13.4386 122.098
13.6183 246.969
13.7981 95.9903
13.9779 74.5664
14.1577 71.4241
14.3376 70.609
14.5175 67.5829
14.6974 69.4305
14.8774 105.951
15.0574 148.277
15.2374 70.0114
15.4175 65.6297
15.5976 64.6222
15.7778 91.7777
15.958 154.497
16.1382 61.8442
16.3185 57.7674
16.4988 54.7952
16.6792 53.564
16.8596 54.3758
17.04 54.6933
17.2205 65.3155
17.401 70.3913
17.5815 58.4453
17.7622 60.3056
17.9428 71.4236
18.1237 138.042
18.3044 89.683
18.4852 76.243
18.666 59.5379
18.8469 57.3189
19.0278 56.1251
19.2088 58.4357
19.3898 76.2612
19.5709 53.3463
19.752 52.6045
19.9332 55.1673
20.1144 68.8294
20.2957 63.8222
20.477 53.0145
20.6586 49.094
20.84 48.0156
21.0215 47.8171
21.203 50.3227
21.3846 48.3043
21.5662 47.8925
21.7479 51.5897
21.9297 63.8092
22.1115 55.5464
22.2933 49.0969
22.4753 48.2525
22.6572 48.0986
22.8393 51.0284
23.0214 56.9011
23.2037 48.1078
23.3859 48.9241
23.5682 56.7241
23.7505 47.8102
23.9329 44.5274
24.1154 43.4027
24.2979 42.8036
24.4805 42.477
24.6631 42.2487
24.8458 41.7456
25.0286 42.2146
25.2114 44.0404
25.3943 44.0234
25.5773 40.2765
25.7605 39.7675
25.9436 40.3248
26.1268 41.105
26.31 39.627
26.4933 40.0471
26.6767 41.583
26.8601 39.9649
27.0437 38.37
27.2272 38.1175
27.4109 37.9076
27.5946 37.8809
27.7784 37.3908
27.9623 38.0058
28.1462 38.4057
28.3304 36.6836
28.5145 35.5157
28.6987 35.246
28.8829 35.0766
29.0673 34.2472
29.2517 33.8732
29.4361 33.6258
29.6207 32.7988
29.8053 32.5525
29.99 32.1226
30.1748 32.1287
30.3597 31.8962
30.5447 31.7057
30.7297 31.8927
30.915 31.1735
31.1002 30.8172
31.2855 30.5421
31.4708 30.5736
31.6563 30.0861
31.8418 29.6683
32.0275 29.5644
32.2132 28.9694
32.399 28.5685
32.5848 28.1611
32.7708 27.8386
32.9569 27.7157
33.143 27.5196
33.3293 26.9844
33.5158 26.6777
33.7022 26.2354
33.8887 26.0364
34.0753 25.6215
34.262 25.3205
34.4488 24.9793
34.6357 24.7247
34.8227 24.411
35.0098 24.2123
35.1969 23.9626
35.3842 23.7804
35.5716 23.5084
35.759 23.2254
35.9468 22.8378
36.1345 22.5989
36.3222 22.3876
36.5101 22.1649
36.6981 21.8477
36.8861 21.5179
37.0743 21.2786
37.2626 20.9707
37.451 20.7016
37.6395 20.5687
37.8281 20.2584
38.0168 19.9862
38.2056 19.6753
38.3945 19.4174
38.5837 19.2955
38.7728 19.0155
38.9621 18.8036
39.1514 18.5222
39.3409 18.2439
39.5304 18.0881
39.7201 17.8341
39.9099 17.6327
40.0999 17.3709
40.2899 17.1326
40.48 16.962
40.6703 16.7661
40.8607 16.5599
41.0512 16.2977
41.242 16.1
41.4327 15.8784
41.6236 15.6927
41.8146 15.465
42.0057 15.2623
42.1969 15.0452
42.3882 14.8747
42.5797 14.6674
42.7713 14.4549
42.963 14.2549
43.1549 14.0978
43.3468 13.8847
43.5389 13.7191
43.7312 13.5029
43.9237 13.2915
44.1162 13.0846
44.3088 12.932
44.5016 12.7656
44.6945 12.6147
44.8875 12.3805
45.0806 12.2216
45.2739 12.0849
45.4673 11.8564
45.6609 11.7304
45.8546 11.5854
46.0484 11.4167
46.2424 11.2945
46.4365 11.1064
46.631 10.898
46.8254 10.76
47.0199 10.5911
47.2146 10.4556
47.4095 10.2762
47.6044 10.1594
47.7996 9.98195
47.9948 9.83822
48.1902 9.6939
48.3858 9.56448
48.5815 9.39303
48.7774 9.29514
48.9734 9.16654
49.1696 8.94456
49.3661 8.8576
49.5626 8.7071
49.7592 8.58101
49.956 8.47319
50.153 8.34922
50.3501 8.20104
50.5474 8.0673
50.7448 7.94774
50.9424 7.81993
51.1402 7.72768
51.3381 7.57266
51.5362 7.44754
51.7344 7.35453
51.9328 7.21175
52.1316 7.08603
52.3304 7.00051
52.5293 6.88111
52.7284 6.77736
52.9276 6.65465
53.1271 6.58873
53.3267 6.45722
53.5265 6.32751
53.7264 6.26202
53.9266 6.06757
54.1269 6.02506
54.3274 5.91259
54.528 5.77036
54.7289 5.58053
54.9301 5.37743
55.1314 5.28778
55.3328 5.12373
55.5344 4.9344
55.7361 4.79344