Folder: NiFe_MOF_catalyst_paper/XRD (part 96)

File: Ni3Fe_FD0518.xy
TT I
1.27165 7.30663
1.45013 6.26654
1.62863 5.36112
1.80712 4.99162
1.98562 4.86343
2.16411 4.96759
2.34263 4.78616
2.52115 6.20162
2.69965 8.17362
2.87818 9.21973
3.05672 11.2783
3.23527 14.8043
3.4138 18.5652
3.59237 24.7222
3.77094 26.5807
3.9495 30.2198
4.12809 35.1981
4.30669 245.021
4.4853 68.762
4.6639 56.0629
4.84253 67.8379
5.02118 87.753
5.19981 383.146
5.37848 205.3
5.55716 103.884
5.73586 93.675
5.91455 95.4768
6.09328 4110.99
6.27201 85.058
6.45075 68.237
6.62952 63.8264
6.8083 59.5903
6.98711 56.9354
7.16591 56.2249
7.34475 98.4199
7.5236 55.5921
7.70247 56.7575
7.88135 58.6913
8.06026 62.9033
8.23919 70.2966
8.41812 86.6033
8.59709 1131.65
8.77609 102.218
8.9551 93.7723
9.13412 82.6941
9.31318 83.5883
9.49226 85.5588
9.67134 101.254
9.85047 101.116
10.0296 344.324
10.2088 448.793
10.388 106.136
10.5672 494.969
10.7465 87.5592
10.9257 79.5297
11.105 72.8673
11.2844 72.0104
11.4637 65.8347
11.6431 64.4148
11.8225 63.2307
12.002 64.3107
12.1814 151.521
12.3609 73.0484
12.5405 65.3019
12.72 71.417
12.8996 71.9131
13.0792 79.5866
13.2589 231.761
13.4386 132.286
13.6183 238.713
13.7981 102.725
13.9779 76.8777
14.1577 73.6404
14.3376 73.0693
14.5175 69.4559
14.6974 71.3393
14.8774 110.351
15.0574 156.755
15.2374 72.3488
15.4175 67.3446
15.5976 66.4615
15.7778 95.0073
15.958 162.809
16.1382 64.2955
16.3185 59.7307
16.4988 56.1766
16.6792 55.308
16.8596 56.2189
17.04 56.3007
17.2205 67.0856
17.401 72.5485
17.5815 60.0464
17.7622 62.0264
17.9428 74.5984
18.1237 137.883
18.3044 90.2355
18.4852 80.4001
18.666 61.1564
18.8469 58.8898
19.0278 57.7115
19.2088 60.2625
19.3898 76.9247
19.5709 55.1612
19.752 53.9583
19.9332 56.8808
20.1144 70.4582
20.2957 64.0752
20.477 54.6783
20.6586 50.2971
20.84 49.4255
21.0215 49.0763
21.203 51.1995
21.3846 49.6791
21.5662 49.4431
21.7479 53.1278
21.9297 65.046
22.1115 56.5308
22.2933 50.7155
22.4753 49.4991
22.6572 49.4554
22.8393 52.4146
23.0214 58.1348
23.2037 49.5238
23.3859 50.3428
23.5682 57.0786
23.7505 49.2519
23.9329 45.8398
24.1154 44.7458
24.2979 43.9929
24.4805 43.4848
24.6631 43.4149
24.8458 42.8433
25.0286 43.398
25.2114 45.1363
25.3943 45.1797
25.5773 41.5296
25.7605 40.9217
25.9436 41.3794
26.1268 42.2215
26.31 40.6899
26.4933 41.206
26.6767 42.5249
26.8601 41.0788
27.0437 39.4018
27.2272 39.0374
27.4109 38.8401
27.5946 38.9081
27.7784 38.392
27.9623 38.8107
28.1462 39.4119
28.3304 37.7407
28.5145 36.4313
28.6987 36.094
28.8829 35.9109
29.0673 35.2485
29.2517 34.7998
29.4361 34.502
29.6207 33.5732
29.8053 33.3107
29.99 33.018
30.1748 32.9142
30.3597 32.6398
30.5447 32.5409
30.7297 32.7053
30.915 31.9362
31.1002 31.4844
31.2855 31.2762
31.4708 31.2013
31.6563 30.7154
31.8418 30.5438
32.0275 30.3263
32.2132 29.7906
32.399 29.2514
32.5848 28.8521
32.7708 28.5448
32.9569 28.4434
33.143 28.183
33.3293 27.7302
33.5158 27.3046
33.7022 26.9428
33.8887 26.6957
34.0753 26.2821
34.262 25.9152
34.4488 25.6483
34.6357 25.3881
34.8227 25.0389
35.0098 24.8238
35.1969 24.5281
35.3842 24.301
35.5716 24.0578
35.759 23.8517
35.9468 23.3799
36.1345 23.1673
36.3222 22.9617
36.5101 22.7808
36.6981 22.4247
36.8861 22.0724
37.0743 21.7934
37.2626 21.5514
37.451 21.2294
37.6395 21.1175
37.8281 20.7778
38.0168 20.4489
38.2056 20.3222
38.3945 19.951
38.5837 19.6844
38.7728 19.4638
38.9621 19.2152
39.1514 18.918
39.3409 18.643
39.5304 18.504
39.7201 18.2907
39.9099 18.1085
40.0999 17.8188
40.2899 17.5912
40.48 17.3528
40.6703 17.1911
40.8607 16.9654
41.0512 16.687
41.242 16.5057
41.4327 16.2653
41.6236 16.035
41.8146 15.8774
42.0057 15.6298
42.1969 15.4543
42.3882 15.2331
42.5797 15.0622
42.7713 14.8128
42.963 14.6357
43.1549 14.4508
43.3468 14.186
43.5389 14.0157
43.7312 13.8219
43.9237 13.642
44.1162 13.4639
44.3088 13.2401
44.5016 13.061
44.6945 12.887
44.8875 12.7261
45.0806 12.5566
45.2739 12.342
45.4673 12.1513
45.6609 12.0338
45.8546 11.8883
46.0484 11.6561
46.2424 11.5167
46.4365 11.3545
46.631 11.1716
46.8254 11.0099
47.0199 10.8639
47.2146 10.6708
47.4095 10.57
47.6044 10.39
47.7996 10.2176
47.9948 10.0625
48.1902 9.92758
48.3858 9.78507
48.5815 9.63994
48.7774 9.49447
48.9734 9.36987
49.1696 9.23016
49.3661 9.07658
49.5626 8.92338
49.7592 8.8037
49.956 8.69784
50.153 8.52043
50.3501 8.42511
50.5474 8.31396
50.7448 8.16592
50.9424 8.02349
51.1402 7.9078
51.3381 7.77707
51.5362 7.66111
51.7344 7.50943
51.9328 7.40855
52.1316 7.27285
52.3304 7.16372
52.5293 7.03605
52.7284 6.94596
52.9276 6.81001
53.1271 6.72979
53.3267 6.5971
53.5265 6.48194
53.7264 6.37007
53.9266 6.26041
54.1269 6.12732
54.3274 6.02593
54.528 5.89302
54.7289 5.6991
54.9301 5.60191
55.1314 5.4217
55.3328 5.20763
55.5344 5.02876
55.7361 4.91018

File: Ni3Fe_FD0519.xy
TT I
1.27165 7.401
1.45013 6.80293
1.62863 5.19093
1.80712 5.24891
1.98562 5.21253
2.16411 4.6885
2.34263 5.48497
2.52115 7.11078
2.69965 7.56874
2.87818 8.3698
3.05672 11.3744
3.23527 15.3635
3.4138 18.8704
3.59237 24.5804
3.77094 26.6761
3.9495 30.3443
4.12809 35.3037
4.30669 247.57
4.4853 69.0382
4.6639 55.8292
4.84253 67.7179
5.02118 87.7134
5.19981 382.495
5.37848 204.844
5.55716 103.202
5.73586 93.6017
5.91455 95.4274
6.09328 4136.14
6.27201 85.3402
6.45075 68.1322
6.62952 63.9113
6.8083 59.3324
6.98711 56.985
7.16591 56.2401
7.34475 98.8892
7.5236 55.5949
7.70247 57.0692
7.88135 58.4609
8.06026 62.6799
8.23919 70.4944
8.41812 86.8495
8.59709 1127.28
8.77609 101.799
8.9551 93.8179
9.13412 82.5955
9.31318 83.3682
9.49226 85.6598
9.67134 101.218
9.85047 101.414
10.0296 344.163
10.2088 447.383
10.388 106.527
10.5672 498.078
10.7465 88.2145
10.9257 79.562
11.105 72.7752
11.2844 71.471
11.4637 65.8887
11.6431 64.6336
11.8225 63.4032
12.002 64.4452
12.1814 151.619
12.3609 72.9161
12.5405 65.2703
12.72 71.1562
12.8996 71.647
13.0792 79.6915
13.2589 231.21
13.4386 131.802
13.6183 238.478
13.7981 102.771
13.9779 76.6466
14.1577 73.5905
14.3376 72.9188
14.5175 69.7239
14.6974 71.3339
14.8774 110.26
15.0574 156.384
15.2374 72.4185
15.4175 67.2291
15.5976 66.3617
15.7778 95.1094
15.958 162.529
16.1382 64.0601
16.3185 59.7704
16.4988 56.309
16.6792 55.1017
16.8596 56.1433
17.04 56.3225
17.2205 66.9172
17.401 72.6049
17.5815 60.1561
17.7622 61.7273
17.9428 74.2821
18.1237 137.805
18.3044 90.1959
18.4852 80.4505
18.666 61.4143
18.8469 58.9305
19.0278 57.7196
19.2088 60.3647
19.3898 76.7475
19.5709 54.8472
19.752 53.9407
19.9332 56.9135
20.1144 70.4212
20.2957 64.0941
20.477 54.8477
20.6586 50.3881
20.84 49.2835
21.0215 49.1746
21.203 51.1164
21.3846 49.7152
21.5662 49.3661
21.7479 52.9758
21.9297 64.7398
22.1115 56.3206
22.2933 50.5825
22.4753 49.5359
22.6572 49.4183
22.8393 52.3208
23.0214 58.3604
23.2037 49.6065
23.3859 50.2934
23.5682 56.9849
23.7505 49.1864
23.9329 45.8938
24.1154 44.6072
24.2979 44.0521
24.4805 43.599
24.6631 43.4189
24.8458 42.7852
25.0286 43.3943
25.2114 45.13
25.3943 45.2711
25.5773 41.3155
25.7605 40.924
25.9436 41.2891
26.1268 42.3369
26.31 40.7492
26.4933 41.3034
26.6767 42.67
26.8601 41.1131
27.0437 39.3957
27.2272 38.9901
27.4109 38.802
27.5946 38.88
27.7784 38.312
27.9623 38.7362
28.1462 39.2802
28.3304 37.6185
28.5145 36.515
28.6987 36.0598
28.8829 35.8072
29.0673 35.1391
29.2517 34.8573
29.4361 34.5288
29.6207 33.6048
29.8053 33.2957
29.99 33.0417
30.1748 32.8341
30.3597 32.698
30.5447 32.6104
30.7297 32.543
30.915 31.9503
31.1002 31.5766
31.2855 31.2658
31.4708 31.2077
31.6563 30.7437
31.8418 30.4403
32.0275 30.2986
32.2132 29.7618
32.399 29.3185
32.5848 28.9406
32.7708 28.4911
32.9569 28.3406
33.143 28.1167
33.3293 27.7787
33.5158 27.3578
33.7022 26.9479
33.8887 26.5994
34.0753 26.3028
34.262 25.9573
34.4488 25.6922
34.6357 25.2419
34.8227 25.0859
35.0098 24.7949
35.1969 24.4624
35.3842 24.2408
35.5716 23.9899
35.759 23.7387
35.9468 23.3459
36.1345 23.159
36.3222 22.8909
36.5101 22.6844
36.6981 22.3796
36.8861 22.1473
37.0743 21.7446
37.2626 21.5104
37.451 21.2583
37.6395 21.0861
37.8281 20.8114
38.0168 20.5185
38.2056 20.2632
38.3945 19.9583
38.5837 19.69
38.7728 19.4742
38.9621 19.2333
39.1514 18.9794
39.3409 18.6687
39.5304 18.4251
39.7201 18.3017
39.9099 18.0742
40.0999 17.8005
40.2899 17.5516
40.48 17.353
40.6703 17.1591
40.8607 16.9534
41.0512 16.7008
41.242 16.4948
41.4327 16.2943
41.6236 16.018
41.8146 15.9472
42.0057 15.6056
42.1969 15.4543
42.3882 15.2567
42.5797 15.0598
42.7713 14.8765
42.963 14.5651
43.1549 14.3811
43.3468 14.1673
43.5389 14.012
43.7312 13.7954
43.9237 13.6782
44.1162 13.452
44.3088 13.285
44.5016 13.0709
44.6945 12.9548
44.8875 12.7261
45.0806 12.5404
45.2739 12.3366
45.4673 12.1398
45.6609 12.0235
45.8546 11.8975
46.0484 11.6194
46.2424 11.4965
46.4365 11.3601
46.631 11.1452
46.8254 10.9956
47.0199 10.8697
47.2146 10.6675
47.4095 10.536
47.6044 10.3213
47.7996 10.2172
47.9948 10.0668
48.1902 9.92438
48.3858 9.81268
48.5815 9.67567
48.7774 9.54672
48.9734 9.33373
49.1696 9.23531
49.3661 9.12409
49.5626 8.91974
49.7592 8.78687
49.956 8.70172
50.153 8.55577
50.3501 8.43263
50.5474 8.29472
50.7448 8.18069
50.9424 8.04511
51.1402 7.89369
51.3381 7.80816
51.5362 7.6632
51.7344 7.55109
51.9328 7.38537
52.1316 7.26757
52.3304 7.12867
52.5293 7.03536
52.7284 6.92483
52.9276 6.80548
53.1271 6.72843
53.3267 6.60252
53.5265 6.50594
53.7264 6.35494
53.9266 6.23493
54.1269 6.13755
54.3274 6.01766
54.528 5.85621
54.7289 5.69317
54.9301 5.55268
55.1314 5.42679
55.3328 5.23626
55.5344 5.00329
55.7361 4.82202

File: Ni3Fe_FD0520.xy
TT I
1.27165 8.04252
1.45013 6.84868
1.62863 4.89388
1.80712 5.33553
1.98562 5.00418
2.16411 5.07202
2.34263 5.60655
2.52115 6.80903
2.69965 7.68997
2.87818 8.98793
3.05672 11.0806
3.23527 15.3965
3.4138 19.0443
3.59237 24.4793
3.77094 26.5109
3.9495 30.2093
4.12809 35.4934
4.30669 250.334
4.4853 69.2788
4.6639 55.8019
4.84253 67.7027
5.02118 88.2667
5.19981 381.709
5.37848 206.411
5.55716 103.208
5.73586 92.7696
5.91455 95.6701
6.09328 4119.01
6.27201 85.4123
6.45075 68.3025
6.62952 64.0768
6.8083 59.4245
6.98711 56.8718
7.16591 56.6474
7.34475 99.6483
7.5236 55.7335
7.70247 56.9045
7.88135 58.2986
8.06026 63.2727
8.23919 69.9161
8.41812 86.5391
8.59709 1131.75
8.77609 102.339
8.9551 93.7142
9.13412 82.6271
9.31318 83.6802
9.49226 85.1056
9.67134 101.334
9.85047 100.615
10.0296 342.325
10.2088 454.105
10.388 106.486
10.5672 494.151
10.7465 87.8485
10.9257 79.7791
11.105 72.9873
11.2844 71.4529
11.4637 65.5405
11.6431 64.2371
11.8225 63.1291
12.002 64.4173
12.1814 150.182
12.3609 72.6046
12.5405 65.0715
12.72 71.5051
12.8996 72.024
13.0792 79.6794
13.2589 230.477
13.4386 132.198
13.6183 238.184
13.7981 103.347
13.9779 76.7182
14.1577 73.2311
14.3376 73.0591
14.5175 69.7973
14.6974 71.5452
14.8774 109.765
15.0574 156.639
15.2374 72.4541
15.4175 67.1395
15.5976 66.4454
15.7778 94.4538
15.958 163.231
16.1382 64.0087
16.3185 59.7777
16.4988 56.2402
16.6792 55.2293
16.8596 56.2334
17.04 56.3761
17.2205 67.0717
17.401 72.599
17.5815 59.9163
17.7622 61.8264
17.9428 74.3233
18.1237 137.857
18.3044 90.0287
18.4852 80.9012
18.666 61.2052
18.8469 58.6241
19.0278 57.6398
19.2088 60.118
19.3898 77.3825
19.5709 54.9908
19.752 53.8258
19.9332 56.8812
20.1144 70.3103
20.2957 64.3893
20.477 54.9001
20.6586 50.433
20.84 49.3948
21.0215 49.242
21.203 51.1118
21.3846 49.678
21.5662 49.3692
21.7479 53.0965
21.9297 64.7718
22.1115 56.3533
22.2933 50.5905
22.4753 49.4622
22.6572 49.3435
22.8393 52.4058
23.0214 58.3335
23.2037 49.4046
23.3859 50.4385
23.5682 57.007
23.7505 49.1845
23.9329 45.9386
24.1154 44.8376
24.2979 43.9665
24.4805 43.39
24.6631 43.2968
24.8458 42.8013
25.0286 43.3114
25.2114 45.2451
25.3943 45.309
25.5773 41.5646
25.7605 40.9393
25.9436 41.3949
26.1268 42.1982
26.31 40.5637
26.4933 41.2147
26.6767 42.6307
26.8601 41.1834
27.0437 39.4999
27.2272 39.1004
27.4109 38.7854
27.5946 38.834
27.7784 38.3587
27.9623 38.6881
28.1462 39.3748
28.3304 37.6296
28.5145 36.5155
28.6987 36.0174
28.8829 35.8467
29.0673 35.1804
29.2517 34.7724
29.4361 34.5623
29.6207 33.5533
29.8053 33.3161
29.99 33.0154
30.1748 32.8423
30.3597 32.6476
30.5447 32.6887
30.7297 32.5983
30.915 31.9605
31.1002 31.6264
31.2855 31.2111
31.4708 31.1955
31.6563 30.7205
31.8418 30.5225
32.0275 30.272
32.2132 29.8159
32.399 29.3611
32.5848 28.9024
32.7708 28.5156
32.9569 28.356
33.143 28.1169
33.3293 27.7197
33.5158 27.3872
33.7022 26.9243
33.8887 26.6975
34.0753 26.3341
34.262 25.9195
34.4488 25.6337
34.6357 25.2354
34.8227 25.0532
35.0098 24.7856
35.1969 24.4316
35.3842 24.2554
35.5716 24.0776
35.759 23.7825
35.9468 23.3952
36.1345 23.2334
36.3222 22.9664
36.5101 22.7169
36.6981 22.4181
36.8861 22.1036
37.0743 21.7963
37.2626 21.5493
37.451 21.3004
37.6395 21.0245
37.8281 20.7986
38.0168 20.5024
38.2056 20.2372
38.3945 19.9298
38.5837 19.7305
38.7728 19.419
38.9621 19.2248
39.1514 18.9489
39.3409 18.6978
39.5304 18.5409
39.7201 18.2807
39.9099 18.1239
40.0999 17.8271
40.2899 17.5626
40.48 17.3601
40.6703 17.1833
40.8607 17.0272
41.0512 16.8076
41.242 16.4669
41.4327 16.276
41.6236 16.0556
41.8146 15.8749
42.0057 15.6298
42.1969 15.4809
42.3882 15.2047
42.5797 15.024
42.7713 14.764
42.963 14.5795
43.1549 14.3994
43.3468 14.1528
43.5389 14.0235
43.7312 13.822
43.9237 13.6615
44.1162 13.384
44.3088 13.204
44.5016 13.0625
44.6945 12.8738
44.8875 12.7155
45.0806 12.5213
45.2739 12.365
45.4673 12.2293
45.6609 12.0174
45.8546 11.8039
46.0484 11.6922
46.2424 11.5049
46.4365 11.3664
46.631 11.1511
46.8254 11.0286
47.0199 10.8666
47.2146 10.7121
47.4095 10.5329
47.6044 10.3835
47.7996 10.2055
47.9948 10.075
48.1902 9.91186
48.3858 9.77632
48.5815 9.69035
48.7774 9.53802
48.9734 9.3707
49.1696 9.24658
49.3661 9.08082
49.5626 8.95452
49.7592 8.80563
49.956 8.7044
50.153 8.52985
50.3501 8.40876
50.5474 8.29836
50.7448 8.18256
50.9424 8.05216
51.1402 7.90304
51.3381 7.77675
51.5362 7.67819
51.7344 7.53441
51.9328 7.39766
52.1316 7.26463
52.3304 7.202
52.5293 7.04289
52.7284 6.94461
52.9276 6.82043
53.1271 6.72054
53.3267 6.60009
53.5265 6.48116
53.7264 6.3572
53.9266 6.24911
54.1269 6.11326
54.3274 6.00818
54.528 5.89941
54.7289 5.69648
54.9301 5.57363
55.1314 5.42566
55.3328 5.21595
55.5344 5.01708
55.7361 4.89005

File: Ni3Fe_FD0521.xy
TT I
1.27165 7.74896
1.45013 6.12172
1.62863 5.51413
1.80712 4.83229
1.98562 4.8098
2.16411 4.7483
2.34263 5.46632
2.52115 6.42688
2.69965 8.46641
2.87818 8.61433
3.05672 11.3238
3.23527 15.2087
3.4138 19.1967
3.59237 24.6795
3.77094 26.5447
3.9495 30.4057
4.12809 35.6819
4.30669 250.772
4.4853 70.1327
4.6639 55.8693
4.84253 68.0527
5.02118 88.1151
5.19981 380.756
5.37848 205.664
5.55716 103.487
5.73586 93.314
5.91455 95.2542
6.09328 4144.19
6.27201 85.7065
6.45075 68.0598
6.62952 64.0003
6.8083 59.6364
6.98711 56.8926
7.16591 56.4605
7.34475 100.339
7.5236 55.869
7.70247 57.064
7.88135 58.2885
8.06026 63.1673
8.23919 70.2345
8.41812 86.8323
8.59709 1132.46
8.77609 102.187
8.9551 94.018
9.13412 82.8106
9.31318 83.2511
9.49226 85.4324
9.67134 101.174
9.85047 101.144
10.0296 342.712
10.2088 450.086
10.388 106.208
10.5672 492.319
10.7465 88.081
10.9257 79.794
11.105 72.8151
11.2844 71.9371
11.4637 65.9012
11.6431 64.5706
11.8225 63.3517
12.002 64.1382
12.1814 149.885
12.3609 73.0152
12.5405 65.2258
12.72 71.5708
12.8996 71.877
13.0792 79.6939
13.2589 230.183
13.4386 132.201
13.6183 237.983
13.7981 103.268
13.9779 76.5796
14.1577 73.5478
14.3376 72.9481
14.5175 69.5384
14.6974 71.4031
14.8774 109.631
15.0574 156.175
15.2374 72.4209
15.4175 67.161
15.5976 66.506
15.7778 94.5699
15.958 163.222
16.1382 64.0713
16.3185 59.838
16.4988 56.3548
16.6792 55.1198
16.8596 56.1058
17.04 56.2881
17.2205 66.8638
17.401 72.7323
17.5815 60.0863
17.7622 61.9728
17.9428 74.2994
18.1237 137.495
18.3044 90.2179
18.4852 80.5002
18.666 61.2001
18.8469 58.7801
19.0278 57.5989
19.2088 60.2491
19.3898 76.8093
19.5709 54.7938
19.752 53.8869
19.9332 56.7566
20.1144 70.4296
20.2957 64.019
20.477 54.7338
20.6586 50.4572
20.84 49.4119
21.0215 49.1592
21.203 51.3597
21.3846 49.7854
21.5662 49.3258
21.7479 53.0093
21.9297 64.9862
22.1115 56.5224
22.2933 50.6995
22.4753 49.5159
22.6572 49.4004
22.8393 52.2677
23.0214 58.3788
23.2037 49.4048
23.3859 50.3144
23.5682 57.0923
23.7505 49.1073
23.9329 45.9629
24.1154 44.6204
24.2979 43.9958
24.4805 43.2686
24.6631 43.3381
24.8458 42.718
25.0286 43.3852
25.2114 45.033
25.3943 45.233
25.5773 41.384
25.7605 40.927
25.9436 41.3299
26.1268 42.2281
26.31 40.6027
26.4933 41.2743
26.6767 42.5305
26.8601 40.9651
27.0437 39.3832
27.2272 38.9456
27.4109 38.7552
27.5946 38.9401
27.7784 38.2229
27.9623 38.703
28.1462 39.2913
28.3304 37.5445
28.5145 36.5075
28.6987 36.1945
28.8829 35.9044
29.0673 35.1246
29.2517 34.7641
29.4361 34.5256
29.6207 33.5978
29.8053 33.3294
29.99 32.9545
30.1748 32.91
30.3597 32.6717
30.5447 32.5836
30.7297 32.6382
30.915 31.9797
31.1002 31.5081
31.2855 31.336
31.4708 31.1753
31.6563 30.7025
31.8418 30.4831
32.0275 30.3368
32.2132 29.7769
32.399 29.3305
32.5848 28.8303
32.7708 28.5392
32.9569 28.2855
33.143 28.1145
33.3293 27.7667
33.5158 27.3473
33.7022 26.9725
33.8887 26.5991
34.0753 26.2949
34.262 25.9437
34.4488 25.6768
34.6357 25.2908
34.8227 25.0161
35.0098 24.8138
35.1969 24.504
35.3842 24.2737
35.5716 24.0767
35.759 23.6955
35.9468 23.3448
36.1345 23.1605
36.3222 22.8623
36.5101 22.6907
36.6981 22.3554
36.8861 22.0396
37.0743 21.7284
37.2626 21.5156
37.451 21.2499
37.6395 21.0469
37.8281 20.7523
38.0168 20.4514
38.2056 20.1971
38.3945 19.891
38.5837 19.6792
38.7728 19.5035
38.9621 19.1769
39.1514 18.9942
39.3409 18.697
39.5304 18.5045
39.7201 18.2929
39.9099 18.0652
40.0999 17.8379
40.2899 17.5903
40.48 17.3167
40.6703 17.1355
40.8607 17.007
41.0512 16.7187
41.242 16.4824
41.4327 16.2713
41.6236 16.0597
41.8146 15.841
42.0057 15.625
42.1969 15.3913
42.3882 15.2892
42.5797 15.0436
42.7713 14.8013
42.963 14.6357
43.1549 14.4141
43.3468 14.1756
43.5389 13.9969
43.7312 13.8094
43.9237 13.6472
44.1162 13.4769
44.3088 13.2529
44.5016 13.0768
44.6945 12.8941
44.8875 12.6619
45.0806 12.4724
45.2739 12.335
45.4673 12.1928
45.6609 11.9856
45.8546 11.8775
46.0484 11.6716
46.2424 11.4841
46.4365 11.3594
46.631 11.1581
46.8254 10.9935
47.0199 10.8253
47.2146 10.7226
47.4095 10.5281
47.6044 10.34
47.7996 10.213
47.9948 10.0537
48.1902 9.91544
48.3858 9.77346
48.5815 9.64996
48.7774 9.54964
48.9734 9.37868
49.1696 9.23078
49.3661 9.10737
49.5626 8.93138
49.7592 8.79785
49.956 8.68094
50.153 8.55776
50.3501 8.41761
50.5474 8.30507
50.7448 8.15136
50.9424 8.05593
51.1402 7.89983
51.3381 7.79113
51.5362 7.64629
51.7344 7.53915
51.9328 7.38062
52.1316 7.25764
52.3304 7.15484
52.5293 7.00621
52.7284 6.92759
52.9276 6.83532
53.1271 6.71335
53.3267 6.59059
53.5265 6.44109
53.7264 6.36983
53.9266 6.2588
54.1269 6.12895
54.3274 6.0497
54.528 5.85086
54.7289 5.761
54.9301 5.51718
55.1314 5.42573
55.3328 5.23367
55.5344 5.02777
55.7361 4.90046

File: Ni3Fe_FD0522.xy
TT I
1.27165 7.55561
1.45013 5.90375
1.62863 5.51667
1.80712 4.99306
1.98562 5.28682
2.16411 4.68431
2.34263 5.62629
2.52115 6.79177
2.69965 8.09499
2.87818 8.10482
3.05672 10.6381
3.23527 14.7851
3.4138 19.115
3.59237 24.7571
3.77094 26.6446
3.9495 30.113
4.12809 35.7693
4.30669 253.647
4.4853 69.9858
4.6639 56.1394
4.84253 67.5504
5.02118 87.9035
5.19981 379.109
5.37848 205.982
5.55716 103.036
5.73586 93.0184
5.91455 95.2856
6.09328 4134.44
6.27201 84.9042
6.45075 68.4907
6.62952 64.0415
6.8083 59.6278
6.98711 56.6519
7.16591 56.3056
7.34475 101.497
7.5236 55.5639
7.70247 56.9039
7.88135 58.2175
8.06026 62.9755
8.23919 70.0216
8.41812 86.7149
8.59709 1122.66
8.77609 102.316
8.9551 93.4713
9.13412 82.5162
9.31318 83.2118
9.49226 85.1353
9.67134 101.655
9.85047 100.34
10.0296 340.738
10.2088 456.721
10.388 106.161
10.5672 495.861
10.7465 87.7489
10.9257 79.7898
11.105 72.9123
11.2844 71.5394
11.4637 65.5393
11.6431 64.4912
11.8225 63.2273
12.002 64.4362
12.1814 148.886
12.3609 73.1189
12.5405 65.1865
12.72 71.4231
12.8996 71.6442
13.0792 79.2724
13.2589 229.787
13.4386 132.327
13.6183 236.491
13.7981 103.647
13.9779 76.7136
14.1577 73.4374
14.3376 72.8031
14.5175 69.4146
14.6974 70.972
14.8774 109.506
15.0574 157.672
15.2374 72.2475
15.4175 67.0539
15.5976 66.4643
15.7778 94.1623
15.958 163.98
16.1382 64.3625
16.3185 59.5063
16.4988 56.3171
16.6792 55.1324
16.8596 56.0581
17.04 56.392
17.2205 66.7523
17.401 72.7688
17.5815 59.8924
17.7622 61.9844
17.9428 74.306
18.1237 137.712
18.3044 89.8338
18.4852 80.7198
18.666 61.2106
18.8469 58.7934
19.0278 57.6462
19.2088 60.2886
19.3898 77.0267
19.5709 55.0116
19.752 53.971
19.9332 56.7478
20.1144 70.4366
20.2957 63.8561
20.477 54.8695
20.6586 50.4628
20.84 49.3204
21.0215 49.0119
21.203 51.3496
21.3846 49.7771
21.5662 49.2808
21.7479 53.0374
21.9297 65.0056
22.1115 56.6461
22.2933 50.7572
22.4753 49.638
22.6572 49.346
22.8393 52.2984
23.0214 58.1147
23.2037 49.4586
23.3859 50.3202
23.5682 56.7981
23.7505 49.2671
23.9329 45.6675
24.1154 44.621
24.2979 43.9036
24.4805 43.3807
24.6631 43.3948
24.8458 42.6654
25.0286 43.3629
25.2114 45.2186
25.3943 45.1913
25.5773 41.4766
25.7605 40.8452
25.9436 41.3145
26.1268 42.22
26.31 40.6725
26.4933 41.231
26.6767 42.5718
26.8601 40.8557
27.0437 39.3033
27.2272 39.0265
27.4109 38.8849
27.5946 38.8402
27.7784 38.3076
27.9623 38.7404
28.1462 39.3084
28.3304 37.7681
28.5145 36.5201
28.6987 36.0023
28.8829 35.8772
29.0673 35.2279
29.2517 34.7882
29.4361 34.6654
29.6207 33.5797
29.8053 33.2673
29.99 33.0503
30.1748 32.7723
30.3597 32.6175
30.5447 32.5301
30.7297 32.614
30.915 32.0438
31.1002 31.4492
31.2855 31.2529
31.4708 31.1453
31.6563 30.689
31.8418 30.5047
32.0275 30.3292
32.2132 29.7632
32.399 29.3337
32.5848 28.8218
32.7708 28.4573
32.9569 28.2928
33.143 28.1345
33.3293 27.7401
33.5158 27.3978
33.7022 26.935
33.8887 26.6078
34.0753 26.3211
34.262 25.9038
34.4488 25.6345
34.6357 25.2931
34.8227 25.0437
35.0098 24.8324
35.1969 24.5281
35.3842 24.242
35.5716 24.1393
35.759 23.7474
35.9468 23.4846
36.1345 23.2088
36.3222 22.9318
36.5101 22.6465
36.6981 22.4597
36.8861 22.0131
37.0743 21.6884
37.2626 21.5479
37.451 21.1771
37.6395 20.9842
37.8281 20.7092
38.0168 20.5008
38.2056 20.1638
38.3945 19.918
38.5837 19.6434
38.7728 19.4273
38.9621 19.2068
39.1514 18.8994
39.3409 18.6538
39.5304 18.4706
39.7201 18.2874
39.9099 18.0648
40.0999 17.8235
40.2899 17.535
40.48 17.3383
40.6703 17.1421
40.8607 16.9021
41.0512 16.739
41.242 16.4614
41.4327 16.2908
41.6236 16.0329
41.8146 15.8479
42.0057 15.6018
42.1969 15.3896
42.3882 15.2728
42.5797 15.0319
42.7713 14.8175
42.963 14.6265
43.1549 14.4158
43.3468 14.1668
43.5389 14.032
43.7312 13.782
43.9237 13.6391
44.1162 13.4659
44.3088 13.2907
44.5016 13.0335
44.6945 12.8679
44.8875 12.7212
45.0806 12.5359
45.2739 12.339
45.4673 12.2081
45.6609 12.021
45.8546 11.839
46.0484 11.7006
46.2424 11.5024
46.4365 11.3286
46.631 11.1451
46.8254 11.0334
47.0199 10.8648
47.2146 10.6997
47.4095 10.5061
47.6044 10.3759
47.7996 10.1969
47.9948 10.0564
48.1902 9.93739
48.3858 9.7998
48.5815 9.64639
48.7774 9.50423
48.9734 9.38239
49.1696 9.20727
49.3661 9.07473
49.5626 8.92215
49.7592 8.84664
49.956 8.6684
50.153 8.54273
50.3501 8.41394
50.5474 8.25873
50.7448 8.18085
50.9424 8.02793
51.1402 7.92522
51.3381 7.75826
51.5362 7.65321
51.7344 7.52276
51.9328 7.3801
52.1316 7.24125
52.3304 7.15688
52.5293 7.03761
52.7284 6.91953
52.9276 6.82943
53.1271 6.7304
53.3267 6.56323
53.5265 6.45618
53.7264 6.34567
53.9266 6.27454
54.1269 6.14331
54.3274 6.06721
54.528 5.89066
54.7289 5.69046
54.9301 5.56062
55.1314 5.37898
55.3328 5.19515
55.5344 5.00048
55.7361 4.89714