Folder: NiFe_MOF_catalyst_paper/XRD (part 127)

File: Ni3Fe_FD0685.xy
TT I
1.27165 7.22777
1.45013 5.60767
1.62863 5.57093
1.80712 4.72396
1.98562 4.75962
2.16411 4.94835
2.34263 5.71291
2.52115 6.7246
2.69965 8.11084
2.87818 8.48918
3.05672 10.8978
3.23527 15.091
3.4138 18.8987
3.59237 23.2396
3.77094 26.117
3.9495 29.5874
4.12809 34.5355
4.30669 133.998
4.4853 56.6637
4.6639 55.4813
4.84253 68.4197
5.02118 87.5488
5.19981 416.181
5.37848 190.292
5.55716 102.161
5.73586 92.9489
5.91455 95.7688
6.09328 4569.14
6.27201 80.6138
6.45075 68.0595
6.62952 62.6441
6.8083 58.9054
6.98711 55.2291
7.16591 55.4386
7.34475 74.3667
7.5236 54.4833
7.70247 56.2424
7.88135 57.3598
8.06026 62.4291
8.23919 69.4274
8.41812 84.8342
8.59709 1243.78
8.77609 98.244
8.9551 89.3457
9.13412 82.1993
9.31318 83.4902
9.49226 84.7062
9.67134 95.5702
9.85047 100.428
10.0296 365.816
10.2088 359.41
10.388 105.049
10.5672 512.552
10.7465 86.2829
10.9257 77.8935
11.105 71.5333
11.2844 68.9027
11.4637 64.7763
11.6431 63.5043
11.8225 62.4485
12.002 63.9189
12.1814 154.52
12.3609 67.672
12.5405 64.5203
12.72 68.5823
12.8996 71.1615
13.0792 80.0855
13.2589 249.082
13.4386 119.972
13.6183 255.426
13.7981 93.7071
13.9779 75.5613
14.1577 72.0203
14.3376 70.3866
14.5175 68.626
14.6974 70.5767
14.8774 113.71
15.0574 140.156
15.2374 69.984
15.4175 66.2364
15.5976 66.0272
15.7778 96.9728
15.958 149.772
16.1382 61.7639
16.3185 57.8526
16.4988 55.2682
16.6792 54.5001
16.8596 54.7836
17.04 55.8679
17.2205 67.1692
17.401 69.8802
17.5815 59.1731
17.7622 61.4084
17.9428 74.2974
18.1237 142.762
18.3044 91.4256
18.4852 75.5225
18.666 60.3426
18.8469 57.8287
19.0278 56.7398
19.2088 59.5861
19.3898 76.0825
19.5709 54.068
19.752 53.1783
19.9332 56.3534
20.1144 70.0288
20.2957 64.1515
20.477 52.7575
20.6586 49.614
20.84 48.7415
21.0215 48.3592
21.203 50.7575
21.3846 48.7152
21.5662 48.9414
21.7479 52.9334
21.9297 64.7744
22.1115 55.9807
22.2933 49.5876
22.4753 48.6978
22.6572 49.0369
22.8393 52.1631
23.0214 57.0405
23.2037 48.5764
23.3859 49.9603
23.5682 57.2463
23.7505 47.7666
23.9329 45.3044
24.1154 44.0286
24.2979 43.3174
24.4805 42.8059
24.6631 42.8323
24.8458 42.1803
25.0286 42.8966
25.2114 44.6093
25.3943 44.417
25.5773 40.7394
25.7605 40.357
25.9436 40.8206
26.1268 41.6977
26.31 40.0795
26.4933 40.709
26.6767 42.1284
26.8601 40.3318
27.0437 38.798
27.2272 38.4279
27.4109 38.2892
27.5946 38.3256
27.7784 37.9374
27.9623 38.3792
28.1462 38.7667
28.3304 37.1733
28.5145 35.9327
28.6987 35.4905
28.8829 35.3214
29.0673 34.5821
29.2517 34.2733
29.4361 33.9897
29.6207 33.1463
29.8053 32.9494
29.99 32.4841
30.1748 32.3507
30.3597 32.1823
30.5447 32.1446
30.7297 32.198
30.915 31.5587
31.1002 31.1121
31.2855 30.8668
31.4708 30.909
31.6563 30.3343
31.8418 30.1426
32.0275 29.8764
32.2132 29.3707
32.399 28.9424
32.5848 28.3299
32.7708 28.0995
32.9569 27.988
33.143 27.865
33.3293 27.2917
33.5158 27.0584
33.7022 26.5282
33.8887 26.3208
34.0753 25.9008
34.262 25.6119
34.4488 25.2618
34.6357 24.9367
34.8227 24.6884
35.0098 24.4164
35.1969 24.1709
35.3842 23.9922
35.5716 23.8108
35.759 23.449
35.9468 23.0799
36.1345 22.9323
36.3222 22.568
36.5101 22.4315
36.6981 22.0794
36.8861 21.7984
37.0743 21.4085
37.2626 21.2227
37.451 20.964
37.6395 20.854
37.8281 20.414
38.0168 20.1984
38.2056 19.912
38.3945 19.6159
38.5837 19.4552
38.7728 19.126
38.9621 18.9369
39.1514 18.7034
39.3409 18.3884
39.5304 18.2214
39.7201 18.0309
39.9099 17.8011
40.0999 17.5578
40.2899 17.3199
40.48 17.1089
40.6703 16.8911
40.8607 16.6841
41.0512 16.493
41.242 16.2018
41.4327 16.0355
41.6236 15.7571
41.8146 15.5939
42.0057 15.4559
42.1969 15.1982
42.3882 15.0686
42.5797 14.8144
42.7713 14.6148
42.963 14.4085
43.1549 14.1907
43.3468 13.9974
43.5389 13.8105
43.7312 13.5915
43.9237 13.4913
44.1162 13.2584
44.3088 13.085
44.5016 12.8917
44.6945 12.7467
44.8875 12.5473
45.0806 12.3659
45.2739 12.2001
45.4673 12.0178
45.6609 11.8576
45.8546 11.6765
46.0484 11.4913
46.2424 11.3451
46.4365 11.1429
46.631 10.9987
46.8254 10.8355
47.0199 10.7119
47.2146 10.5385
47.4095 10.3707
47.6044 10.2151
47.7996 10.0497
47.9948 9.92816
48.1902 9.764
48.3858 9.63263
48.5815 9.50417
48.7774 9.39631
48.9734 9.22745
49.1696 9.08182
49.3661 8.94269
49.5626 8.76759
49.7592 8.68184
49.956 8.55772
50.153 8.40553
50.3501 8.27267
50.5474 8.15466
50.7448 8.06755
50.9424 7.89069
51.1402 7.79455
51.3381 7.64811
51.5362 7.52404
51.7344 7.4089
51.9328 7.31428
52.1316 7.15946
52.3304 7.08137
52.5293 6.94675
52.7284 6.8574
52.9276 6.69214
53.1271 6.61051
53.3267 6.5144
53.5265 6.34376
53.7264 6.25934
53.9266 6.14722
54.1269 6.01782
54.3274 5.92114
54.528 5.84239
54.7289 5.63144
54.9301 5.48874
55.1314 5.32491
55.3328 5.14464
55.5344 4.95137
55.7361 4.77282

File: Ni3Fe_FD0686.xy
TT I
1.27165 7.45976
1.45013 5.91748
1.62863 5.4302
1.80712 4.95096
1.98562 4.94857
2.16411 4.6993
2.34263 5.99806
2.52115 6.43309
2.69965 8.61954
2.87818 8.85152
3.05672 11.0563
3.23527 14.6227
3.4138 18.4151
3.59237 23.3157
3.77094 26.0672
3.9495 29.4551
4.12809 34.3633
4.30669 132.938
4.4853 56.5468
4.6639 55.3677
4.84253 68.1606
5.02118 87.3879
5.19981 416.146
5.37848 190.712
5.55716 102.521
5.73586 92.9282
5.91455 95.6414
6.09328 4581.3
6.27201 80.9814
6.45075 68.1693
6.62952 62.334
6.8083 58.617
6.98711 55.6923
7.16591 55.5617
7.34475 74.2036
7.5236 54.1367
7.70247 56.2776
7.88135 57.6026
8.06026 62.0853
8.23919 69.2023
8.41812 84.7093
8.59709 1233.87
8.77609 98.4075
8.9551 89.4282
9.13412 82.335
9.31318 83.9572
9.49226 84.5141
9.67134 95.4111
9.85047 100.704
10.0296 366.478
10.2088 361.791
10.388 105.042
10.5672 513.017
10.7465 86.1842
10.9257 77.8498
11.105 71.3205
11.2844 68.8835
11.4637 64.617
11.6431 63.2037
11.8225 62.7042
12.002 64.2433
12.1814 154.895
12.3609 67.8276
12.5405 64.5404
12.72 68.7338
12.8996 71.3864
13.0792 79.8642
13.2589 248.263
13.4386 120.146
13.6183 256.303
13.7981 94.0416
13.9779 75.7961
14.1577 71.9207
14.3376 70.5409
14.5175 68.78
14.6974 70.5728
14.8774 113.722
15.0574 140.481
15.2374 69.9205
15.4175 66.231
15.5976 65.8681
15.7778 97.0117
15.958 149.549
16.1382 61.502
16.3185 58.0656
16.4988 55.406
16.6792 54.3631
16.8596 54.9371
17.04 56.0015
17.2205 67.1583
17.401 69.9397
17.5815 58.9707
17.7622 61.1848
17.9428 74.4262
18.1237 142.523
18.3044 91.4648
18.4852 75.2194
18.666 60.3263
18.8469 57.8873
19.0278 56.8223
19.2088 59.3786
19.3898 76.0819
19.5709 54.1953
19.752 53.3836
19.9332 56.3105
20.1144 69.9991
20.2957 64.063
20.477 52.6676
20.6586 49.4927
20.84 48.7327
21.0215 48.5444
21.203 50.8587
21.3846 48.8144
21.5662 48.9691
21.7479 52.7476
21.9297 64.7285
22.1115 56.0615
22.2933 49.623
22.4753 48.6468
22.6572 48.977
22.8393 52.171
23.0214 57.23
23.2037 48.6714
23.3859 49.8698
23.5682 57.3675
23.7505 47.8912
23.9329 45.1828
24.1154 44.0046
24.2979 43.3295
24.4805 42.9345
24.6631 42.7055
24.8458 42.0889
25.0286 42.8961
25.2114 44.7228
25.3943 44.32
25.5773 40.9215
25.7605 40.5125
25.9436 40.7594
26.1268 41.6795
26.31 40.0944
26.4933 40.7433
26.6767 42.1601
26.8601 40.4302
27.0437 38.8138
27.2272 38.5065
27.4109 38.4087
27.5946 38.3347
27.7784 37.8514
27.9623 38.4408
28.1462 38.826
28.3304 37.0856
28.5145 35.8004
28.6987 35.6261
28.8829 35.4144
29.0673 34.5871
29.2517 34.2347
29.4361 34.0909
29.6207 33.0485
29.8053 32.8663
29.99 32.5919
30.1748 32.3296
30.3597 32.1527
30.5447 32.1439
30.7297 32.1792
30.915 31.5165
31.1002 31.0908
31.2855 30.7812
31.4708 30.7996
31.6563 30.257
31.8418 30.1833
32.0275 29.8195
32.2132 29.3589
32.399 28.9265
32.5848 28.5089
32.7708 28.0515
32.9569 27.9525
33.143 27.7614
33.3293 27.3678
33.5158 27.0765
33.7022 26.6211
33.8887 26.3303
34.0753 25.9707
34.262 25.6195
34.4488 25.24
34.6357 24.9083
34.8227 24.6299
35.0098 24.4528
35.1969 24.197
35.3842 23.9819
35.5716 23.748
35.759 23.4554
35.9468 23.1384
36.1345 22.8377
36.3222 22.5938
36.5101 22.4186
36.6981 22.0584
36.8861 21.747
37.0743 21.4871
37.2626 21.2187
37.451 20.9391
37.6395 20.8519
37.8281 20.4134
38.0168 20.2066
38.2056 19.9665
38.3945 19.7114
38.5837 19.4281
38.7728 19.2123
38.9621 18.9844
39.1514 18.6143
39.3409 18.4353
39.5304 18.2782
39.7201 18.0413
39.9099 17.8118
40.0999 17.574
40.2899 17.3568
40.48 17.1043
40.6703 16.8583
40.8607 16.6987
41.0512 16.5286
41.242 16.2154
41.4327 16.0533
41.6236 15.809
41.8146 15.6529
42.0057 15.4302
42.1969 15.1877
42.3882 15.0472
42.5797 14.7791
42.7713 14.5873
42.963 14.4126
43.1549 14.1841
43.3468 14.0
43.5389 13.8004
43.7312 13.5872
43.9237 13.4183
44.1162 13.2372
44.3088 13.0877
44.5016 12.8333
44.6945 12.686
44.8875 12.5106
45.0806 12.3587
45.2739 12.1816
45.4673 12.0306
45.6609 11.8362
45.8546 11.6908
46.0484 11.4779
46.2424 11.3429
46.4365 11.1949
46.631 11.0119
46.8254 10.8823
47.0199 10.7218
47.2146 10.5327
47.4095 10.3973
47.6044 10.2326
47.7996 10.0878
47.9948 9.93427
48.1902 9.82472
48.3858 9.66166
48.5815 9.47594
48.7774 9.38158
48.9734 9.22985
49.1696 9.10231
49.3661 8.95563
49.5626 8.77371
49.7592 8.66522
49.956 8.53687
50.153 8.40179
50.3501 8.30999
50.5474 8.16076
50.7448 8.02232
50.9424 7.91219
51.1402 7.78308
51.3381 7.67157
51.5362 7.53995
51.7344 7.42725
51.9328 7.27284
52.1316 7.17695
52.3304 7.03844
52.5293 6.9272
52.7284 6.82845
52.9276 6.69955
53.1271 6.63121
53.3267 6.48719
53.5265 6.38578
53.7264 6.28429
53.9266 6.16153
54.1269 6.03949
54.3274 5.94325
54.528 5.79937
54.7289 5.63959
54.9301 5.46315
55.1314 5.30553
55.3328 5.14462
55.5344 4.96691
55.7361 4.85349

File: Ni3Fe_FD0687.xy
TT I
1.27165 7.68559
1.45013 6.1108
1.62863 5.14909
1.80712 4.85171
1.98562 4.84281
2.16411 4.14112
2.34263 5.01236
2.52115 6.79067
2.69965 8.03039
2.87818 8.79218
3.05672 10.9091
3.23527 15.08
3.4138 18.4974
3.59237 23.0309
3.77094 25.9462
3.9495 28.8764
4.12809 34.1982
4.30669 131.449
4.4853 56.6704
4.6639 55.5725
4.84253 67.7581
5.02118 87.4665
5.19981 418.402
5.37848 191.619
5.55716 102.381
5.73586 92.5885
5.91455 95.5344
6.09328 4585.38
6.27201 80.9986
6.45075 68.098
6.62952 62.3869
6.8083 58.6298
6.98711 55.5227
7.16591 55.3223
7.34475 73.3174
7.5236 54.6299
7.70247 56.2052
7.88135 57.483
8.06026 62.3553
8.23919 69.3501
8.41812 84.3895
8.59709 1235.04
8.77609 98.2708
8.9551 89.2154
9.13412 82.2586
9.31318 83.7643
9.49226 84.8528
9.67134 95.5768
9.85047 100.441
10.0296 366.729
10.2088 361.005
10.388 104.885
10.5672 514.09
10.7465 86.0818
10.9257 77.9894
11.105 71.4203
11.2844 68.8299
11.4637 64.5633
11.6431 63.5515
11.8225 62.2883
12.002 64.1827
12.1814 154.763
12.3609 67.814
12.5405 64.7439
12.72 68.3641
12.8996 71.1844
13.0792 79.882
13.2589 248.352
13.4386 120.11
13.6183 255.679
13.7981 93.7183
13.9779 75.6154
14.1577 71.9413
14.3376 70.7023
14.5175 68.7814
14.6974 70.6505
14.8774 113.583
15.0574 140.126
15.2374 70.1106
15.4175 66.1685
15.5976 65.9914
15.7778 96.9155
15.958 149.774
16.1382 61.5932
16.3185 58.1011
16.4988 55.4606
16.6792 54.3752
16.8596 54.863
17.04 56.0693
17.2205 67.4299
17.401 69.9085
17.5815 59.2138
17.7622 61.2183
17.9428 74.7585
18.1237 142.623
18.3044 91.3489
18.4852 75.5035
18.666 60.3483
18.8469 58.0864
19.0278 56.8188
19.2088 59.3752
19.3898 76.0563
19.5709 54.1166
19.752 53.0232
19.9332 56.5061
20.1144 70.0801
20.2957 64.1207
20.477 52.8415
20.6586 49.6937
20.84 48.7417
21.0215 48.6028
21.203 50.8844
21.3846 48.7336
21.5662 48.8696
21.7479 52.8722
21.9297 64.8544
22.1115 55.8733
22.2933 49.5706
22.4753 48.6663
22.6572 48.9215
22.8393 52.2306
23.0214 57.067
23.2037 48.6755
23.3859 49.8168
23.5682 57.1316
23.7505 47.9894
23.9329 45.1569
24.1154 43.8924
24.2979 43.2907
24.4805 42.8367
24.6631 42.6897
24.8458 42.1408
25.0286 42.7177
25.2114 44.6158
25.3943 44.4435
25.5773 40.778
25.7605 40.4129
25.9436 40.8761
26.1268 41.6987
26.31 39.9868
26.4933 40.5949
26.6767 42.1558
26.8601 40.2518
27.0437 38.6914
27.2272 38.5928
27.4109 38.3924
27.5946 38.2727
27.7784 37.811
27.9623 38.4917
28.1462 38.757
28.3304 37.0568
28.5145 35.9157
28.6987 35.5088
28.8829 35.2775
29.0673 34.6915
29.2517 34.3457
29.4361 34.1203
29.6207 33.0843
29.8053 32.8867
29.99 32.6303
30.1748 32.4238
30.3597 32.1495
30.5447 32.1388
30.7297 32.2202
30.915 31.4848
31.1002 31.0261
31.2855 30.7949
31.4708 30.758
31.6563 30.2497
31.8418 30.1518
32.0275 29.9449
32.2132 29.3324
32.399 28.855
32.5848 28.4757
32.7708 28.0511
32.9569 27.9909
33.143 27.7548
33.3293 27.2933
33.5158 26.9203
33.7022 26.5757
33.8887 26.2444
34.0753 25.9134
34.262 25.613
34.4488 25.2593
34.6357 24.9483
34.8227 24.6279
35.0098 24.462
35.1969 24.1101
35.3842 23.9149
35.5716 23.6779
35.759 23.4168
35.9468 23.0955
36.1345 22.9152
36.3222 22.7136
36.5101 22.3849
36.6981 22.1058
36.8861 21.7442
37.0743 21.4792
37.2626 21.1693
37.451 20.9504
37.6395 20.8065
37.8281 20.4523
38.0168 20.236
38.2056 19.9247
38.3945 19.6168
38.5837 19.4259
38.7728 19.1524
38.9621 18.8609
39.1514 18.6563
39.3409 18.39
39.5304 18.2629
39.7201 18.0208
39.9099 17.8198
40.0999 17.5931
40.2899 17.3568
40.48 17.0858
40.6703 16.8673
40.8607 16.6814
41.0512 16.4994
41.242 16.1859
41.4327 16.0479
41.6236 15.8273
41.8146 15.6488
42.0057 15.3879
42.1969 15.2108
42.3882 15.021
42.5797 14.7533
42.7713 14.6011
42.963 14.3715
43.1549 14.2275
43.3468 14.0089
43.5389 13.8509
43.7312 13.592
43.9237 13.4492
44.1162 13.2192
44.3088 13.0647
44.5016 12.8477
44.6945 12.6991
44.8875 12.5307
45.0806 12.3352
45.2739 12.1831
45.4673 12.0515
45.6609 11.8529
45.8546 11.6421
46.0484 11.5373
46.2424 11.3239
46.4365 11.2041
46.631 10.9819
46.8254 10.839
47.0199 10.6841
47.2146 10.5465
47.4095 10.3715
47.6044 10.2033
47.7996 10.0861
47.9948 9.90398
48.1902 9.76214
48.3858 9.6583
48.5815 9.54984
48.7774 9.36405
48.9734 9.23033
49.1696 9.07161
49.3661 8.96201
49.5626 8.8398
49.7592 8.66829
49.956 8.53524
50.153 8.43467
50.3501 8.29151
50.5474 8.17862
50.7448 8.02259
50.9424 7.91122
51.1402 7.78172
51.3381 7.63121
51.5362 7.52802
51.7344 7.4044
51.9328 7.2696
52.1316 7.15995
52.3304 7.06879
52.5293 6.92335
52.7284 6.84037
52.9276 6.69389
53.1271 6.62417
53.3267 6.48254
53.5265 6.37357
53.7264 6.25861
53.9266 6.18719
54.1269 6.06185
54.3274 5.92117
54.528 5.77955
54.7289 5.62147
54.9301 5.49513
55.1314 5.37239
55.3328 5.10373
55.5344 4.95991
55.7361 4.82433

File: Ni3Fe_FD0688.xy
TT I
1.27165 7.66829
1.45013 6.09696
1.62863 5.31302
1.80712 4.45582
1.98562 4.60327
2.16411 4.58761
2.34263 5.57486
2.52115 6.64598
2.69965 8.21367
2.87818 9.05532
3.05672 10.7798
3.23527 14.8473
3.4138 18.8167
3.59237 23.1583
3.77094 25.8763
3.9495 29.2796
4.12809 34.4343
4.30669 129.501
4.4853 56.4247
4.6639 55.2505
4.84253 67.9148
5.02118 87.2436
5.19981 419.365
5.37848 191.673
5.55716 102.002
5.73586 93.0256
5.91455 95.7613
6.09328 4578.14
6.27201 81.2513
6.45075 68.0487
6.62952 62.3629
6.8083 58.6068
6.98711 55.2003
7.16591 55.5477
7.34475 72.9177
7.5236 54.2071
7.70247 56.1411
7.88135 57.6577
8.06026 62.513
8.23919 69.3102
8.41812 84.4563
8.59709 1232.45
8.77609 98.4848
8.9551 89.0579
9.13412 82.4967
9.31318 83.401
9.49226 84.711
9.67134 95.563
9.85047 100.959
10.0296 365.96
10.2088 363.71
10.388 105.168
10.5672 514.479
10.7465 85.9687
10.9257 77.914
11.105 71.4765
11.2844 68.5727
11.4637 64.8569
11.6431 63.3275
11.8225 62.3967
12.002 63.8938
12.1814 155.038
12.3609 67.7847
12.5405 64.7197
12.72 68.4061
12.8996 71.2619
13.0792 79.9253
13.2589 248.553
13.4386 120.349
13.6183 256.429
13.7981 93.9462
13.9779 75.9734
14.1577 71.9118
14.3376 70.6692
14.5175 68.6707
14.6974 70.4815
14.8774 113.72
15.0574 140.427
15.2374 69.795
15.4175 66.1473
15.5976 65.9157
15.7778 96.6564
15.958 150.271
16.1382 61.5081
16.3185 58.0288
16.4988 55.4781
16.6792 54.3517
16.8596 54.7981
17.04 55.8614
17.2205 67.1929
17.401 69.8529
17.5815 59.0877
17.7622 61.2663
17.9428 74.5026
18.1237 142.702
18.3044 91.6356
18.4852 75.3102
18.666 60.2924
18.8469 57.6932
19.0278 56.7121
19.2088 59.5311
19.3898 76.0161
19.5709 53.924
19.752 53.2702
19.9332 56.2825
20.1144 69.9264
20.2957 64.2801
20.477 52.9078
20.6586 49.4294
20.84 48.7726
21.0215 48.6162
21.203 50.7965
21.3846 48.7078
21.5662 48.8809
21.7479 52.8155
21.9297 64.8817
22.1115 56.1012
22.2933 49.6793
22.4753 48.5512
22.6572 48.9336
22.8393 52.2113
23.0214 57.0623
23.2037 48.7345
23.3859 49.6733
23.5682 57.1792
23.7505 47.9396
23.9329 45.1142
24.1154 43.8854
24.2979 43.2573
24.4805 42.8568
24.6631 42.7695
24.8458 42.1945
25.0286 42.8477
25.2114 44.548
25.3943 44.3957
25.5773 40.8815
25.7605 40.3344
25.9436 40.7584
26.1268 41.6656
26.31 40.0139
26.4933 40.741
26.6767 42.3579
26.8601 40.2915
27.0437 38.7927
27.2272 38.398
27.4109 38.3426
27.5946 38.3429
27.7784 37.8658
27.9623 38.4791
28.1462 38.6184
28.3304 37.0472
28.5145 35.8139
28.6987 35.5888
28.8829 35.2864
29.0673 34.592
29.2517 34.2885
29.4361 34.0336
29.6207 33.0655
29.8053 32.8701
29.99 32.5622
30.1748 32.4946
30.3597 32.245
30.5447 32.0818
30.7297 32.1511
30.915 31.5632
31.1002 31.045
31.2855 30.9294
31.4708 30.8222
31.6563 30.2762
31.8418 30.1178
32.0275 29.8897
32.2132 29.3224
32.399 28.7997
32.5848 28.4905
32.7708 28.0381
32.9569 27.9459
33.143 27.8071
33.3293 27.2902
33.5158 26.9757
33.7022 26.5562
33.8887 26.2778
34.0753 25.8709
34.262 25.5884
34.4488 25.3284
34.6357 24.9001
34.8227 24.6667
35.0098 24.4534
35.1969 24.1878
35.3842 23.9554
35.5716 23.7056
35.759 23.4351
35.9468 23.0905
36.1345 22.8644
36.3222 22.5535
36.5101 22.3754
36.6981 22.1417
36.8861 21.7801
37.0743 21.5099
37.2626 21.2153
37.451 21.0038
37.6395 20.8197
37.8281 20.4548
38.0168 20.1834
38.2056 19.9045
38.3945 19.6571
38.5837 19.438
38.7728 19.2124
38.9621 18.9116
39.1514 18.6698
39.3409 18.4751
39.5304 18.256
39.7201 18.0242
39.9099 17.8149
40.0999 17.5383
40.2899 17.2773
40.48 17.1305
40.6703 16.9059
40.8607 16.7304
41.0512 16.4261
41.242 16.2131
41.4327 16.0021
41.6236 15.8058
41.8146 15.5874
42.0057 15.3571
42.1969 15.1369
42.3882 15.0241
42.5797 14.8195
42.7713 14.6505
42.963 14.3814
43.1549 14.1785
43.3468 13.9922
43.5389 13.8358
43.7312 13.6198
43.9237 13.4272
44.1162 13.261
44.3088 13.0911
44.5016 12.8305
44.6945 12.7139
44.8875 12.5095
45.0806 12.365
45.2739 12.2015
45.4673 11.9917
45.6609 11.8203
45.8546 11.7227
46.0484 11.5053
46.2424 11.3252
46.4365 11.2048
46.631 11.0084
46.8254 10.8295
47.0199 10.6718
47.2146 10.5554
47.4095 10.41
47.6044 10.2172
47.7996 10.0668
47.9948 9.93483
48.1902 9.80219
48.3858 9.65935
48.5815 9.50938
48.7774 9.40349
48.9734 9.22617
49.1696 9.06759
49.3661 8.93673
49.5626 8.80224
49.7592 8.67701
49.956 8.55929
50.153 8.41542
50.3501 8.29647
50.5474 8.12995
50.7448 8.03897
50.9424 7.88406
51.1402 7.80916
51.3381 7.62944
51.5362 7.51873
51.7344 7.39598
51.9328 7.3226
52.1316 7.1539
52.3304 7.07513
52.5293 6.95329
52.7284 6.85814
52.9276 6.7011
53.1271 6.60476
53.3267 6.48225
53.5265 6.3728
53.7264 6.26265
53.9266 6.17957
54.1269 6.03689
54.3274 5.93294
54.528 5.82641
54.7289 5.59399
54.9301 5.45619
55.1314 5.31277
55.3328 5.17328
55.5344 4.95717
55.7361 4.76333

File: Ni3Fe_FD0689.xy
TT I
1.27165 7.25708
1.45013 6.00763
1.62863 5.69596
1.80712 4.8697
1.98562 4.62002
2.16411 4.84034
2.34263 5.30536
2.52115 6.67128
2.69965 8.8545
2.87818 8.28721
3.05672 10.6838
3.23527 15.1656
3.4138 18.8479
3.59237 23.1308
3.77094 25.9412
3.9495 29.7032
4.12809 34.3468
4.30669 126.86
4.4853 56.4955
4.6639 55.6856
4.84253 68.4526
5.02118 87.8783
5.19981 424.035
5.37848 191.31
5.55716 102.278
5.73586 93.096
5.91455 95.0585
6.09328 4561.51
6.27201 81.39
6.45075 68.4324
6.62952 62.4901
6.8083 59.0202
6.98711 55.3949
7.16591 55.3895
7.34475 72.3399
7.5236 54.5007
7.70247 56.4993
7.88135 57.4884
8.06026 62.8031
8.23919 69.7185
8.41812 84.6214
8.59709 1230.78
8.77609 98.0808
8.9551 89.459
9.13412 82.641
9.31318 83.7077
9.49226 84.9211
9.67134 95.5617
9.85047 100.339
10.0296 367.282
10.2088 359.027
10.388 105.601
10.5672 514.1
10.7465 86.2701
10.9257 77.6457
11.105 71.5919
11.2844 69.0264
11.4637 64.8609
11.6431 63.591
11.8225 62.5859
12.002 64.1648
12.1814 155.649
12.3609 67.4867
12.5405 64.734
12.72 68.2699
12.8996 71.1193
13.0792 80.4529
13.2589 250.486
13.4386 120.503
13.6183 256.442
13.7981 93.5028
13.9779 75.7829
14.1577 72.0631
14.3376 70.792
14.5175 68.6096
14.6974 70.5287
14.8774 113.945
15.0574 140.358
15.2374 70.0324
15.4175 66.2125
15.5976 65.8702
15.7778 97.1391
15.958 150.309
16.1382 61.7892
16.3185 58.0847
16.4988 55.0914
16.6792 54.3605
16.8596 54.9241
17.04 55.9024
17.2205 67.2681
17.401 69.8606
17.5815 59.1878
17.7622 61.3251
17.9428 74.5589
18.1237 142.713
18.3044 91.5989
18.4852 75.08
18.666 60.2831
18.8469 57.7781
19.0278 56.9264
19.2088 59.4117
19.3898 76.2642
19.5709 54.1007
19.752 53.2348
19.9332 56.4551
20.1144 69.8744
20.2957 64.0323
20.477 52.9793
20.6586 49.6397
20.84 48.853
21.0215 48.5516
21.203 50.7383
21.3846 48.8595
21.5662 48.9674
21.7479 52.8801
21.9297 64.7239
22.1115 55.9397
22.2933 49.7138
22.4753 48.7568
22.6572 49.0023
22.8393 52.1011
23.0214 56.9569
23.2037 48.715
23.3859 49.9023
23.5682 57.3796
23.7505 47.8976
23.9329 45.0903
24.1154 43.9839
24.2979 43.4618
24.4805 42.8393
24.6631 42.6879
24.8458 42.273
25.0286 42.8692
25.2114 44.5363
25.3943 44.3866
25.5773 40.754
25.7605 40.3998
25.9436 40.8533
26.1268 41.5781
26.31 39.9703
26.4933 40.6891
26.6767 42.0565
26.8601 40.2744
27.0437 38.8899
27.2272 38.4537
27.4109 38.3993
27.5946 38.3594
27.7784 37.7672
27.9623 38.5489
28.1462 38.8388
28.3304 37.0459
28.5145 35.9818
28.6987 35.6275
28.8829 35.3837
29.0673 34.6286
29.2517 34.2313
29.4361 34.1044
29.6207 33.1356
29.8053 32.7849
29.99 32.4559
30.1748 32.4658
30.3597 32.1878
30.5447 32.1133
30.7297 32.1119
30.915 31.6121
31.1002 31.2059
31.2855 30.7782
31.4708 30.8535
31.6563 30.2023
31.8418 30.0759
32.0275 29.868
32.2132 29.3399
32.399 28.8223
32.5848 28.4622
32.7708 28.1405
32.9569 27.9152
33.143 27.7687
33.3293 27.383
33.5158 27.0121
33.7022 26.5548
33.8887 26.2656
34.0753 25.9827
34.262 25.6504
34.4488 25.2218
34.6357 24.9184
34.8227 24.6225
35.0098 24.4976
35.1969 24.2221
35.3842 23.9169
35.5716 23.7662
35.759 23.4415
35.9468 23.1376
36.1345 22.8342
36.3222 22.6125
36.5101 22.3646
36.6981 22.1204
36.8861 21.8012
37.0743 21.3869
37.2626 21.1995
37.451 20.9125
37.6395 20.7595
37.8281 20.4856
38.0168 20.1765
38.2056 19.9401
38.3945 19.6054
38.5837 19.4304
38.7728 19.108
38.9621 18.9527
39.1514 18.6633
39.3409 18.4193
39.5304 18.3141
39.7201 18.0358
39.9099 17.8306
40.0999 17.6073
40.2899 17.3189
40.48 17.0914
40.6703 16.9031
40.8607 16.6997
41.0512 16.5234
41.242 16.2033
41.4327 15.9896
41.6236 15.7785
41.8146 15.6624
42.0057 15.4146
42.1969 15.185
42.3882 15.0427
42.5797 14.813
42.7713 14.6059
42.963 14.3958
43.1549 14.1849
43.3468 13.9338
43.5389 13.774
43.7312 13.5555
43.9237 13.4551
44.1162 13.2444
44.3088 13.0675
44.5016 12.885
44.6945 12.6945
44.8875 12.5325
45.0806 12.3435
45.2739 12.1891
45.4673 12.0054
45.6609 11.8378
45.8546 11.6588
46.0484 11.5294
46.2424 11.3668
46.4365 11.1931
46.631 11.0039
46.8254 10.847
47.0199 10.6817
47.2146 10.5574
47.4095 10.3884
47.6044 10.2709
47.7996 10.0828
47.9948 9.92872
48.1902 9.78544
48.3858 9.66517
48.5815 9.50633
48.7774 9.39408
48.9734 9.25975
49.1696 9.08255
49.3661 8.95182
49.5626 8.84116
49.7592 8.69574
49.956 8.55414
50.153 8.40459
50.3501 8.28152
50.5474 8.17565
50.7448 8.07572
50.9424 7.91953
51.1402 7.81755
51.3381 7.6419
51.5362 7.51353
51.7344 7.40262
51.9328 7.26613
52.1316 7.12684
52.3304 7.06913
52.5293 6.93047
52.7284 6.84008
52.9276 6.69753
53.1271 6.59233
53.3267 6.46863
53.5265 6.39531
53.7264 6.26477
53.9266 6.15537
54.1269 6.03752
54.3274 5.93402
54.528 5.78517
54.7289 5.63222
54.9301 5.42577
55.1314 5.3768
55.3328 5.18177
55.5344 4.90845
55.7361 4.8238