Folder: NiFe_MOF_catalyst_paper/XRD (part 90)

File: Ni3Fe_FD0486.xy
TT I
1.27165 7.59035
1.45013 6.87121
1.62863 5.329
1.80712 4.87155
1.98562 5.55317
2.16411 5.3083
2.34263 4.96371
2.52115 6.24716
2.69965 8.52642
2.87818 8.75413
3.05672 10.7327
3.23527 14.5319
3.4138 19.0268
3.59237 23.6294
3.77094 25.8807
3.9495 29.7972
4.12809 34.9087
4.30669 126.857
4.4853 56.6227
4.6639 56.4931
4.84253 68.7152
5.02118 89.8623
5.19981 481.464
5.37848 210.02
5.55716 104.948
5.73586 95.3691
5.91455 98.8111
6.09328 4180.89
6.27201 83.9106
6.45075 68.8537
6.62952 63.4909
6.8083 59.6224
6.98711 56.1652
7.16591 56.5074
7.34475 73.2097
7.5236 55.0892
7.70247 57.199
7.88135 58.5401
8.06026 63.5822
8.23919 70.3984
8.41812 86.5252
8.59709 1227.23
8.77609 102.241
8.9551 90.9402
9.13412 83.904
9.31318 84.9071
9.49226 86.4624
9.67134 96.8529
9.85047 102.518
10.0296 403.846
10.2088 451.336
10.388 107.729
10.5672 488.52
10.7465 88.5031
10.9257 79.0788
11.105 72.4469
11.2844 69.6607
11.4637 65.9301
11.6431 64.2103
11.8225 63.6032
12.002 65.3394
12.1814 154.075
12.3609 69.6872
12.5405 65.461
12.72 69.4182
12.8996 72.2488
13.0792 81.3924
13.2589 250.379
13.4386 131.905
13.6183 252.574
13.7981 102.762
13.9779 77.3126
14.1577 73.4382
14.3376 72.0454
14.5175 70.0367
14.6974 71.8014
14.8774 118.456
15.0574 155.911
15.2374 71.2142
15.4175 67.7177
15.5976 67.0116
15.7778 101.552
15.958 158.852
16.1382 62.9762
16.3185 59.1256
16.4988 56.3307
16.6792 55.5328
16.8596 55.8995
17.04 57.145
17.2205 68.8351
17.401 72.3461
17.5815 60.1199
17.7622 62.2513
17.9428 76.922
18.1237 136.076
18.3044 91.9187
18.4852 80.1178
18.666 61.4102
18.8469 59.1219
19.0278 57.8092
19.2088 60.9257
19.3898 75.5201
19.5709 55.1437
19.752 54.3045
19.9332 57.5225
20.1144 69.9957
20.2957 64.0079
20.477 54.7606
20.6586 50.4651
20.84 49.6989
21.0215 49.3781
21.203 51.6314
21.3846 50.0138
21.5662 49.8183
21.7479 54.0486
21.9297 64.5815
22.1115 56.4775
22.2933 50.6031
22.4753 49.6718
22.6572 49.8872
22.8393 53.295
23.0214 57.7754
23.2037 49.5995
23.3859 50.8935
23.5682 56.9582
23.7505 49.342
23.9329 45.9376
24.1154 44.8141
24.2979 43.884
24.4805 43.6178
24.6631 43.3553
24.8458 42.9787
25.0286 43.5215
25.2114 45.4425
25.3943 45.1065
25.5773 41.6215
25.7605 41.1755
25.9436 41.5873
26.1268 42.2092
26.31 40.8804
26.4933 41.4434
26.6767 42.6711
26.8601 41.0253
27.0437 39.4793
27.2272 39.2915
27.4109 39.0061
27.5946 39.0067
27.7784 38.5742
27.9623 38.943
28.1462 39.448
28.3304 37.7539
28.5145 36.4853
28.6987 36.1836
28.8829 36.0001
29.0673 35.2241
29.2517 34.9187
29.4361 34.708
29.6207 33.6257
29.8053 33.4261
29.99 33.1068
30.1748 32.9952
30.3597 32.7166
30.5447 32.5917
30.7297 32.6212
30.915 32.1216
31.1002 31.6654
31.2855 31.2718
31.4708 31.2578
31.6563 30.7311
31.8418 30.6899
32.0275 30.3586
32.2132 29.8644
32.399 29.3497
32.5848 28.8408
32.7708 28.561
32.9569 28.4742
33.143 28.2422
33.3293 27.816
33.5158 27.466
33.7022 27.0859
33.8887 26.7051
34.0753 26.428
34.262 26.0621
34.4488 25.6383
34.6357 25.3447
34.8227 24.9957
35.0098 24.8697
35.1969 24.5521
35.3842 24.2813
35.5716 24.102
35.759 23.7359
35.9468 23.4715
36.1345 23.2485
36.3222 23.0506
36.5101 22.7559
36.6981 22.4084
36.8861 22.1115
37.0743 21.8411
37.2626 21.5374
37.451 21.2791
37.6395 21.0595
37.8281 20.7678
38.0168 20.5259
38.2056 20.3308
38.3945 19.9336
38.5837 19.7546
38.7728 19.4663
38.9621 19.2968
39.1514 18.9638
39.3409 18.695
39.5304 18.5798
39.7201 18.3096
39.9099 18.1268
40.0999 17.8659
40.2899 17.6413
40.48 17.3604
40.6703 17.1679
40.8607 16.9791
41.0512 16.7563
41.242 16.4643
41.4327 16.2756
41.6236 16.035
41.8146 15.8897
42.0057 15.6888
42.1969 15.4068
42.3882 15.2278
42.5797 15.0138
42.7713 14.8259
42.963 14.6449
43.1549 14.4254
43.3468 14.1685
43.5389 14.0253
43.7312 13.8257
43.9237 13.6366
44.1162 13.4227
44.3088 13.2476
44.5016 13.0835
44.6945 12.8791
44.8875 12.709
45.0806 12.5416
45.2739 12.339
45.4673 12.2173
45.6609 11.9864
45.8546 11.8756
46.0484 11.6762
46.2424 11.5533
46.4365 11.3481
46.631 11.1532
46.8254 10.9871
47.0199 10.8484
47.2146 10.7234
47.4095 10.5503
47.6044 10.3315
47.7996 10.2128
47.9948 10.1033
48.1902 9.96375
48.3858 9.8018
48.5815 9.65615
48.7774 9.50781
48.9734 9.38654
49.1696 9.22708
49.3661 9.09308
49.5626 8.96001
49.7592 8.80244
49.956 8.67151
50.153 8.57541
50.3501 8.39791
50.5474 8.26761
50.7448 8.1672
50.9424 8.03553
51.1402 7.92031
51.3381 7.7769
51.5362 7.63887
51.7344 7.5195
51.9328 7.36834
52.1316 7.27238
52.3304 7.20361
52.5293 7.06435
52.7284 6.91432
52.9276 6.78434
53.1271 6.70558
53.3267 6.55982
53.5265 6.46076
53.7264 6.36134
53.9266 6.26723
54.1269 6.12771
54.3274 6.04325
54.528 5.88561
54.7289 5.72498
54.9301 5.55392
55.1314 5.42323
55.3328 5.228
55.5344 5.00963
55.7361 4.87735

File: Ni3Fe_FD0487.xy
TT I
1.27165 7.6279
1.45013 7.17533
1.62863 5.52172
1.80712 4.86219
1.98562 5.00505
2.16411 4.80501
2.34263 5.20269
2.52115 6.67026
2.69965 7.71415
2.87818 8.84017
3.05672 10.6845
3.23527 15.4649
3.4138 19.0332
3.59237 23.5552
3.77094 26.0406
3.9495 30.0002
4.12809 34.6275
4.30669 141.018
4.4853 58.2003
4.6639 56.4937
4.84253 68.9366
5.02118 89.4871
5.19981 468.266
5.37848 208.468
5.55716 105.112
5.73586 94.743
5.91455 98.1876
6.09328 4137.85
6.27201 84.2732
6.45075 68.8922
6.62952 63.4301
6.8083 59.5323
6.98711 56.3379
7.16591 56.0014
7.34475 76.1867
7.5236 55.3863
7.70247 56.8709
7.88135 58.8059
8.06026 63.4377
8.23919 70.395
8.41812 86.6399
8.59709 1222.25
8.77609 102.106
8.9551 91.131
9.13412 83.5974
9.31318 84.7976
9.49226 86.1913
9.67134 96.9703
9.85047 102.371
10.0296 398.057
10.2088 453.273
10.388 107.594
10.5672 488.185
10.7465 88.1865
10.9257 79.0739
11.105 72.8659
11.2844 70.211
11.4637 66.0755
11.6431 64.5009
11.8225 63.5611
12.002 64.9248
12.1814 154.022
12.3609 69.921
12.5405 65.545
12.72 69.6123
12.8996 72.2877
13.0792 81.2107
13.2589 249.446
13.4386 132.154
13.6183 252.725
13.7981 102.833
13.9779 77.2199
14.1577 73.1506
14.3376 71.9744
14.5175 69.9472
14.6974 71.7034
14.8774 117.755
15.0574 156.452
15.2374 71.1599
15.4175 67.2771
15.5976 67.0923
15.7778 100.397
15.958 158.985
16.1382 62.9071
16.3185 59.3134
16.4988 56.2866
16.6792 55.4644
16.8596 56.0687
17.04 56.9217
17.2205 68.44
17.401 72.7885
17.5815 60.361
17.7622 62.3085
17.9428 76.546
18.1237 136.238
18.3044 92.198
18.4852 80.1264
18.666 61.3467
18.8469 59.1511
19.0278 57.9089
19.2088 60.9722
19.3898 75.5575
19.5709 55.0699
19.752 54.1759
19.9332 57.4528
20.1144 69.8733
20.2957 64.0687
20.477 54.8597
20.6586 50.4337
20.84 49.7362
21.0215 49.4064
21.203 51.3475
21.3846 49.7852
21.5662 49.7203
21.7479 54.079
21.9297 64.7556
22.1115 56.5339
22.2933 50.9406
22.4753 49.6511
22.6572 49.8044
22.8393 53.1993
23.0214 57.9991
23.2037 49.5008
23.3859 50.7535
23.5682 56.8951
23.7505 49.3844
23.9329 46.0103
24.1154 44.7665
24.2979 44.1202
24.4805 43.6403
24.6631 43.5764
24.8458 43.0253
25.0286 43.6573
25.2114 45.2809
25.3943 45.0035
25.5773 41.6502
25.7605 41.096
25.9436 41.6753
26.1268 42.2885
26.31 40.7322
26.4933 41.4975
26.6767 42.7859
26.8601 41.0977
27.0437 39.5741
27.2272 39.1744
27.4109 39.0289
27.5946 38.9211
27.7784 38.4693
27.9623 38.9178
28.1462 39.3856
28.3304 37.7232
28.5145 36.5731
28.6987 36.2669
28.8829 36.0003
29.0673 35.2604
29.2517 34.8613
29.4361 34.5416
29.6207 33.7516
29.8053 33.3471
29.99 33.0811
30.1748 32.9978
30.3597 32.875
30.5447 32.6636
30.7297 32.7269
30.915 32.1196
31.1002 31.6184
31.2855 31.3905
31.4708 31.2598
31.6563 30.8479
31.8418 30.6406
32.0275 30.3116
32.2132 29.8749
32.399 29.4663
32.5848 28.8639
32.7708 28.5556
32.9569 28.4296
33.143 28.3156
33.3293 27.7943
33.5158 27.4647
33.7022 27.0605
33.8887 26.664
34.0753 26.4178
34.262 25.9593
34.4488 25.6915
34.6357 25.424
34.8227 25.0144
35.0098 24.903
35.1969 24.5251
35.3842 24.3662
35.5716 24.1828
35.759 23.7745
35.9468 23.4684
36.1345 23.2925
36.3222 23.092
36.5101 22.7122
36.6981 22.4084
36.8861 22.1734
37.0743 21.772
37.2626 21.609
37.451 21.3133
37.6395 21.2098
37.8281 20.7464
38.0168 20.5034
38.2056 20.2606
38.3945 20.0639
38.5837 19.7199
38.7728 19.5166
38.9621 19.2624
39.1514 19.0162
39.3409 18.7529
39.5304 18.5034
39.7201 18.3065
39.9099 18.1328
40.0999 17.9082
40.2899 17.597
40.48 17.3653
40.6703 17.1601
40.8607 16.9609
41.0512 16.8144
41.242 16.5263
41.4327 16.2645
41.6236 16.0404
41.8146 15.8765
42.0057 15.7063
42.1969 15.4706
42.3882 15.3097
42.5797 15.0269
42.7713 14.8132
42.963 14.6657
43.1549 14.4502
43.3468 14.2714
43.5389 14.0226
43.7312 13.8365
43.9237 13.7086
44.1162 13.4734
44.3088 13.2513
44.5016 13.09
44.6945 12.8752
44.8875 12.7313
45.0806 12.53
45.2739 12.367
45.4673 12.2409
45.6609 12.0421
45.8546 11.8519
46.0484 11.6867
46.2424 11.5146
46.4365 11.3982
46.631 11.2266
46.8254 11.0045
47.0199 10.8595
47.2146 10.7413
47.4095 10.5445
47.6044 10.4071
47.7996 10.2234
47.9948 10.06
48.1902 9.91182
48.3858 9.79856
48.5815 9.63217
48.7774 9.50262
48.9734 9.40837
49.1696 9.23828
49.3661 9.13142
49.5626 8.94521
49.7592 8.80807
49.956 8.70165
50.153 8.53113
50.3501 8.41137
50.5474 8.30285
50.7448 8.16851
50.9424 8.00428
51.1402 7.9376
51.3381 7.77917
51.5362 7.66106
51.7344 7.58559
51.9328 7.38256
52.1316 7.26582
52.3304 7.17679
52.5293 7.03754
52.7284 6.93004
52.9276 6.79267
53.1271 6.7174
53.3267 6.5747
53.5265 6.44351
53.7264 6.33631
53.9266 6.28161
54.1269 6.13316
54.3274 5.99852
54.528 5.88624
54.7289 5.69502
54.9301 5.58857
55.1314 5.46673
55.3328 5.24578
55.5344 5.02645
55.7361 4.87492

File: Ni3Fe_FD0488.xy
TT I
1.27165 7.46357
1.45013 6.31231
1.62863 5.27275
1.80712 4.90487
1.98562 4.42879
2.16411 4.6227
2.34263 4.83834
2.52115 6.69743
2.69965 7.74409
2.87818 8.18315
3.05672 11.0175
3.23527 14.7515
3.4138 19.2106
3.59237 23.645
3.77094 26.6249
3.9495 30.2538
4.12809 34.9242
4.30669 150.544
4.4853 59.3465
4.6639 56.2785
4.84253 68.8149
5.02118 89.4788
5.19981 456.37
5.37848 207.635
5.55716 104.777
5.73586 94.6558
5.91455 98.0515
6.09328 4205.18
6.27201 84.5835
6.45075 68.6944
6.62952 63.5334
6.8083 59.163
6.98711 56.0587
7.16591 55.9918
7.34475 78.4403
7.5236 55.4208
7.70247 57.1121
7.88135 58.3545
8.06026 63.2558
8.23919 70.3433
8.41812 86.4179
8.59709 1217.22
8.77609 102.427
8.9551 91.3652
9.13412 83.4295
9.31318 84.3494
9.49226 86.0557
9.67134 97.0768
9.85047 102.071
10.0296 391.247
10.2088 458.25
10.388 107.005
10.5672 490.23
10.7465 88.4066
10.9257 79.0834
11.105 73.2097
11.2844 70.3994
11.4637 65.7317
11.6431 64.5218
11.8225 63.3807
12.002 64.9423
12.1814 154.295
12.3609 70.4204
12.5405 65.5354
12.72 69.9138
12.8996 72.1631
13.0792 81.0219
13.2589 248.085
13.4386 132.415
13.6183 250.725
13.7981 103.164
13.9779 76.8146
14.1577 73.2887
14.3376 71.9065
14.5175 69.968
14.6974 71.6888
14.8774 116.714
15.0574 157.053
15.2374 71.2112
15.4175 67.5117
15.5976 66.8432
15.7778 99.8644
15.958 158.282
16.1382 62.9774
16.3185 59.0664
16.4988 56.2376
16.6792 55.2488
16.8596 55.9506
17.04 56.846
17.2205 68.2194
17.401 72.7879
17.5815 60.0347
17.7622 62.1715
17.9428 76.1334
18.1237 136.119
18.3044 92.27
18.4852 80.4804
18.666 61.3788
18.8469 58.9269
19.0278 57.7745
19.2088 60.6783
19.3898 75.6472
19.5709 55.0548
19.752 54.2607
19.9332 57.5106
20.1144 70.0215
20.2957 63.9626
20.477 54.6202
20.6586 50.3459
20.84 49.7054
21.0215 49.429
21.203 51.5555
21.3846 49.8764
21.5662 49.6126
21.7479 53.8694
21.9297 64.826
22.1115 56.2981
22.2933 50.7646
22.4753 49.643
22.6572 49.7861
22.8393 52.7184
23.0214 57.9069
23.2037 49.6335
23.3859 50.7247
23.5682 56.8278
23.7505 49.4899
23.9329 45.9049
24.1154 44.7606
24.2979 44.0318
24.4805 43.6229
24.6631 43.4763
24.8458 42.8489
25.0286 43.6376
25.2114 45.4637
25.3943 45.0132
25.5773 41.4651
25.7605 41.0842
25.9436 41.5652
26.1268 42.2099
26.31 40.8017
26.4933 41.5292
26.6767 42.6684
26.8601 41.1932
27.0437 39.5252
27.2272 39.1961
27.4109 39.0357
27.5946 38.9092
27.7784 38.5466
27.9623 38.8871
28.1462 39.4342
28.3304 37.8423
28.5145 36.4807
28.6987 36.2173
28.8829 35.823
29.0673 35.2561
29.2517 34.8293
29.4361 34.6251
29.6207 33.7042
29.8053 33.3809
29.99 33.0805
30.1748 32.9881
30.3597 32.7534
30.5447 32.6407
30.7297 32.6355
30.915 32.0194
31.1002 31.6092
31.2855 31.409
31.4708 31.2419
31.6563 30.7723
31.8418 30.6419
32.0275 30.3203
32.2132 29.8684
32.399 29.3835
32.5848 28.9374
32.7708 28.5602
32.9569 28.3839
33.143 28.25
33.3293 27.8055
33.5158 27.4775
33.7022 26.993
33.8887 26.7466
34.0753 26.357
34.262 26.0141
34.4488 25.6718
34.6357 25.3181
34.8227 25.0331
35.0098 24.8508
35.1969 24.535
35.3842 24.3758
35.5716 24.1458
35.759 23.7388
35.9468 23.4632
36.1345 23.2858
36.3222 23.0328
36.5101 22.7873
36.6981 22.4613
36.8861 22.0969
37.0743 21.8419
37.2626 21.5954
37.451 21.3817
37.6395 21.1247
37.8281 20.8029
38.0168 20.5772
38.2056 20.2379
38.3945 20.0049
38.5837 19.7026
38.7728 19.5629
38.9621 19.2602
39.1514 18.9381
39.3409 18.7503
39.5304 18.5449
39.7201 18.3302
39.9099 18.1048
40.0999 17.8322
40.2899 17.6824
40.48 17.366
40.6703 17.1255
40.8607 16.982
41.0512 16.7469
41.242 16.4965
41.4327 16.2511
41.6236 16.0573
41.8146 15.8602
42.0057 15.6737
42.1969 15.4426
42.3882 15.2643
42.5797 15.0087
42.7713 14.8234
42.963 14.6114
43.1549 14.4331
43.3468 14.2319
43.5389 14.0363
43.7312 13.7971
43.9237 13.6456
44.1162 13.4178
44.3088 13.2335
44.5016 13.0777
44.6945 12.9179
44.8875 12.7426
45.0806 12.5616
45.2739 12.4022
45.4673 12.1995
45.6609 12.0227
45.8546 11.8565
46.0484 11.71
46.2424 11.5225
46.4365 11.3867
46.631 11.1581
46.8254 11.0055
47.0199 10.8661
47.2146 10.7185
47.4095 10.5576
47.6044 10.3983
47.7996 10.2133
47.9948 10.0633
48.1902 9.93907
48.3858 9.77225
48.5815 9.62715
48.7774 9.53617
48.9734 9.33815
49.1696 9.21491
49.3661 9.12427
49.5626 8.9188
49.7592 8.82489
49.956 8.69608
50.153 8.56648
50.3501 8.43925
50.5474 8.29888
50.7448 8.16553
50.9424 8.04764
51.1402 7.9427
51.3381 7.78983
51.5362 7.65656
51.7344 7.53731
51.9328 7.40626
52.1316 7.27659
52.3304 7.16929
52.5293 7.05399
52.7284 6.96605
52.9276 6.80133
53.1271 6.74059
53.3267 6.61747
53.5265 6.46398
53.7264 6.41125
53.9266 6.27881
54.1269 6.14136
54.3274 6.0129
54.528 5.91336
54.7289 5.72577
54.9301 5.56181
55.1314 5.44849
55.3328 5.22969
55.5344 5.02936
55.7361 4.86938

File: Ni3Fe_FD0489.xy
TT I
1.27165 7.40387
1.45013 5.2776
1.62863 4.80335
1.80712 5.1694
1.98562 4.06103
2.16411 4.43084
2.34263 5.75735
2.52115 6.5829
2.69965 7.68655
2.87818 9.10544
3.05672 11.2448
3.23527 15.0353
3.4138 19.1565
3.59237 24.3796
3.77094 26.0992
3.9495 30.5246
4.12809 34.8633
4.30669 158.271
4.4853 59.9662
4.6639 56.1614
4.84253 68.8949
5.02118 89.3862
5.19981 451.518
5.37848 205.253
5.55716 104.626
5.73586 94.535
5.91455 97.4958
6.09328 4212.38
6.27201 84.2728
6.45075 68.5773
6.62952 63.6014
6.8083 59.1911
6.98711 56.5432
7.16591 56.3064
7.34475 80.5035
7.5236 55.5353
7.70247 57.4225
7.88135 58.7624
8.06026 63.1924
8.23919 70.8765
8.41812 86.6714
8.59709 1222.12
8.77609 102.378
8.9551 91.5419
9.13412 83.5895
9.31318 84.2982
9.49226 85.831
9.67134 97.569
9.85047 101.844
10.0296 388.82
10.2088 453.438
10.388 107.596
10.5672 492.832
10.7465 88.1648
10.9257 79.526
11.105 72.7897
11.2844 70.7751
11.4637 65.7187
11.6431 64.4338
11.8225 63.4494
12.002 65.113
12.1814 154.917
12.3609 70.4058
12.5405 65.7796
12.72 70.0157
12.8996 72.16
13.0792 80.8584
13.2589 248.486
13.4386 131.638
13.6183 251.583
13.7981 103.235
13.9779 77.29
14.1577 73.3401
14.3376 72.0102
14.5175 70.3183
14.6974 71.6412
14.8774 116.62
15.0574 157.216
15.2374 71.6267
15.4175 67.6862
15.5976 66.9089
15.7778 99.6974
15.958 158.268
16.1382 63.1443
16.3185 59.205
16.4988 56.426
16.6792 55.4257
16.8596 56.0442
17.04 56.9364
17.2205 68.7205
17.401 72.8699
17.5815 60.295
17.7622 62.384
17.9428 76.3541
18.1237 136.118
18.3044 92.3643
18.4852 80.4175
18.666 61.3843
18.8469 58.913
19.0278 57.8128
19.2088 60.5977
19.3898 75.6268
19.5709 55.1711
19.752 54.2066
19.9332 57.4742
20.1144 70.0343
20.2957 64.1121
20.477 54.7271
20.6586 50.4624
20.84 49.6429
21.0215 49.4309
21.203 51.6199
21.3846 49.7978
21.5662 49.5002
21.7479 53.8812
21.9297 64.8658
22.1115 56.4547
22.2933 50.8372
22.4753 49.6094
22.6572 49.8829
22.8393 53.0811
23.0214 57.8582
23.2037 49.7458
23.3859 50.8646
23.5682 56.9014
23.7505 49.6735
23.9329 45.9906
24.1154 44.8195
24.2979 44.2685
24.4805 43.6079
24.6631 43.5052
24.8458 42.9203
25.0286 43.6076
25.2114 45.2888
25.3943 45.184
25.5773 41.5543
25.7605 41.0892
25.9436 41.6255
26.1268 42.1659
26.31 40.8717
26.4933 41.3671
26.6767 42.5852
26.8601 41.1783
27.0437 39.6491
27.2272 39.2287
27.4109 39.0113
27.5946 39.0064
27.7784 38.6137
27.9623 39.0121
28.1462 39.3545
28.3304 37.8551
28.5145 36.4978
28.6987 36.1987
28.8829 36.0284
29.0673 35.3082
29.2517 34.9098
29.4361 34.6508
29.6207 33.659
29.8053 33.5014
29.99 32.9851
30.1748 33.0253
30.3597 32.8913
30.5447 32.6647
30.7297 32.7083
30.915 32.1552
31.1002 31.652
31.2855 31.3741
31.4708 31.2438
31.6563 30.9206
31.8418 30.4955
32.0275 30.3391
32.2132 29.8901
32.399 29.3829
32.5848 28.9182
32.7708 28.5912
32.9569 28.4377
33.143 28.1806
33.3293 27.8646
33.5158 27.5036
33.7022 26.9951
33.8887 26.7369
34.0753 26.3606
34.262 26.1213
34.4488 25.7272
34.6357 25.4063
34.8227 25.0113
35.0098 24.8814
35.1969 24.5727
35.3842 24.3431
35.5716 24.1369
35.759 23.8501
35.9468 23.4536
36.1345 23.2988
36.3222 23.0161
36.5101 22.7525
36.6981 22.4815
36.8861 22.1621
37.0743 21.8607
37.2626 21.5986
37.451 21.3722
37.6395 21.1076
37.8281 20.8375
38.0168 20.5792
38.2056 20.2792
38.3945 19.9955
38.5837 19.7681
38.7728 19.4749
38.9621 19.2512
39.1514 19.0447
39.3409 18.7807
39.5304 18.5696
39.7201 18.3571
39.9099 18.1425
40.0999 17.8639
40.2899 17.6475
40.48 17.4065
40.6703 17.1722
40.8607 17.0202
41.0512 16.8143
41.242 16.479
41.4327 16.3151
41.6236 16.0405
41.8146 15.9164
42.0057 15.6784
42.1969 15.4619
42.3882 15.2844
42.5797 15.0869
42.7713 14.8754
42.963 14.6564
43.1549 14.4509
43.3468 14.2253
43.5389 14.0615
43.7312 13.8472
43.9237 13.664
44.1162 13.4763
44.3088 13.2796
44.5016 13.0706
44.6945 12.9283
44.8875 12.7585
45.0806 12.5454
45.2739 12.3672
45.4673 12.2719
45.6609 12.0339
45.8546 11.8589
46.0484 11.7085
46.2424 11.4775
46.4365 11.4094
46.631 11.2219
46.8254 11.0264
47.0199 10.8553
47.2146 10.7251
47.4095 10.5494
47.6044 10.3664
47.7996 10.2431
47.9948 10.1301
48.1902 9.91771
48.3858 9.79193
48.5815 9.69301
48.7774 9.52541
48.9734 9.36837
49.1696 9.22462
49.3661 9.06319
49.5626 8.93573
49.7592 8.83799
49.956 8.71265
50.153 8.56111
50.3501 8.41061
50.5474 8.31419
50.7448 8.17244
50.9424 8.04624
51.1402 7.94235
51.3381 7.76029
51.5362 7.61055
51.7344 7.53012
51.9328 7.42642
52.1316 7.26994
52.3304 7.15901
52.5293 7.03199
52.7284 6.93167
52.9276 6.81296
53.1271 6.70737
53.3267 6.58571
53.5265 6.49393
53.7264 6.39562
53.9266 6.30163
54.1269 6.13814
54.3274 6.02507
54.528 5.86394
54.7289 5.69865
54.9301 5.53156
55.1314 5.42073
55.3328 5.19913
55.5344 5.02458
55.7361 4.89066

File: Ni3Fe_FD0490.xy
TT I
1.27165 8.03795
1.45013 6.16586
1.62863 5.62992
1.80712 5.07715
1.98562 4.81494
2.16411 5.12801
2.34263 5.4831
2.52115 6.88713
2.69965 7.4779
2.87818 9.03053
3.05672 10.9611
3.23527 15.0683
3.4138 18.6861
3.59237 24.1694
3.77094 26.22
3.9495 30.1986
4.12809 34.6557
4.30669 163.582
4.4853 60.5484
4.6639 56.2175
4.84253 68.4334
5.02118 89.1368
5.19981 443.226
5.37848 206.313
5.55716 104.418
5.73586 94.203
5.91455 97.7525
6.09328 4199.04
6.27201 84.3347
6.45075 68.5609
6.62952 63.7182
6.8083 59.0664
6.98711 57.0965
7.16591 55.9002
7.34475 82.1392
7.5236 55.4199
7.70247 56.8534
7.88135 58.5845
8.06026 63.551
8.23919 70.6697
8.41812 86.494
8.59709 1213.22
8.77609 102.448
8.9551 91.2395
9.13412 83.2511
9.31318 83.9866
9.49226 85.7605
9.67134 97.7007
9.85047 101.903
10.0296 383.324
10.2088 460.247
10.388 106.589
10.5672 495.211
10.7465 88.0196
10.9257 79.2098
11.105 72.4638
11.2844 70.6347
11.4637 65.9898
11.6431 64.5215
11.8225 63.5394
12.002 64.7378
12.1814 154.78
12.3609 70.5084
12.5405 65.4737
12.72 69.6759
12.8996 72.0742
13.0792 80.7682
13.2589 246.373
13.4386 131.914
13.6183 251.379
13.7981 102.869
13.9779 77.14
14.1577 73.5043
14.3376 72.0734
14.5175 69.8033
14.6974 71.6127
14.8774 115.499
15.0574 156.761
15.2374 71.5248
15.4175 67.4602
15.5976 66.8116
15.7778 99.2394
15.958 158.456
16.1382 63.2174
16.3185 59.3751
16.4988 56.2661
16.6792 55.2977
16.8596 56.0362
17.04 56.8574
17.2205 68.3519
17.401 73.1689
17.5815 60.1548
17.7622 62.2862
17.9428 76.1719
18.1237 136.336
18.3044 92.1133
18.4852 80.4393
18.666 61.101
18.8469 58.8558
19.0278 57.7478
19.2088 60.7462
19.3898 75.8083
19.5709 55.052
19.752 54.1944
19.9332 57.4832
20.1144 69.8549
20.2957 64.1155
20.477 54.815
20.6586 50.3822
20.84 49.5157
21.0215 49.3355
21.203 51.5676
21.3846 49.8437
21.5662 49.6065
21.7479 53.9058
21.9297 64.8774
22.1115 56.5038
22.2933 50.7916
22.4753 49.662
22.6572 49.8461
22.8393 52.8976
23.0214 57.8981
23.2037 49.5291
23.3859 50.6616
23.5682 56.9151
23.7505 49.4226
23.9329 45.9277
24.1154 44.7312
24.2979 43.9987
24.4805 43.5541
24.6631 43.4723
24.8458 42.878
25.0286 43.5353
25.2114 45.4502
25.3943 45.162
25.5773 41.6754
25.7605 41.1092
25.9436 41.3841
26.1268 42.1229
26.31 40.8412
26.4933 41.4664
26.6767 42.6331
26.8601 41.0063
27.0437 39.4981
27.2272 39.1197
27.4109 39.0612
27.5946 39.0797
27.7784 38.5386
27.9623 39.0337
28.1462 39.4951
28.3304 37.8558
28.5145 36.4377
28.6987 36.1592
28.8829 35.8272
29.0673 35.2141
29.2517 34.9814
29.4361 34.6059
29.6207 33.6612
29.8053 33.415
29.99 33.0988
30.1748 32.9553
30.3597 32.716
30.5447 32.7231
30.7297 32.7618
30.915 32.0459
31.1002 31.6526
31.2855 31.4124
31.4708 31.3391
31.6563 30.8825
31.8418 30.5445
32.0275 30.3492
32.2132 29.8816
32.399 29.4045
32.5848 28.9949
32.7708 28.5991
32.9569 28.5077
33.143 28.2629
33.3293 27.7966
33.5158 27.4935
33.7022 27.0183
33.8887 26.6655
34.0753 26.352
34.262 26.0538
34.4488 25.7342
34.6357 25.2603
34.8227 25.0626
35.0098 24.8257
35.1969 24.5338
35.3842 24.3526
35.5716 24.1359
35.759 23.8003
35.9468 23.4723
36.1345 23.2346
36.3222 23.0141
36.5101 22.7156
36.6981 22.4612
36.8861 22.1185
37.0743 21.7859
37.2626 21.5526
37.451 21.2314
37.6395 21.1078
37.8281 20.7698
38.0168 20.5044
38.2056 20.1858
38.3945 19.9399
38.5837 19.7201
38.7728 19.4928
38.9621 19.2443
39.1514 18.942
39.3409 18.7424
39.5304 18.5157
39.7201 18.3763
39.9099 18.1514
40.0999 17.8945
40.2899 17.642
40.48 17.3592
40.6703 17.1893
40.8607 17.0295
41.0512 16.8069
41.242 16.4898
41.4327 16.3229
41.6236 16.1052
41.8146 15.8494
42.0057 15.6175
42.1969 15.4377
42.3882 15.25
42.5797 15.0744
42.7713 14.8419
42.963 14.6637
43.1549 14.4027
43.3468 14.1682
43.5389 14.0274
43.7312 13.841
43.9237 13.627
44.1162 13.4263
44.3088 13.2494
44.5016 13.0683
44.6945 12.9162
44.8875 12.7784
45.0806 12.4875
45.2739 12.3866
45.4673 12.2239
45.6609 12.0496
45.8546 11.8621
46.0484 11.7009
46.2424 11.5417
46.4365 11.3772
46.631 11.2267
46.8254 11.0188
47.0199 10.8958
47.2146 10.7229
47.4095 10.5295
47.6044 10.377
47.7996 10.2479
47.9948 10.0799
48.1902 9.92064
48.3858 9.79414
48.5815 9.6582
48.7774 9.57192
48.9734 9.3986
49.1696 9.19388
49.3661 9.09969
49.5626 8.93474
49.7592 8.80664
49.956 8.70445
50.153 8.54336
50.3501 8.42329
50.5474 8.30411
50.7448 8.18452
50.9424 8.07616
51.1402 7.9275
51.3381 7.78201
51.5362 7.65816
51.7344 7.53875
51.9328 7.45395
52.1316 7.26752
52.3304 7.16321
52.5293 7.02969
52.7284 6.92037
52.9276 6.83482
53.1271 6.72184
53.3267 6.54298
53.5265 6.42571
53.7264 6.38037
53.9266 6.27452
54.1269 6.11823
54.3274 6.03279
54.528 5.90365
54.7289 5.73873
54.9301 5.58513
55.1314 5.43588
55.3328 5.21567
55.5344 5.06501
55.7361 4.94095