Folder: NiFe_MOF_catalyst_paper/XRD (part 29)

File: Ni3Fe_FD0147.xy
TT I
1.27165 8.5321
1.45013 6.67447
1.62863 5.91852
1.80712 5.76487
1.98562 4.868
2.16411 4.66009
2.34263 4.15974
2.52115 4.45855
2.69965 5.37482
2.87818 8.03939
3.05672 11.2835
3.23527 15.0908
3.4138 18.7174
3.59237 21.7035
3.77094 24.6522
3.9495 28.438
4.12809 32.2293
4.30669 37.5404
4.4853 44.8971
4.6639 53.4923
4.84253 65.9428
5.02118 90.2953
5.19981 549.968
5.37848 457.188
5.55716 107.355
5.73586 95.0038
5.91455 104.636
6.09328 2684.14
6.27201 89.2506
6.45075 66.4358
6.62952 59.32
6.8083 55.7388
6.98711 53.1515
7.16591 52.1901
7.34475 51.7724
7.5236 55.8694
7.70247 53.7323
7.88135 55.9543
8.06026 60.1601
8.23919 67.81
8.41812 83.5501
8.59709 881.042
8.77609 116.077
8.9551 85.1249
9.13412 81.1902
9.31318 86.6789
9.49226 83.1751
9.67134 88.0625
9.85047 98.2007
10.0296 545.08
10.2088 1002.63
10.388 104.041
10.5672 326.626
10.7465 90.5292
10.9257 75.5204
11.105 70.1365
11.2844 65.792
11.4637 63.128
11.6431 61.753
11.8225 61.011
12.002 65.3226
12.1814 116.802
12.3609 75.0876
12.5405 63.0404
12.72 64.8665
12.8996 69.229
13.0792 78.772
13.2589 203.057
13.4386 213.387
13.6183 190.816
13.7981 155.057
13.9779 75.5173
14.1577 73.8696
14.3376 68.791
14.5175 68.1243
14.6974 69.5829
14.8774 120.736
15.0574 204.949
15.2374 68.8603
15.4175 65.8489
15.5976 65.09
15.7778 107.202
15.958 184.072
16.1382 61.6222
16.3185 57.0784
16.4988 54.7806
16.6792 53.7652
16.8596 54.0231
17.04 55.138
17.2205 64.8313
17.401 80.8222
17.5815 58.8016
17.7622 61.1306
17.9428 83.3731
18.1237 113.825
18.3044 88.0503
18.4852 95.7718
18.666 60.7937
18.8469 58.1899
19.0278 56.5316
19.2088 61.5425
19.3898 68.6202
19.5709 56.3727
19.752 53.1466
19.9332 58.0594
20.1144 66.6277
20.2957 60.7507
20.477 59.1303
20.6586 49.738
20.84 49.0567
21.0215 48.8352
21.203 49.5316
21.3846 50.371
21.5662 48.7769
21.7479 54.0288
21.9297 61.7603
22.1115 56.2903
22.2933 52.5213
22.4753 48.6143
22.6572 48.7716
22.8393 51.8167
23.0214 56.8485
23.2037 49.6988
23.3859 51.5636
23.5682 53.4746
23.7505 53.3497
23.9329 45.486
24.1154 44.2537
24.2979 43.4475
24.4805 42.9035
24.6631 43.0386
24.8458 42.4947
25.0286 42.8416
25.2114 44.4318
25.3943 44.664
25.5773 41.7549
25.7605 40.5128
25.9436 41.0306
26.1268 41.4961
26.31 40.849
26.4933 40.9214
26.6767 41.9796
26.8601 41.1925
27.0437 39.4079
27.2272 38.7951
27.4109 38.6141
27.5946 38.6888
27.7784 38.4475
27.9623 38.4288
28.1462 39.2825
28.3304 37.9285
28.5145 36.2468
28.6987 35.9103
28.8829 35.3547
29.0673 35.1325
29.2517 34.4355
29.4361 34.1787
29.6207 33.4606
29.8053 32.9936
29.99 32.6825
30.1748 32.4392
30.3597 32.505
30.5447 32.3182
30.7297 32.1904
30.915 32.0733
31.1002 31.3985
31.2855 31.1004
31.4708 30.8729
31.6563 30.775
31.8418 30.2661
32.0275 30.0651
32.2132 29.6058
32.399 29.0977
32.5848 28.6297
32.7708 28.2601
32.9569 28.1639
33.143 27.9953
33.3293 27.5456
33.5158 27.3695
33.7022 26.7803
33.8887 26.4513
34.0753 26.1979
34.262 25.7487
34.4488 25.4799
34.6357 25.0996
34.8227 24.7829
35.0098 24.5755
35.1969 24.3382
35.3842 24.0727
35.5716 23.9935
35.759 23.6432
35.9468 23.229
36.1345 23.0366
36.3222 22.7607
36.5101 22.5561
36.6981 22.255
36.8861 21.9539
37.0743 21.6347
37.2626 21.3855
37.451 21.1805
37.6395 20.9342
37.8281 20.6128
38.0168 20.309
38.2056 20.073
38.3945 19.7871
38.5837 19.5398
38.7728 19.2866
38.9621 19.0217
39.1514 18.8246
39.3409 18.5317
39.5304 18.3726
39.7201 18.1269
39.9099 17.9607
40.0999 17.6692
40.2899 17.4154
40.48 17.2365
40.6703 17.0263
40.8607 16.8376
41.0512 16.5771
41.242 16.3272
41.4327 16.1381
41.6236 15.8578
41.8146 15.6995
42.0057 15.4829
42.1969 15.2856
42.3882 15.0986
42.5797 14.9054
42.7713 14.7039
42.963 14.4765
43.1549 14.3022
43.3468 14.1144
43.5389 13.8969
43.7312 13.6991
43.9237 13.5266
44.1162 13.3048
44.3088 13.1772
44.5016 12.9496
44.6945 12.7706
44.8875 12.5932
45.0806 12.3706
45.2739 12.246
45.4673 12.0565
45.6609 11.919
45.8546 11.7418
46.0484 11.5809
46.2424 11.417
46.4365 11.2749
46.631 11.0475
46.8254 10.9003
47.0199 10.7292
47.2146 10.6092
47.4095 10.4356
47.6044 10.298
47.7996 10.1137
47.9948 9.97218
48.1902 9.87199
48.3858 9.68113
48.5815 9.56874
48.7774 9.44483
48.9734 9.27906
49.1696 9.12314
49.3661 9.02006
49.5626 8.86376
49.7592 8.7331
49.956 8.60803
50.153 8.47369
50.3501 8.36641
50.5474 8.24026
50.7448 8.11976
50.9424 7.92901
51.1402 7.86368
51.3381 7.73084
51.5362 7.55118
51.7344 7.45792
51.9328 7.38993
52.1316 7.20474
52.3304 7.09983
52.5293 6.96955
52.7284 6.90553
52.9276 6.74518
53.1271 6.65084
53.3267 6.54506
53.5265 6.39868
53.7264 6.31659
53.9266 6.20366
54.1269 6.10587
54.3274 5.93082
54.528 5.7904
54.7289 5.56837
54.9301 5.42378
55.1314 5.3448
55.3328 5.0716
55.5344 4.89092
55.7361 4.77981

File: Ni3Fe_FD0148.xy
TT I
1.27165 7.36749
1.45013 6.49995
1.62863 5.35121
1.80712 5.81437
1.98562 5.78735
2.16411 5.02121
2.34263 4.13981
2.52115 4.08348
2.69965 5.86179
2.87818 7.57487
3.05672 11.1987
3.23527 14.819
3.4138 18.9114
3.59237 21.4597
3.77094 24.9692
3.9495 28.7607
4.12809 32.9695
4.30669 38.0438
4.4853 44.5833
4.6639 53.4621
4.84253 66.3433
5.02118 90.5151
5.19981 555.297
5.37848 452.471
5.55716 107.864
5.73586 95.4817
5.91455 105.074
6.09328 2698.29
6.27201 89.4239
6.45075 66.2625
6.62952 59.6692
6.8083 55.2677
6.98711 53.7152
7.16591 52.1641
7.34475 52.1249
7.5236 56.0751
7.70247 53.7409
7.88135 56.08
8.06026 60.3958
8.23919 67.5652
8.41812 83.3399
8.59709 882.48
8.77609 116.192
8.9551 85.3799
9.13412 81.2851
9.31318 86.5195
9.49226 83.2463
9.67134 88.6286
9.85047 98.6987
10.0296 546.86
10.2088 986.13
10.388 104.267
10.5672 327.789
10.7465 90.8255
10.9257 75.5748
11.105 69.9492
11.2844 65.8411
11.4637 63.2878
11.6431 61.9667
11.8225 60.6491
12.002 65.2155
12.1814 117.165
12.3609 74.6308
12.5405 63.0207
12.72 64.9326
12.8996 69.4785
13.0792 79.0175
13.2589 203.208
13.4386 210.504
13.6183 191.15
13.7981 153.362
13.9779 75.7589
14.1577 74.1031
14.3376 68.7048
14.5175 67.9884
14.6974 69.397
14.8774 120.909
15.0574 203.893
15.2374 68.9981
15.4175 66.2065
15.5976 65.4837
15.7778 107.089
15.958 183.483
16.1382 61.4509
16.3185 57.067
16.4988 55.0336
16.6792 53.8644
16.8596 54.0942
17.04 55.4267
17.2205 64.9104
17.401 80.5736
17.5815 58.9261
17.7622 61.3045
17.9428 83.5408
18.1237 114.046
18.3044 87.8678
18.4852 94.9062
18.666 60.6463
18.8469 58.0566
19.0278 56.6966
19.2088 61.6619
19.3898 68.6737
19.5709 56.4099
19.752 53.2813
19.9332 57.9678
20.1144 66.7535
20.2957 60.8427
20.477 58.8025
20.6586 49.6806
20.84 48.989
21.0215 48.7704
21.203 49.5649
21.3846 50.4668
21.5662 48.9436
21.7479 53.9999
21.9297 61.8952
22.1115 56.1394
22.2933 52.3534
22.4753 48.7564
22.6572 48.9713
22.8393 51.9945
23.0214 56.9898
23.2037 49.8108
23.3859 51.6638
23.5682 53.3602
23.7505 53.3468
23.9329 45.5483
24.1154 44.2733
24.2979 43.6015
24.4805 42.7344
24.6631 42.9455
24.8458 42.3846
25.0286 43.0351
25.2114 44.5772
25.3943 44.6751
25.5773 41.7164
25.7605 40.6081
25.9436 40.9806
26.1268 41.5609
26.31 40.7258
26.4933 40.8702
26.6767 41.9257
26.8601 41.164
27.0437 39.4627
27.2272 38.9218
27.4109 38.4751
27.5946 38.6129
27.7784 38.3892
27.9623 38.5162
28.1462 39.3247
28.3304 37.8755
28.5145 36.2053
28.6987 35.885
28.8829 35.426
29.0673 35.1672
29.2517 34.4408
29.4361 34.2182
29.6207 33.5354
29.8053 32.9727
29.99 32.7924
30.1748 32.533
30.3597 32.5663
30.5447 32.2595
30.7297 32.3328
30.915 32.0139
31.1002 31.4278
31.2855 31.0574
31.4708 30.922
31.6563 30.7979
31.8418 30.2614
32.0275 30.0753
32.2132 29.6389
32.399 29.1047
32.5848 28.7109
32.7708 28.2886
32.9569 28.0863
33.143 27.9041
33.3293 27.5843
33.5158 27.3012
33.7022 26.7188
33.8887 26.4201
34.0753 26.1656
34.262 25.7861
34.4488 25.4651
34.6357 25.1077
34.8227 24.8645
35.0098 24.5665
35.1969 24.2709
35.3842 24.03
35.5716 23.8658
35.759 23.5947
35.9468 23.2148
36.1345 23.04
36.3222 22.8069
36.5101 22.5192
36.6981 22.3054
36.8861 21.964
37.0743 21.6229
37.2626 21.3837
37.451 21.1139
37.6395 20.9449
37.8281 20.6329
38.0168 20.287
38.2056 20.0674
38.3945 19.8678
38.5837 19.5347
38.7728 19.2912
38.9621 19.0986
39.1514 18.7147
39.3409 18.5291
39.5304 18.3679
39.7201 18.1464
39.9099 17.985
40.0999 17.6939
40.2899 17.4911
40.48 17.26
40.6703 16.9697
40.8607 16.8377
41.0512 16.6217
41.242 16.3561
41.4327 16.1329
41.6236 15.9707
41.8146 15.7678
42.0057 15.4716
42.1969 15.3077
42.3882 15.1053
42.5797 14.9344
42.7713 14.6845
42.963 14.4407
43.1549 14.3035
43.3468 14.0943
43.5389 13.9119
43.7312 13.6919
43.9237 13.4968
44.1162 13.3294
44.3088 13.1687
44.5016 12.9626
44.6945 12.7689
44.8875 12.6286
45.0806 12.43
45.2739 12.2862
45.4673 12.0363
45.6609 11.9459
45.8546 11.7976
46.0484 11.5849
46.2424 11.4057
46.4365 11.2757
46.631 11.0744
46.8254 10.9118
47.0199 10.7575
47.2146 10.6152
47.4095 10.409
47.6044 10.2539
47.7996 10.1162
47.9948 9.98876
48.1902 9.86362
48.3858 9.68648
48.5815 9.58334
48.7774 9.41023
48.9734 9.34195
49.1696 9.13603
49.3661 8.99256
49.5626 8.85631
49.7592 8.7601
49.956 8.61376
50.153 8.50912
50.3501 8.34419
50.5474 8.24955
50.7448 8.08671
50.9424 7.97448
51.1402 7.8518
51.3381 7.70914
51.5362 7.60243
51.7344 7.46263
51.9328 7.34723
52.1316 7.23364
52.3304 7.11607
52.5293 7.00021
52.7284 6.87678
52.9276 6.76176
53.1271 6.70168
53.3267 6.5317
53.5265 6.38902
53.7264 6.35851
53.9266 6.17736
54.1269 6.08571
54.3274 5.93901
54.528 5.79052
54.7289 5.63309
54.9301 5.43588
55.1314 5.29311
55.3328 5.07923
55.5344 4.87916
55.7361 4.75377

File: Ni3Fe_FD0149.xy
TT I
1.27165 7.62692
1.45013 6.16202
1.62863 5.79323
1.80712 5.42776
1.98562 4.34143
2.16411 4.403
2.34263 4.14605
2.52115 4.87816
2.69965 5.93267
2.87818 8.31796
3.05672 11.1681
3.23527 14.7255
3.4138 18.6911
3.59237 21.593
3.77094 25.1893
3.9495 28.5535
4.12809 32.1084
4.30669 37.7569
4.4853 44.8748
4.6639 53.7807
4.84253 66.1257
5.02118 90.06
5.19981 550.587
5.37848 452.201
5.55716 107.169
5.73586 95.1916
5.91455 105.196
6.09328 2697.94
6.27201 88.7713
6.45075 66.2442
6.62952 59.5629
6.8083 55.3306
6.98711 53.2389
7.16591 52.3928
7.34475 52.0067
7.5236 56.0321
7.70247 53.733
7.88135 55.7662
8.06026 60.8325
8.23919 67.8137
8.41812 83.5201
8.59709 882.268
8.77609 116.265
8.9551 84.6983
9.13412 81.2775
9.31318 86.2149
9.49226 83.2823
9.67134 88.37
9.85047 98.6186
10.0296 544.228
10.2088 991.513
10.388 104.109
10.5672 328.632
10.7465 90.2033
10.9257 75.6131
11.105 69.7435
11.2844 65.944
11.4637 63.3296
11.6431 61.8042
11.8225 60.9245
12.002 65.2027
12.1814 117.496
12.3609 75.2571
12.5405 62.9831
12.72 64.9846
12.8996 69.5476
13.0792 78.9414
13.2589 203.391
13.4386 210.559
13.6183 191.532
13.7981 153.759
13.9779 75.6795
14.1577 74.2405
14.3376 69.106
14.5175 68.0541
14.6974 69.4421
14.8774 120.615
15.0574 204.276
15.2374 68.7726
15.4175 65.9937
15.5976 65.4892
15.7778 107.023
15.958 183.289
16.1382 61.5922
16.3185 57.1895
16.4988 54.806
16.6792 53.9212
16.8596 54.0826
17.04 55.15
17.2205 64.7511
17.401 81.2321
17.5815 58.8603
17.7622 61.0701
17.9428 83.45
18.1237 114.128
18.3044 88.2709
18.4852 95.0043
18.666 60.6925
18.8469 58.0541
19.0278 56.6312
19.2088 61.6312
19.3898 68.8964
19.5709 56.3363
19.752 52.9618
19.9332 57.8633
20.1144 66.6451
20.2957 60.9703
20.477 58.7443
20.6586 49.5654
20.84 48.8421
21.0215 48.9124
21.203 49.5273
21.3846 50.367
21.5662 48.785
21.7479 53.8276
21.9297 61.8812
22.1115 56.1285
22.2933 52.4655
22.4753 48.6583
22.6572 48.9125
22.8393 52.0941
23.0214 57.0035
23.2037 49.7721
23.3859 51.613
23.5682 53.44
23.7505 53.0385
23.9329 45.4771
24.1154 44.2473
24.2979 43.656
24.4805 42.8715
24.6631 42.9277
24.8458 42.4509
25.0286 42.8874
25.2114 44.3872
25.3943 44.6899
25.5773 41.6594
25.7605 40.5622
25.9436 41.0067
26.1268 41.5956
26.31 40.8507
26.4933 40.8616
26.6767 42.0251
26.8601 41.2341
27.0437 39.4198
27.2272 38.846
27.4109 38.4599
27.5946 38.6451
27.7784 38.4916
27.9623 38.4945
28.1462 39.2904
28.3304 37.928
28.5145 36.3168
28.6987 35.8533
28.8829 35.3304
29.0673 35.0928
29.2517 34.4208
29.4361 34.1408
29.6207 33.5831
29.8053 33.0984
29.99 32.7424
30.1748 32.4691
30.3597 32.5516
30.5447 32.2001
30.7297 32.2187
30.915 32.034
31.1002 31.3786
31.2855 31.0316
31.4708 30.9042
31.6563 30.8106
31.8418 30.2538
32.0275 30.0732
32.2132 29.6338
32.399 29.1826
32.5848 28.7012
32.7708 28.4033
32.9569 28.0949
33.143 27.8762
33.3293 27.6256
33.5158 27.2614
33.7022 26.7842
33.8887 26.4569
34.0753 26.156
34.262 25.7509
34.4488 25.3884
34.6357 25.1066
34.8227 24.797
35.0098 24.6796
35.1969 24.3256
35.3842 24.1151
35.5716 23.9366
35.759 23.6445
35.9468 23.1998
36.1345 22.992
36.3222 22.7986
36.5101 22.5163
36.6981 22.2528
36.8861 22.0026
37.0743 21.5982
37.2626 21.4071
37.451 21.0955
37.6395 20.9115
37.8281 20.6395
38.0168 20.3835
38.2056 20.1073
38.3945 19.7499
38.5837 19.5857
38.7728 19.3285
38.9621 19.0189
39.1514 18.8498
39.3409 18.6449
39.5304 18.3669
39.7201 18.1434
39.9099 17.9462
40.0999 17.6121
40.2899 17.4559
40.48 17.1963
40.6703 17.0158
40.8607 16.7965
41.0512 16.5733
41.242 16.3398
41.4327 16.1463
41.6236 15.9148
41.8146 15.7463
42.0057 15.5785
42.1969 15.2743
42.3882 15.1229
42.5797 14.8585
42.7713 14.7503
42.963 14.487
43.1549 14.3501
43.3468 14.098
43.5389 13.9016
43.7312 13.7134
43.9237 13.5171
44.1162 13.3356
44.3088 13.1314
44.5016 12.9584
44.6945 12.807
44.8875 12.5782
45.0806 12.4306
45.2739 12.2269
45.4673 12.1214
45.6609 11.9482
45.8546 11.7447
46.0484 11.5841
46.2424 11.4508
46.4365 11.2216
46.631 11.0654
46.8254 10.9039
47.0199 10.7361
47.2146 10.6084
47.4095 10.4359
47.6044 10.285
47.7996 10.1207
47.9948 9.99362
48.1902 9.8964
48.3858 9.72092
48.5815 9.57847
48.7774 9.42071
48.9734 9.27831
49.1696 9.1596
49.3661 9.05039
49.5626 8.84785
49.7592 8.77537
49.956 8.60314
50.153 8.48703
50.3501 8.35962
50.5474 8.21867
50.7448 8.09805
50.9424 7.97319
51.1402 7.85173
51.3381 7.66033
51.5362 7.62664
51.7344 7.47088
51.9328 7.32294
52.1316 7.20262
52.3304 7.11737
52.5293 7.00668
52.7284 6.86443
52.9276 6.75407
53.1271 6.65847
53.3267 6.52303
53.5265 6.44704
53.7264 6.29125
53.9266 6.13769
54.1269 6.08103
54.3274 5.96084
54.528 5.8171
54.7289 5.61582
54.9301 5.44615
55.1314 5.26343
55.3328 5.06677
55.5344 4.87939
55.7361 4.84299

File: Ni3Fe_FD0150.xy
TT I
1.27165 7.84228
1.45013 6.84
1.62863 5.40422
1.80712 5.11249
1.98562 5.12607
2.16411 4.4571
2.34263 4.78221
2.52115 4.25518
2.69965 5.65674
2.87818 7.81608
3.05672 10.9669
3.23527 14.7288
3.4138 18.664
3.59237 21.824
3.77094 25.129
3.9495 28.3401
4.12809 32.7759
4.30669 37.5175
4.4853 44.5735
4.6639 53.2927
4.84253 66.6018
5.02118 90.4834
5.19981 550.508
5.37848 451.289
5.55716 107.501
5.73586 95.4823
5.91455 104.933
6.09328 2699.15
6.27201 89.1943
6.45075 66.0296
6.62952 59.6112
6.8083 55.2244
6.98711 53.001
7.16591 52.0321
7.34475 52.0495
7.5236 55.823
7.70247 53.88
7.88135 55.9353
8.06026 60.3506
8.23919 67.7126
8.41812 83.2636
8.59709 884.28
8.77609 116.015
8.9551 84.8722
9.13412 81.2297
9.31318 86.2919
9.49226 83.069
9.67134 88.2588
9.85047 98.3898
10.0296 545.567
10.2088 984.457
10.388 103.914
10.5672 329.342
10.7465 90.2762
10.9257 75.3523
11.105 70.1283
11.2844 66.1363
11.4637 63.3918
11.6431 61.5237
11.8225 60.9775
12.002 65.1525
12.1814 117.679
12.3609 75.0978
12.5405 62.7264
12.72 64.9685
12.8996 69.4594
13.0792 78.8276
13.2589 203.269
13.4386 210.357
13.6183 191.504
13.7981 153.088
13.9779 75.8577
14.1577 74.1049
14.3376 68.7731
14.5175 68.0157
14.6974 69.5844
14.8774 120.609
15.0574 203.21
15.2374 68.8145
15.4175 65.7041
15.5976 65.5467
15.7778 107.105
15.958 183.662
16.1382 61.6646
16.3185 57.106
16.4988 54.7798
16.6792 53.8135
16.8596 54.1751
17.04 55.0804
17.2205 65.1129
17.401 81.2194
17.5815 58.7293
17.7622 61.236
17.9428 83.313
18.1237 114.071
18.3044 88.2232
18.4852 94.6139
18.666 60.6911
18.8469 58.1191
19.0278 56.5194
19.2088 61.5698
19.3898 68.9493
19.5709 56.308
19.752 53.1119
19.9332 57.806
20.1144 66.6632
20.2957 60.8833
20.477 58.7947
20.6586 49.521
20.84 48.9127
21.0215 48.9119
21.203 49.6232
21.3846 50.3197
21.5662 48.7176
21.7479 53.9018
21.9297 61.8838
22.1115 56.0522
22.2933 52.4402
22.4753 48.7041
22.6572 49.0772
22.8393 51.9373
23.0214 57.0926
23.2037 49.5738
23.3859 51.7319
23.5682 53.5147
23.7505 53.1998
23.9329 45.6146
24.1154 44.3275
24.2979 43.5994
24.4805 42.8631
24.6631 42.8723
24.8458 42.5208
25.0286 42.9546
25.2114 44.4761
25.3943 44.7091
25.5773 41.78
25.7605 40.5687
25.9436 41.0745
26.1268 41.4879
26.31 40.798
26.4933 40.8136
26.6767 41.8705
26.8601 41.1415
27.0437 39.6238
27.2272 38.8088
27.4109 38.5613
27.5946 38.6829
27.7784 38.4444
27.9623 38.4207
28.1462 39.2792
28.3304 38.0096
28.5145 36.2925
28.6987 35.968
28.8829 35.4893
29.0673 35.0927
29.2517 34.4335
29.4361 34.2427
29.6207 33.4286
29.8053 33.0436
29.99 32.7687
30.1748 32.5393
30.3597 32.605
30.5447 32.354
30.7297 32.2646
30.915 32.2008
31.1002 31.3568
31.2855 31.202
31.4708 30.9766
31.6563 30.8445
31.8418 30.2864
32.0275 30.2173
32.2132 29.7398
32.399 29.2413
32.5848 28.6667
32.7708 28.3244
32.9569 28.1833
33.143 27.9682
33.3293 27.5742
33.5158 27.306
33.7022 26.7043
33.8887 26.4746
34.0753 26.1316
34.262 25.8349
34.4488 25.4608
34.6357 25.1776
34.8227 24.8052
35.0098 24.6111
35.1969 24.4154
35.3842 24.0603
35.5716 23.9068
35.759 23.6499
35.9468 23.2856
36.1345 23.1015
36.3222 22.8875
36.5101 22.6317
36.6981 22.312
36.8861 21.9694
37.0743 21.6584
37.2626 21.3459
37.451 21.0957
37.6395 20.9173
37.8281 20.5822
38.0168 20.2714
38.2056 20.0926
38.3945 19.7804
38.5837 19.6008
38.7728 19.3364
38.9621 19.0459
39.1514 18.791
39.3409 18.5226
39.5304 18.348
39.7201 18.1669
39.9099 17.9411
40.0999 17.6898
40.2899 17.5012
40.48 17.2162
40.6703 17.0287
40.8607 16.9311
41.0512 16.6113
41.242 16.3376
41.4327 16.1443
41.6236 15.9106
41.8146 15.7727
42.0057 15.5623
42.1969 15.3453
42.3882 15.1288
42.5797 14.9377
42.7713 14.6827
42.963 14.5201
43.1549 14.3226
43.3468 14.1225
43.5389 13.9536
43.7312 13.7328
43.9237 13.5386
44.1162 13.3821
44.3088 13.1773
44.5016 12.9322
44.6945 12.799
44.8875 12.6247
45.0806 12.4468
45.2739 12.241
45.4673 12.1043
45.6609 11.8998
45.8546 11.7686
46.0484 11.6314
46.2424 11.4193
46.4365 11.2678
46.631 11.0727
46.8254 10.9492
47.0199 10.7825
47.2146 10.6003
47.4095 10.4835
47.6044 10.2757
47.7996 10.1277
47.9948 9.98264
48.1902 9.84664
48.3858 9.69212
48.5815 9.53933
48.7774 9.41829
48.9734 9.29898
49.1696 9.16771
49.3661 8.99357
49.5626 8.8805
49.7592 8.76447
49.956 8.60381
50.153 8.48701
50.3501 8.34043
50.5474 8.22606
50.7448 8.11535
50.9424 7.97953
51.1402 7.86766
51.3381 7.72453
51.5362 7.60526
51.7344 7.47039
51.9328 7.36103
52.1316 7.16088
52.3304 7.11341
52.5293 7.01239
52.7284 6.89835
52.9276 6.7984
53.1271 6.65558
53.3267 6.52232
53.5265 6.43126
53.7264 6.2882
53.9266 6.22101
54.1269 6.08702
54.3274 5.9202
54.528 5.81789
54.7289 5.62203
54.9301 5.43537
55.1314 5.30818
55.3328 5.07206
55.5344 4.89616
55.7361 4.77176

File: Ni3Fe_FD0151.xy
TT I
1.27165 7.98173
1.45013 6.57482
1.62863 5.41146
1.80712 5.4428
1.98562 5.19876
2.16411 4.80414
2.34263 4.56202
2.52115 4.17708
2.69965 5.87863
2.87818 7.70876
3.05672 11.4142
3.23527 14.9677
3.4138 18.7852
3.59237 21.909
3.77094 25.0366
3.9495 28.6254
4.12809 32.7085
4.30669 37.582
4.4853 45.0511
4.6639 53.7545
4.84253 66.0095
5.02118 90.1738
5.19981 546.066
5.37848 454.049
5.55716 107.361
5.73586 95.2376
5.91455 105.039
6.09328 2706.73
6.27201 89.4626
6.45075 66.1576
6.62952 59.6722
6.8083 55.7284
6.98711 53.2529
7.16591 52.0657
7.34475 51.7543
7.5236 55.7185
7.70247 53.9978
7.88135 55.9832
8.06026 60.5175
8.23919 67.7755
8.41812 83.4515
8.59709 885.165
8.77609 116.355
8.9551 85.0004
9.13412 80.9224
9.31318 86.5093
9.49226 83.3275
9.67134 88.1726
9.85047 98.2333
10.0296 544.141
10.2088 989.986
10.388 104.578
10.5672 330.234
10.7465 90.0502
10.9257 75.5781
11.105 70.2339
11.2844 65.94
11.4637 63.1485
11.6431 61.9355
11.8225 60.8935
12.002 65.1324
12.1814 117.346
12.3609 74.6782
12.5405 62.8087
12.72 64.8679
12.8996 69.264
13.0792 79.083
13.2589 204.324
13.4386 211.009
13.6183 192.069
13.7981 154.317
13.9779 75.7063
14.1577 74.176
14.3376 68.8257
14.5175 68.2003
14.6974 69.2867
14.8774 121.156
15.0574 204.176
15.2374 68.9594
15.4175 66.0387
15.5976 65.4807
15.7778 107.781
15.958 184.373
16.1382 61.5498
16.3185 57.0661
16.4988 54.9262
16.6792 53.8335
16.8596 54.3134
17.04 55.2085
17.2205 65.2198
17.401 81.0241
17.5815 58.8023
17.7622 61.3371
17.9428 83.6803
18.1237 114.798
18.3044 88.2081
18.4852 94.9983
18.666 60.8815
18.8469 58.0806
19.0278 56.6349
19.2088 61.6682
19.3898 69.0232
19.5709 56.3186
19.752 53.1681
19.9332 57.9676
20.1144 66.8791
20.2957 61.0825
20.477 58.9636
20.6586 49.6953
20.84 48.9928
21.0215 48.8513
21.203 49.6574
21.3846 50.304
21.5662 48.7795
21.7479 53.9442
21.9297 61.8953
22.1115 56.1839
22.2933 52.3518
22.4753 48.6936
22.6572 49.1039
22.8393 51.9364
23.0214 57.2462
23.2037 49.6763
23.3859 51.7682
23.5682 53.547
23.7505 53.3933
23.9329 45.5508
24.1154 44.2878
24.2979 43.6265
24.4805 42.8225
24.6631 43.1181
24.8458 42.587
25.0286 42.9481
25.2114 44.4872
25.3943 44.8847
25.5773 41.7606
25.7605 40.697
25.9436 40.9808
26.1268 41.6139
26.31 40.8394
26.4933 40.88
26.6767 41.9974
26.8601 41.2959
27.0437 39.608
27.2272 38.9377
27.4109 38.5885
27.5946 38.8271
27.7784 38.4365
27.9623 38.4748
28.1462 39.4183
28.3304 38.0964
28.5145 36.3258
28.6987 35.8493
28.8829 35.5297
29.0673 35.1361
29.2517 34.5447
29.4361 34.2648
29.6207 33.452
29.8053 33.0503
29.99 32.7336
30.1748 32.5738
30.3597 32.5909
30.5447 32.3024
30.7297 32.3036
30.915 32.0774
31.1002 31.4583
31.2855 31.1282
31.4708 30.9723
31.6563 30.9115
31.8418 30.3023
32.0275 30.1576
32.2132 29.6734
32.399 29.052
32.5848 28.639
32.7708 28.3304
32.9569 28.2755
33.143 27.9323
33.3293 27.6391
33.5158 27.263
33.7022 26.7051
33.8887 26.4609
34.0753 26.2401
34.262 25.7376
34.4488 25.4997
34.6357 25.1175
34.8227 24.838
35.0098 24.5853
35.1969 24.3125
35.3842 24.0621
35.5716 24.0009
35.759 23.7212
35.9468 23.2761
36.1345 23.0119
36.3222 22.8534
36.5101 22.5929
36.6981 22.3177
36.8861 21.992
37.0743 21.6944
37.2626 21.3887
37.451 21.0989
37.6395 20.9025
37.8281 20.6373
38.0168 20.3853
38.2056 20.0619
38.3945 19.7658
38.5837 19.5592
38.7728 19.3333
38.9621 19.0971
39.1514 18.8784
39.3409 18.5924
39.5304 18.3863
39.7201 18.1294
39.9099 17.9641
40.0999 17.7242
40.2899 17.4843
40.48 17.2361
40.6703 17.0808
40.8607 16.8649
41.0512 16.6442
41.242 16.3765
41.4327 16.171
41.6236 15.9181
41.8146 15.7623
42.0057 15.496
42.1969 15.3822
42.3882 15.1281
42.5797 14.8979
42.7713 14.7221
42.963 14.5082
43.1549 14.3215
43.3468 14.0842
43.5389 13.9189
43.7312 13.7074
43.9237 13.5324
44.1162 13.3275
44.3088 13.1715
44.5016 12.9584
44.6945 12.8298
44.8875 12.6162
45.0806 12.4256
45.2739 12.2248
45.4673 12.1102
45.6609 11.9243
45.8546 11.7557
46.0484 11.5812
46.2424 11.4137
46.4365 11.2617
46.631 11.0636
46.8254 10.9099
47.0199 10.783
47.2146 10.5744
47.4095 10.4251
47.6044 10.2954
47.7996 10.1286
47.9948 9.96269
48.1902 9.85277
48.3858 9.72283
48.5815 9.54835
48.7774 9.45889
48.9734 9.31743
49.1696 9.15698
49.3661 8.97984
49.5626 8.89349
49.7592 8.76599
49.956 8.60789
50.153 8.51265
50.3501 8.34398
50.5474 8.23932
50.7448 8.1291
50.9424 8.00807
51.1402 7.84928
51.3381 7.72876
51.5362 7.59881
51.7344 7.48872
51.9328 7.31513
52.1316 7.22545
52.3304 7.1088
52.5293 7.00505
52.7284 6.91585
52.9276 6.78163
53.1271 6.67425
53.3267 6.54716
53.5265 6.43225
53.7264 6.31451
53.9266 6.1804
54.1269 6.10527
54.3274 5.95654
54.528 5.75024
54.7289 5.58425
54.9301 5.43966
55.1314 5.31619
55.3328 5.07075
55.5344 4.90224
55.7361 4.75099