Folder: NiFe_MOF_catalyst_paper/XRD (part 122)

File: Ni3Fe_FD0659.xy
TT I
1.27165 7.22507
1.45013 5.71977
1.62863 4.96033
1.80712 4.9956
1.98562 4.69533
2.16411 5.03958
2.34263 4.88826
2.52115 7.08425
2.69965 8.42112
2.87818 8.16986
3.05672 10.6635
3.23527 14.9169
3.4138 18.893
3.59237 24.2035
3.77094 26.4138
3.9495 30.0128
4.12809 34.8839
4.30669 245.087
4.4853 68.1528
4.6639 55.0419
4.84253 67.0435
5.02118 86.4097
5.19981 325.0
5.37848 188.634
5.55716 101.797
5.73586 92.0657
5.91455 93.39
6.09328 4533.71
6.27201 82.7479
6.45075 67.0821
6.62952 63.0259
6.8083 58.8537
6.98711 55.8969
7.16591 55.8755
7.34475 97.0474
7.5236 54.697
7.70247 56.1032
7.88135 57.9062
8.06026 61.9243
8.23919 69.5162
8.41812 85.2552
8.59709 1156.7
8.77609 99.1957
8.9551 92.1276
9.13412 81.6657
9.31318 82.2209
9.49226 83.786
9.67134 99.6542
9.85047 99.3808
10.0296 324.574
10.2088 414.157
10.388 104.436
10.5672 508.971
10.7465 86.4996
10.9257 78.4821
11.105 72.1095
11.2844 70.7381
11.4637 64.722
11.6431 63.4262
11.8225 62.4492
12.002 63.4089
12.1814 150.135
12.3609 70.977
12.5405 64.6833
12.72 70.3659
12.8996 70.8449
13.0792 78.4818
13.2589 233.301
13.4386 121.955
13.6183 242.269
13.7981 95.4543
13.9779 75.6373
14.1577 72.5598
14.3376 71.7465
14.5175 68.7412
14.6974 70.1653
14.8774 107.436
15.0574 148.09
15.2374 71.5064
15.4175 66.3339
15.5976 65.5496
15.7778 92.8618
15.958 157.758
16.1382 62.9907
16.3185 58.7303
16.4988 55.368
16.6792 54.5779
16.8596 55.1193
17.04 55.6289
17.2205 66.1022
17.401 71.0559
17.5815 59.0901
17.7622 61.27
17.9428 72.8399
18.1237 143.134
18.3044 89.8633
18.4852 77.2082
18.666 60.3284
18.8469 58.0007
19.0278 56.7785
19.2088 59.4028
19.3898 77.6075
19.5709 54.1893
19.752 53.1693
19.9332 56.0821
20.1144 70.1208
20.2957 63.83
20.477 53.4598
20.6586 49.7613
20.84 48.8203
21.0215 48.566
21.203 50.875
21.3846 49.0087
21.5662 48.6939
21.7479 52.3963
21.9297 65.0185
22.1115 56.1028
22.2933 49.7827
22.4753 48.8619
22.6572 48.7765
22.8393 51.8069
23.0214 57.7457
23.2037 48.7955
23.3859 49.6168
23.5682 57.2246
23.7505 48.1526
23.9329 45.2515
24.1154 44.2355
24.2979 43.5474
24.4805 42.9104
24.6631 42.772
24.8458 42.2998
25.0286 42.8673
25.2114 44.5758
25.3943 44.598
25.5773 40.9618
25.7605 40.6028
25.9436 40.8614
26.1268 41.8532
26.31 40.0429
26.4933 40.6941
26.6767 42.2435
26.8601 40.4545
27.0437 38.8025
27.2272 38.5953
27.4109 38.3359
27.5946 38.3946
27.7784 37.8979
27.9623 38.5783
28.1462 38.892
28.3304 37.198
28.5145 35.9941
28.6987 35.5146
28.8829 35.4483
29.0673 34.71
29.2517 34.3844
29.4361 34.115
29.6207 33.2314
29.8053 32.9693
29.99 32.5246
30.1748 32.5177
30.3597 32.3171
30.5447 32.2194
30.7297 32.2544
30.915 31.6671
31.1002 31.1906
31.2855 30.9075
31.4708 30.8711
31.6563 30.3939
31.8418 30.1225
32.0275 29.8526
32.2132 29.3588
32.399 28.997
32.5848 28.4256
32.7708 28.1827
32.9569 28.045
33.143 27.7505
33.3293 27.4133
33.5158 27.0191
33.7022 26.6179
33.8887 26.305
34.0753 25.9766
34.262 25.6225
34.4488 25.239
34.6357 25.0343
34.8227 24.7388
35.0098 24.555
35.1969 24.2288
35.3842 24.0607
35.5716 23.7682
35.759 23.4929
35.9468 23.1258
36.1345 22.911
36.3222 22.6642
36.5101 22.4895
36.6981 22.1407
36.8861 21.8417
37.0743 21.5427
37.2626 21.2876
37.451 20.9574
37.6395 20.8133
37.8281 20.4785
38.0168 20.2191
38.2056 19.969
38.3945 19.71
38.5837 19.5199
38.7728 19.264
38.9621 18.9914
39.1514 18.6887
39.3409 18.5409
39.5304 18.3186
39.7201 18.1206
39.9099 17.8751
40.0999 17.6062
40.2899 17.3647
40.48 17.0991
40.6703 16.944
40.8607 16.7472
41.0512 16.5179
41.242 16.2564
41.4327 16.0545
41.6236 15.8889
41.8146 15.6375
42.0057 15.488
42.1969 15.2051
42.3882 15.0995
42.5797 14.84
42.7713 14.6289
42.963 14.4313
43.1549 14.2639
43.3468 14.0178
43.5389 13.8893
43.7312 13.6432
43.9237 13.5099
44.1162 13.3177
44.3088 13.1203
44.5016 12.9291
44.6945 12.7453
44.8875 12.5961
45.0806 12.4219
45.2739 12.2086
45.4673 12.031
45.6609 11.8865
45.8546 11.7177
46.0484 11.5666
46.2424 11.3449
46.4365 11.22
46.631 11.0548
46.8254 10.899
47.0199 10.7497
47.2146 10.5875
47.4095 10.4015
47.6044 10.2098
47.7996 10.1043
47.9948 9.94664
48.1902 9.81544
48.3858 9.67767
48.5815 9.51401
48.7774 9.42837
48.9734 9.24342
49.1696 9.09423
49.3661 8.95994
49.5626 8.84379
49.7592 8.7437
49.956 8.62335
50.153 8.45032
50.3501 8.35479
50.5474 8.17949
50.7448 8.06026
50.9424 7.93131
51.1402 7.80536
51.3381 7.67611
51.5362 7.58316
51.7344 7.47566
51.9328 7.32485
52.1316 7.17049
52.3304 7.08741
52.5293 6.96357
52.7284 6.88208
52.9276 6.70553
53.1271 6.66547
53.3267 6.52159
53.5265 6.38914
53.7264 6.2782
53.9266 6.14559
54.1269 6.05928
54.3274 5.94345
54.528 5.83353
54.7289 5.64915
54.9301 5.50269
55.1314 5.35375
55.3328 5.14547
55.5344 4.95814
55.7361 4.8078

File: Ni3Fe_FD0660.xy
TT I
1.27165 7.19097
1.45013 6.56939
1.62863 5.62999
1.80712 4.72252
1.98562 4.46889
2.16411 4.94426
2.34263 5.41417
2.52115 6.688
2.69965 8.11739
2.87818 9.14886
3.05672 11.0273
3.23527 15.0382
3.4138 18.8571
3.59237 23.8507
3.77094 26.0047
3.9495 30.12
4.12809 34.7996
4.30669 229.0
4.4853 66.5892
4.6639 55.2585
4.84253 66.8514
5.02118 86.8705
5.19981 326.885
5.37848 186.443
5.55716 101.126
5.73586 91.3411
5.91455 94.0032
6.09328 4579.59
6.27201 82.4289
6.45075 67.0303
6.62952 62.701
6.8083 58.546
6.98711 55.8551
7.16591 55.6951
7.34475 94.3956
7.5236 54.5873
7.70247 56.1093
7.88135 57.5948
8.06026 61.9047
8.23919 69.3386
8.41812 84.8886
8.59709 1168.46
8.77609 99.0608
8.9551 91.7579
9.13412 81.4059
9.31318 82.4204
9.49226 84.0932
9.67134 98.8614
9.85047 99.3137
10.0296 330.105
10.2088 404.48
10.388 103.854
10.5672 514.133
10.7465 86.5531
10.9257 78.2428
11.105 71.6797
11.2844 70.3294
11.4637 64.6808
11.6431 63.607
11.8225 62.1404
12.002 63.5057
12.1814 152.734
12.3609 70.5543
12.5405 64.7102
12.72 70.1502
12.8996 70.8236
13.0792 78.8023
13.2589 236.214
13.4386 121.236
13.6183 245.979
13.7981 95.3468
13.9779 75.4
14.1577 72.3611
14.3376 71.7093
14.5175 68.7507
14.6974 70.2494
14.8774 108.718
15.0574 146.724
15.2374 71.1788
15.4175 66.1314
15.5976 65.6937
15.7778 93.2374
15.958 157.034
16.1382 62.6107
16.3185 58.6513
16.4988 55.3569
16.6792 54.4956
16.8596 55.2001
17.04 55.5852
17.2205 66.2752
17.401 71.0504
17.5815 59.1293
17.7622 61.2014
17.9428 73.2784
18.1237 143.292
18.3044 90.2417
18.4852 77.0487
18.666 60.4641
18.8469 58.0208
19.0278 56.7372
19.2088 59.2607
19.3898 77.4696
19.5709 54.2958
19.752 53.1982
19.9332 56.1294
20.1144 70.257
20.2957 63.9966
20.477 53.4366
20.6586 49.6038
20.84 48.9682
21.0215 48.6284
21.203 50.7038
21.3846 48.9868
21.5662 48.757
21.7479 52.3931
21.9297 65.1774
22.1115 56.181
22.2933 49.738
22.4753 48.8982
22.6572 48.7311
22.8393 51.8951
23.0214 57.5995
23.2037 48.6838
23.3859 49.6666
23.5682 57.4017
23.7505 47.9964
23.9329 45.2734
24.1154 44.1081
24.2979 43.57
24.4805 42.8979
24.6631 42.6781
24.8458 42.2527
25.0286 42.7041
25.2114 44.7426
25.3943 44.6057
25.5773 40.9854
25.7605 40.3847
25.9436 40.787
26.1268 41.8606
26.31 40.0643
26.4933 40.8635
26.6767 42.2379
26.8601 40.473
27.0437 38.8438
27.2272 38.6254
27.4109 38.4608
27.5946 38.2901
27.7784 37.9597
27.9623 38.4669
28.1462 38.8095
28.3304 37.1355
28.5145 35.9395
28.6987 35.6396
28.8829 35.4947
29.0673 34.6114
29.2517 34.266
29.4361 34.1377
29.6207 33.2863
29.8053 32.95
29.99 32.7063
30.1748 32.4529
30.3597 32.3075
30.5447 32.1768
30.7297 32.2411
30.915 31.6984
31.1002 31.2461
31.2855 30.8807
31.4708 30.9329
31.6563 30.3614
31.8418 30.1993
32.0275 29.9874
32.2132 29.4
32.399 28.9158
32.5848 28.5499
32.7708 28.1303
32.9569 28.0404
33.143 27.8174
33.3293 27.3986
33.5158 27.0474
33.7022 26.5189
33.8887 26.3311
34.0753 26.0272
34.262 25.6602
34.4488 25.2919
34.6357 25.0274
34.8227 24.7234
35.0098 24.5023
35.1969 24.2055
35.3842 24.0559
35.5716 23.8728
35.759 23.5179
35.9468 23.1851
36.1345 22.9093
36.3222 22.6031
36.5101 22.4766
36.6981 22.1365
36.8861 21.889
37.0743 21.5143
37.2626 21.2945
37.451 21.0237
37.6395 20.8813
37.8281 20.5262
38.0168 20.2471
38.2056 19.9715
38.3945 19.7178
38.5837 19.5172
38.7728 19.2326
38.9621 19.004
39.1514 18.7112
39.3409 18.4981
39.5304 18.247
39.7201 18.0445
39.9099 17.8488
40.0999 17.5879
40.2899 17.3602
40.48 17.2094
40.6703 16.9322
40.8607 16.7492
41.0512 16.5067
41.242 16.2739
41.4327 16.0616
41.6236 15.8791
41.8146 15.6489
42.0057 15.4464
42.1969 15.2618
42.3882 15.095
42.5797 14.8087
42.7713 14.6291
42.963 14.4256
43.1549 14.2967
43.3468 14.0716
43.5389 13.8113
43.7312 13.66
43.9237 13.4798
44.1162 13.288
44.3088 13.1389
44.5016 12.8617
44.6945 12.7684
44.8875 12.5194
45.0806 12.4407
45.2739 12.1852
45.4673 12.0903
45.6609 11.8656
45.8546 11.7063
46.0484 11.5436
46.2424 11.3885
46.4365 11.2473
46.631 11.0586
46.8254 10.8496
47.0199 10.7409
47.2146 10.5652
47.4095 10.4067
47.6044 10.2927
47.7996 10.0805
47.9948 9.97731
48.1902 9.80117
48.3858 9.67977
48.5815 9.53975
48.7774 9.41332
48.9734 9.25393
49.1696 9.14032
49.3661 8.97758
49.5626 8.81531
49.7592 8.69512
49.956 8.61393
50.153 8.43302
50.3501 8.3251
50.5474 8.19469
50.7448 8.07872
50.9424 7.95487
51.1402 7.80727
51.3381 7.68382
51.5362 7.56412
51.7344 7.47674
51.9328 7.27478
52.1316 7.18418
52.3304 7.0847
52.5293 6.92846
52.7284 6.91732
52.9276 6.72634
53.1271 6.63886
53.3267 6.5365
53.5265 6.3949
53.7264 6.29013
53.9266 6.20953
54.1269 6.05744
54.3274 5.91723
54.528 5.78416
54.7289 5.6259
54.9301 5.49383
55.1314 5.33045
55.3328 5.12939
55.5344 4.95979
55.7361 4.85441

File: Ni3Fe_FD0661.xy
TT I
1.27165 7.18303
1.45013 6.37534
1.62863 5.25901
1.80712 4.97479
1.98562 4.71766
2.16411 4.78961
2.34263 5.91213
2.52115 6.91364
2.69965 8.3365
2.87818 8.44255
3.05672 11.511
3.23527 14.9025
3.4138 18.9632
3.59237 23.9709
3.77094 26.5358
3.9495 29.4917
4.12809 34.2566
4.30669 217.769
4.4853 65.4807
4.6639 55.4428
4.84253 66.934
5.02118 86.741
5.19981 331.216
5.37848 185.375
5.55716 101.359
5.73586 91.7225
5.91455 93.688
6.09328 4570.41
6.27201 82.8013
6.45075 66.8804
6.62952 62.3213
6.8083 58.3881
6.98711 55.964
7.16591 54.9231
7.34475 92.4053
7.5236 54.5254
7.70247 55.9834
7.88135 57.6319
8.06026 61.8944
8.23919 69.535
8.41812 85.5731
8.59709 1180.6
8.77609 99.2632
8.9551 91.0845
9.13412 81.9608
9.31318 82.085
9.49226 83.934
9.67134 98.2896
9.85047 99.5469
10.0296 335.426
10.2088 394.396
10.388 104.046
10.5672 515.536
10.7465 86.014
10.9257 78.2977
11.105 71.7314
11.2844 70.401
11.4637 64.8227
11.6431 63.2553
11.8225 62.3151
12.002 63.4816
12.1814 153.214
12.3609 70.0444
12.5405 64.3463
12.72 69.7925
12.8996 70.5691
13.0792 78.5795
13.2589 237.625
13.4386 120.669
13.6183 248.059
13.7981 94.9043
13.9779 75.7467
14.1577 72.2049
14.3376 71.5991
14.5175 68.5338
14.6974 70.4901
14.8774 109.185
15.0574 145.778
15.2374 70.9409
15.4175 66.205
15.5976 65.5676
15.7778 93.5189
15.958 156.503
16.1382 62.6275
16.3185 58.4886
16.4988 55.5184
16.6792 54.4194
16.8596 54.9765
17.04 55.6661
17.2205 66.4458
17.401 70.7321
17.5815 59.1686
17.7622 61.1024
17.9428 73.198
18.1237 143.25
18.3044 90.4573
18.4852 77.0441
18.666 60.1777
18.8469 57.7941
19.0278 56.8479
19.2088 59.485
19.3898 77.4236
19.5709 53.936
19.752 53.2539
19.9332 56.0994
20.1144 70.0609
20.2957 63.9128
20.477 53.4173
20.6586 49.5681
20.84 48.7549
21.0215 48.493
21.203 50.7474
21.3846 48.641
21.5662 48.683
21.7479 52.5622
21.9297 65.1117
22.1115 55.9925
22.2933 49.7557
22.4753 48.8637
22.6572 48.6565
22.8393 51.8922
23.0214 57.452
23.2037 48.6889
23.3859 49.6767
23.5682 57.245
23.7505 48.1715
23.9329 45.1036
24.1154 43.9815
24.2979 43.3296
24.4805 42.8372
24.6631 42.8041
24.8458 42.104
25.0286 42.8761
25.2114 44.7346
25.3943 44.7434
25.5773 40.9098
25.7605 40.4776
25.9436 40.7297
26.1268 41.8763
26.31 40.0384
26.4933 40.6729
26.6767 42.2683
26.8601 40.4937
27.0437 38.8841
27.2272 38.502
27.4109 38.3138
27.5946 38.3513
27.7784 37.8251
27.9623 38.4416
28.1462 38.9051
28.3304 37.1429
28.5145 35.8633
28.6987 35.5963
28.8829 35.4001
29.0673 34.6821
29.2517 34.3977
29.4361 34.1824
29.6207 33.102
29.8053 32.8946
29.99 32.4554
30.1748 32.4694
30.3597 32.2315
30.5447 32.1241
30.7297 32.2119
30.915 31.5963
31.1002 31.0616
31.2855 30.9123
31.4708 30.6925
31.6563 30.4532
31.8418 30.1863
32.0275 29.918
32.2132 29.4121
32.399 28.8395
32.5848 28.5137
32.7708 28.1548
32.9569 27.9214
33.143 27.8438
33.3293 27.4674
33.5158 27.0209
33.7022 26.5201
33.8887 26.3543
34.0753 25.9354
34.262 25.688
34.4488 25.2339
34.6357 24.9943
34.8227 24.7069
35.0098 24.4761
35.1969 24.104
35.3842 23.944
35.5716 23.7434
35.759 23.4852
35.9468 23.1395
36.1345 22.8375
36.3222 22.6631
36.5101 22.4455
36.6981 22.0958
36.8861 21.8437
37.0743 21.5165
37.2626 21.2147
37.451 21.0048
37.6395 20.8344
37.8281 20.4637
38.0168 20.2783
38.2056 20.0193
38.3945 19.7305
38.5837 19.474
38.7728 19.2121
38.9621 18.9477
39.1514 18.7356
39.3409 18.453
39.5304 18.2134
39.7201 18.052
39.9099 17.8815
40.0999 17.5622
40.2899 17.3837
40.48 17.0811
40.6703 16.9415
40.8607 16.7809
41.0512 16.4841
41.242 16.2411
41.4327 16.0296
41.6236 15.8413
41.8146 15.6624
42.0057 15.4522
42.1969 15.2116
42.3882 15.0625
42.5797 14.8243
42.7713 14.5997
42.963 14.4292
43.1549 14.2287
43.3468 14.04
43.5389 13.8781
43.7312 13.6275
43.9237 13.4687
44.1162 13.2219
44.3088 13.0713
44.5016 12.8854
44.6945 12.7549
44.8875 12.5362
45.0806 12.3778
45.2739 12.2074
45.4673 12.0799
45.6609 11.8623
45.8546 11.643
46.0484 11.5489
46.2424 11.3969
46.4365 11.1873
46.631 11.0612
46.8254 10.8471
47.0199 10.7193
47.2146 10.5582
47.4095 10.3911
47.6044 10.2455
47.7996 10.1114
47.9948 9.95705
48.1902 9.8046
48.3858 9.70715
48.5815 9.5447
48.7774 9.41373
48.9734 9.25403
49.1696 9.09623
49.3661 8.96326
49.5626 8.82193
49.7592 8.67072
49.956 8.56207
50.153 8.42318
50.3501 8.27411
50.5474 8.16539
50.7448 8.04846
50.9424 7.93736
51.1402 7.8075
51.3381 7.6723
51.5362 7.561
51.7344 7.42999
51.9328 7.31577
52.1316 7.16873
52.3304 7.07753
52.5293 6.93262
52.7284 6.82789
52.9276 6.72228
53.1271 6.62818
53.3267 6.51101
53.5265 6.385
53.7264 6.31018
53.9266 6.19096
54.1269 6.06074
54.3274 5.96603
54.528 5.85463
54.7289 5.62953
54.9301 5.47044
55.1314 5.36685
55.3328 5.14233
55.5344 4.96488
55.7361 4.85999

File: Ni3Fe_FD0662.xy
TT I
1.27165 6.99617
1.45013 6.01229
1.62863 5.59756
1.80712 4.96404
1.98562 4.79009
2.16411 4.40362
2.34263 4.81676
2.52115 7.21717
2.69965 7.56672
2.87818 8.48152
3.05672 10.8171
3.23527 15.1903
3.4138 19.1196
3.59237 23.2964
3.77094 26.1039
3.9495 30.0467
4.12809 34.306
4.30669 208.423
4.4853 64.1073
4.6639 55.7464
4.84253 67.0963
5.02118 86.7831
5.19981 338.148
5.37848 185.189
5.55716 102.077
5.73586 92.2215
5.91455 94.0613
6.09328 4559.06
6.27201 82.8308
6.45075 67.067
6.62952 62.7679
6.8083 58.3413
6.98711 55.6074
7.16591 55.1601
7.34475 90.3398
7.5236 54.7399
7.70247 56.3417
7.88135 58.0995
8.06026 62.115
8.23919 69.4774
8.41812 85.0455
8.59709 1193.12
8.77609 98.3195
8.9551 90.5195
9.13412 81.6975
9.31318 82.4261
9.49226 84.2637
9.67134 98.1068
9.85047 99.4689
10.0296 340.472
10.2088 386.932
10.388 104.443
10.5672 517.063
10.7465 86.2799
10.9257 78.089
11.105 71.7724
11.2844 70.1877
11.4637 64.686
11.6431 63.5932
11.8225 62.4338
12.002 63.465
12.1814 153.422
12.3609 69.9475
12.5405 64.3546
12.72 69.7649
12.8996 70.9868
13.0792 78.8493
13.2589 240.167
13.4386 120.14
13.6183 249.493
13.7981 94.7654
13.9779 75.6362
14.1577 72.1528
14.3376 71.3139
14.5175 68.4564
14.6974 70.1871
14.8774 109.819
15.0574 144.15
15.2374 71.0137
15.4175 65.9319
15.5976 65.4239
15.7778 94.2186
15.958 154.194
16.1382 62.6145
16.3185 58.5823
16.4988 55.3179
16.6792 54.3154
16.8596 55.0542
17.04 55.721
17.2205 66.549
17.401 70.5284
17.5815 59.1284
17.7622 61.1378
17.9428 73.4668
18.1237 142.365
18.3044 90.6577
18.4852 76.2745
18.666 60.0572
18.8469 57.8582
19.0278 56.8346
19.2088 59.4686
19.3898 77.0785
19.5709 54.1345
19.752 53.2185
19.9332 56.126
20.1144 69.8827
20.2957 64.0827
20.477 53.2578
20.6586 49.602
20.84 48.729
21.0215 48.5938
21.203 50.7062
21.3846 48.8313
21.5662 48.7443
21.7479 52.5152
21.9297 64.7753
22.1115 56.0565
22.2933 49.8238
22.4753 48.856
22.6572 48.9628
22.8393 51.8903
23.0214 57.4657
23.2037 48.6298
23.3859 49.4968
23.5682 57.3718
23.7505 47.9446
23.9329 45.1242
24.1154 44.1822
24.2979 43.3695
24.4805 42.7202
24.6631 42.6479
24.8458 42.1487
25.0286 42.7836
25.2114 44.5339
25.3943 44.5894
25.5773 40.9345
25.7605 40.4822
25.9436 40.8209
26.1268 41.635
26.31 40.0484
26.4933 40.7191
26.6767 42.2444
26.8601 40.276
27.0437 38.911
27.2272 38.4517
27.4109 38.5079
27.5946 38.3465
27.7784 37.8342
27.9623 38.4664
28.1462 38.8426
28.3304 37.1649
28.5145 35.9665
28.6987 35.4905
28.8829 35.5216
29.0673 34.6738
29.2517 34.4028
29.4361 34.1955
29.6207 33.2117
29.8053 32.838
29.99 32.5744
30.1748 32.4252
30.3597 32.1736
30.5447 32.163
30.7297 32.2289
30.915 31.5786
31.1002 30.9988
31.2855 30.8724
31.4708 30.84
31.6563 30.4406
31.8418 30.1718
32.0275 29.9592
32.2132 29.3531
32.399 28.877
32.5848 28.4704
32.7708 28.1114
32.9569 27.9646
33.143 27.7758
33.3293 27.3819
33.5158 27.0576
33.7022 26.5605
33.8887 26.3224
34.0753 26.0484
34.262 25.6273
34.4488 25.3145
34.6357 24.9775
34.8227 24.7054
35.0098 24.5442
35.1969 24.1936
35.3842 24.0169
35.5716 23.7331
35.759 23.4493
35.9468 23.1649
36.1345 22.9221
36.3222 22.6498
36.5101 22.4004
36.6981 22.1386
36.8861 21.697
37.0743 21.5404
37.2626 21.1757
37.451 20.9681
37.6395 20.8223
37.8281 20.4447
38.0168 20.1601
38.2056 19.9727
38.3945 19.6667
38.5837 19.3963
38.7728 19.2045
38.9621 18.9804
39.1514 18.7216
39.3409 18.506
39.5304 18.2408
39.7201 18.1015
39.9099 17.8293
40.0999 17.6144
40.2899 17.3359
40.48 17.1191
40.6703 16.9141
40.8607 16.7555
41.0512 16.5161
41.242 16.2538
41.4327 16.0835
41.6236 15.7815
41.8146 15.6534
42.0057 15.4447
42.1969 15.2138
42.3882 15.0227
42.5797 14.7962
42.7713 14.6048
42.963 14.4059
43.1549 14.2145
43.3468 14.0176
43.5389 13.8656
43.7312 13.6406
43.9237 13.4854
44.1162 13.2951
44.3088 13.0819
44.5016 12.8836
44.6945 12.7102
44.8875 12.5388
45.0806 12.3936
45.2739 12.203
45.4673 12.0287
45.6609 11.8828
45.8546 11.6977
46.0484 11.5374
46.2424 11.3282
46.4365 11.2345
46.631 11.0202
46.8254 10.8576
47.0199 10.7068
47.2146 10.5485
47.4095 10.3925
47.6044 10.2384
47.7996 10.0682
47.9948 9.98981
48.1902 9.79576
48.3858 9.67542
48.5815 9.5123
48.7774 9.34888
48.9734 9.26973
49.1696 9.11582
49.3661 8.96716
49.5626 8.78059
49.7592 8.7259
49.956 8.57812
50.153 8.4559
50.3501 8.32693
50.5474 8.1871
50.7448 8.03784
50.9424 7.9266
51.1402 7.8027
51.3381 7.65848
51.5362 7.57077
51.7344 7.42588
51.9328 7.27248
52.1316 7.21454
52.3304 7.09801
52.5293 6.95679
52.7284 6.85212
52.9276 6.72251
53.1271 6.65215
53.3267 6.48405
53.5265 6.37933
53.7264 6.30413
53.9266 6.16092
54.1269 6.03447
54.3274 5.9667
54.528 5.8176
54.7289 5.64326
54.9301 5.45163
55.1314 5.34206
55.3328 5.15268
55.5344 4.97594
55.7361 4.80064

File: Ni3Fe_FD0663.xy
TT I
1.27165 7.77505
1.45013 5.83761
1.62863 5.10194
1.80712 5.07778
1.98562 4.96812
2.16411 5.04781
2.34263 5.51738
2.52115 6.713
2.69965 7.85366
2.87818 8.82781
3.05672 11.0328
3.23527 15.2438
3.4138 18.959
3.59237 24.2029
3.77094 25.8117
3.9495 30.2296
4.12809 34.5892
4.30669 200.193
4.4853 63.0103
4.6639 54.9862
4.84253 67.3164
5.02118 86.7524
5.19981 343.995
5.37848 183.112
5.55716 102.065
5.73586 91.6281
5.91455 93.9547
6.09328 4545.57
6.27201 82.1502
6.45075 66.8475
6.62952 62.2997
6.8083 58.1548
6.98711 55.6741
7.16591 55.0835
7.34475 88.3874
7.5236 54.6216
7.70247 55.7788
7.88135 57.6768
8.06026 62.1263
8.23919 69.1774
8.41812 85.3377
8.59709 1192.84
8.77609 98.6027
8.9551 90.5221
9.13412 81.8334
9.31318 82.4516
9.49226 84.6121
9.67134 97.3447
9.85047 99.6365
10.0296 343.575
10.2088 379.984
10.388 104.159
10.5672 516.504
10.7465 86.1301
10.9257 78.3138
11.105 71.4682
11.2844 69.8839
11.4637 64.6327
11.6431 63.4343
11.8225 62.5144
12.002 63.5441
12.1814 153.474
12.3609 69.2348
12.5405 64.2952
12.72 69.6703
12.8996 70.6077
13.0792 79.0496
13.2589 241.651
13.4386 119.884
13.6183 251.226
13.7981 94.4884
13.9779 75.822
14.1577 72.0228
14.3376 71.0366
14.5175 68.853
14.6974 70.4115
14.8774 110.635
15.0574 144.102
15.2374 70.6815
15.4175 66.2705
15.5976 65.6609
15.7778 94.4277
15.958 153.0
16.1382 62.4673
16.3185 58.3436
16.4988 55.5294
16.6792 54.6184
16.8596 55.0169
17.04 55.6317
17.2205 66.5864
17.401 70.0258
17.5815 59.1474
17.7622 61.0397
17.9428 73.6696
18.1237 142.394
18.3044 90.6074
18.4852 76.1679
18.666 60.2459
18.8469 57.7772
19.0278 56.7747
19.2088 59.4336
19.3898 76.9177
19.5709 53.9776
19.752 53.1583
19.9332 56.1831
20.1144 69.8044
20.2957 63.889
20.477 53.2751
20.6586 49.7347
20.84 48.6786
21.0215 48.4462
21.203 50.85
21.3846 48.8151
21.5662 48.717
21.7479 52.5822
21.9297 64.8595
22.1115 56.1114
22.2933 49.7318
22.4753 48.6202
22.6572 48.729
22.8393 51.8178
23.0214 57.4322
23.2037 48.565
23.3859 49.7413
23.5682 57.4339
23.7505 47.8589
23.9329 45.2283
24.1154 44.0009
24.2979 43.289
24.4805 42.8721
24.6631 42.7013
24.8458 42.0833
25.0286 42.7399
25.2114 44.6098
25.3943 44.571
25.5773 40.9358
25.7605 40.4996
25.9436 40.7981
26.1268 41.7905
26.31 39.9823
26.4933 40.5838
26.6767 42.23
26.8601 40.4035
27.0437 38.7811
27.2272 38.3331
27.4109 38.2898
27.5946 38.2979
27.7784 37.8298
27.9623 38.2652
28.1462 38.6792
28.3304 37.0748
28.5145 35.8472
28.6987 35.4892
28.8829 35.3186
29.0673 34.6594
29.2517 34.2727
29.4361 34.0933
29.6207 33.0005
29.8053 32.8025
29.99 32.5488
30.1748 32.392
30.3597 32.2927
30.5447 32.1534
30.7297 32.0837
30.915 31.5441
31.1002 31.0847
31.2855 30.7875
31.4708 30.7172
31.6563 30.3492
31.8418 30.0128
32.0275 29.846
32.2132 29.3194
32.399 28.9767
32.5848 28.4477
32.7708 28.1115
32.9569 27.9915
33.143 27.7718
33.3293 27.3944
33.5158 27.0337
33.7022 26.5923
33.8887 26.2938
34.0753 25.9239
34.262 25.6143
34.4488 25.2401
34.6357 24.9239
34.8227 24.5891
35.0098 24.4429
35.1969 24.1756
35.3842 23.947
35.5716 23.7303
35.759 23.4478
35.9468 23.1206
36.1345 22.8587
36.3222 22.6319
36.5101 22.4157
36.6981 22.0853
36.8861 21.8453
37.0743 21.4583
37.2626 21.2517
37.451 20.9849
37.6395 20.8585
37.8281 20.5072
38.0168 20.2243
38.2056 20.0192
38.3945 19.6169
38.5837 19.4197
38.7728 19.1507
38.9621 18.9899
39.1514 18.6506
39.3409 18.4356
39.5304 18.1967
39.7201 18.0368
39.9099 17.8035
40.0999 17.6258
40.2899 17.322
40.48 17.1549
40.6703 16.9013
40.8607 16.7344
41.0512 16.4987
41.242 16.2467
41.4327 16.0239
41.6236 15.7873
41.8146 15.6292
42.0057 15.4066
42.1969 15.2174
42.3882 15.0019
42.5797 14.854
42.7713 14.639
42.963 14.3802
43.1549 14.1921
43.3468 14.0165
43.5389 13.8233
43.7312 13.5996
43.9237 13.4607
44.1162 13.2768
44.3088 13.0778
44.5016 12.8775
44.6945 12.6971
44.8875 12.5322
45.0806 12.312
45.2739 12.2183
45.4673 12.0174
45.6609 11.8496
45.8546 11.6734
46.0484 11.4942
46.2424 11.3904
46.4365 11.2036
46.631 11.0024
46.8254 10.8437
47.0199 10.6776
47.2146 10.5429
47.4095 10.3782
47.6044 10.2283
47.7996 10.0755
47.9948 9.90001
48.1902 9.78169
48.3858 9.63103
48.5815 9.55947
48.7774 9.39451
48.9734 9.23864
49.1696 9.11452
49.3661 8.94152
49.5626 8.78597
49.7592 8.70735
49.956 8.57127
50.153 8.42301
50.3501 8.30122
50.5474 8.18264
50.7448 8.05842
50.9424 7.94182
51.1402 7.81721
51.3381 7.66228
51.5362 7.57076
51.7344 7.4334
51.9328 7.29625
52.1316 7.17097
52.3304 7.05607
52.5293 6.92885
52.7284 6.83193
52.9276 6.72544
53.1271 6.61879
53.3267 6.48665
53.5265 6.41493
53.7264 6.2322
53.9266 6.14471
54.1269 6.06436
54.3274 5.9688
54.528 5.79852
54.7289 5.63902
54.9301 5.43864
55.1314 5.36355
55.3328 5.14091
55.5344 4.96422
55.7361 4.76311