Folder: NiFe_MOF_catalyst_paper/XRD (part 61)

File: Ni3Fe_FD0318.xy
TT I
1.27165 7.71853
1.45013 6.45048
1.62863 5.19633
1.80712 4.546
1.98562 4.46303
2.16411 4.85261
2.34263 4.5793
2.52115 5.27149
2.69965 7.06216
2.87818 9.0149
3.05672 11.0398
3.23527 15.1206
3.4138 19.1994
3.59237 24.2119
3.77094 26.5315
3.9495 30.2342
4.12809 35.778
4.30669 224.69
4.4853 67.2605
4.6639 57.0142
4.84253 69.5327
5.02118 90.9191
5.19981 513.709
5.37848 232.326
5.55716 105.991
5.73586 95.9431
5.91455 100.979
6.09328 3926.71
6.27201 87.5003
6.45075 69.8593
6.62952 65.0059
6.8083 60.3323
6.98711 57.3615
7.16591 57.1396
7.34475 94.8128
7.5236 56.173
7.70247 57.8245
7.88135 59.598
8.06026 64.1021
8.23919 71.7249
8.41812 89.2712
8.59709 1107.45
8.77609 105.602
8.9551 94.6914
9.13412 84.4811
9.31318 85.4121
9.49226 87.3523
9.67134 101.796
9.85047 103.758
10.0296 396.646
10.2088 501.829
10.388 109.389
10.5672 475.114
10.7465 89.3761
10.9257 80.7834
11.105 73.6922
11.2844 72.7296
11.4637 66.9675
11.6431 65.6092
11.8225 64.3668
12.002 66.0001
12.1814 147.771
12.3609 73.4358
12.5405 66.5711
12.72 72.4926
12.8996 73.2994
13.0792 81.7382
13.2589 232.984
13.4386 136.109
13.6183 234.874
13.7981 105.177
13.9779 78.1995
14.1577 74.6963
14.3376 74.0017
14.5175 71.1455
14.6974 72.9612
14.8774 114.331
15.0574 160.821
15.2374 73.5522
15.4175 68.503
15.5976 68.0873
15.7778 98.5701
15.958 170.727
16.1382 65.1551
16.3185 60.8632
16.4988 57.2758
16.6792 56.2161
16.8596 57.0068
17.04 57.7246
17.2205 68.4602
17.401 75.1451
17.5815 61.1929
17.7622 63.2857
17.9428 77.5432
18.1237 139.922
18.3044 90.7568
18.4852 81.8626
18.666 62.4698
18.8469 60.1119
19.0278 58.7771
19.2088 61.6925
19.3898 78.1845
19.5709 56.0002
19.752 55.1167
19.9332 58.4539
20.1144 71.4022
20.2957 64.5441
20.477 56.0903
20.6586 51.3525
20.84 50.3564
21.0215 50.264
21.203 52.08
21.3846 50.5308
21.5662 50.3903
21.7479 54.1639
21.9297 66.3461
22.1115 57.2247
22.2933 51.5545
22.4753 50.4915
22.6572 50.5802
22.8393 53.4217
23.0214 59.471
23.2037 50.4977
23.3859 51.5685
23.5682 57.6971
23.7505 50.2887
23.9329 46.8071
24.1154 45.3685
24.2979 44.9147
24.4805 44.2948
24.6631 44.2137
24.8458 43.6023
25.0286 44.2599
25.2114 46.0369
25.3943 46.2476
25.5773 42.2079
25.7605 41.7157
25.9436 42.1522
26.1268 43.0641
26.31 41.4744
26.4933 42.0125
26.6767 43.412
26.8601 41.7715
27.0437 40.2213
27.2272 39.737
27.4109 39.7282
27.5946 39.615
27.7784 39.106
27.9623 39.4951
28.1462 40.0458
28.3304 38.486
28.5145 37.2073
28.6987 36.751
28.8829 36.6041
29.0673 35.9858
29.2517 35.4753
29.4361 35.2626
29.6207 34.1763
29.8053 33.9798
29.99 33.5418
30.1748 33.5106
30.3597 33.3399
30.5447 33.2063
30.7297 33.2302
30.915 32.6021
31.1002 32.1196
31.2855 31.8167
31.4708 31.8051
31.6563 31.3407
31.8418 31.1942
32.0275 30.8932
32.2132 30.2353
32.399 29.9791
32.5848 29.3438
32.7708 28.9412
32.9569 28.9224
33.143 28.5918
33.3293 28.2616
33.5158 27.927
33.7022 27.5202
33.8887 27.1813
34.0753 26.8973
34.262 26.4976
34.4488 26.0871
34.6357 25.8272
34.8227 25.4645
35.0098 25.2543
35.1969 24.9717
35.3842 24.7228
35.5716 24.5511
35.759 24.0836
35.9468 23.8757
36.1345 23.5823
36.3222 23.3235
36.5101 23.1825
36.6981 22.8043
36.8861 22.5156
37.0743 22.1394
37.2626 21.9531
37.451 21.7013
37.6395 21.4279
37.8281 21.1928
38.0168 20.9032
38.2056 20.5705
38.3945 20.3283
38.5837 20.1145
38.7728 19.7914
38.9621 19.4865
39.1514 19.287
39.3409 19.0087
39.5304 18.8094
39.7201 18.5829
39.9099 18.3835
40.0999 18.1628
40.2899 17.9111
40.48 17.6878
40.6703 17.4773
40.8607 17.3066
41.0512 16.9936
41.242 16.7103
41.4327 16.5731
41.6236 16.3363
41.8146 16.1118
42.0057 15.9494
42.1969 15.6524
42.3882 15.5587
42.5797 15.2687
42.7713 15.1332
42.963 14.8641
43.1549 14.6983
43.3468 14.4577
43.5389 14.2586
43.7312 14.0386
43.9237 13.8726
44.1162 13.6738
44.3088 13.5013
44.5016 13.2736
44.6945 13.1203
44.8875 12.943
45.0806 12.7947
45.2739 12.5636
45.4673 12.4989
45.6609 12.2179
45.8546 12.0587
46.0484 11.8659
46.2424 11.728
46.4365 11.5425
46.631 11.3692
46.8254 11.2002
47.0199 11.0258
47.2146 10.874
47.4095 10.7183
47.6044 10.5756
47.7996 10.3858
47.9948 10.2801
48.1902 10.1283
48.3858 9.97362
48.5815 9.81599
48.7774 9.67867
48.9734 9.56466
49.1696 9.40151
49.3661 9.25244
49.5626 9.09092
49.7592 8.9799
49.956 8.84353
50.153 8.69614
50.3501 8.57409
50.5474 8.42457
50.7448 8.32085
50.9424 8.17225
51.1402 8.06207
51.3381 7.89921
51.5362 7.79297
51.7344 7.66064
51.9328 7.53618
52.1316 7.3923
52.3304 7.27355
52.5293 7.14477
52.7284 7.03439
52.9276 6.91707
53.1271 6.82485
53.3267 6.6904
53.5265 6.60015
53.7264 6.47016
53.9266 6.34015
54.1269 6.21106
54.3274 6.11199
54.528 6.02061
54.7289 5.82621
54.9301 5.64303
55.1314 5.50882
55.3328 5.33894
55.5344 5.13129
55.7361 5.00584

File: Ni3Fe_FD0319.xy
TT I
1.27165 7.95554
1.45013 6.62023
1.62863 5.28276
1.80712 4.70439
1.98562 4.42359
2.16411 5.26874
2.34263 5.59257
2.52115 6.10051
2.69965 7.38403
2.87818 8.44591
3.05672 11.2895
3.23527 14.8342
3.4138 19.3836
3.59237 24.7246
3.77094 26.3983
3.9495 30.4162
4.12809 35.5347
4.30669 219.016
4.4853 67.0385
4.6639 56.9916
4.84253 69.2607
5.02118 91.5435
5.19981 522.142
5.37848 231.395
5.55716 106.386
5.73586 96.0053
5.91455 101.592
6.09328 3914.6
6.27201 87.5296
6.45075 69.6987
6.62952 64.7889
6.8083 60.541
6.98711 57.517
7.16591 57.104
7.34475 92.9331
7.5236 56.2619
7.70247 57.9205
7.88135 59.5088
8.06026 64.0249
8.23919 71.6924
8.41812 89.6812
8.59709 1119.37
8.77609 105.141
8.9551 94.5895
9.13412 84.2105
9.31318 85.5071
9.49226 87.3685
9.67134 101.603
9.85047 104.043
10.0296 400.895
10.2088 496.376
10.388 109.52
10.5672 478.149
10.7465 89.6846
10.9257 80.6366
11.105 73.7339
11.2844 72.5019
11.4637 66.9439
11.6431 65.3852
11.8225 64.2361
12.002 66.047
12.1814 149.045
12.3609 73.1913
12.5405 66.4846
12.72 72.2401
12.8996 73.0703
13.0792 81.9127
13.2589 234.814
13.4386 135.785
13.6183 235.201
13.7981 104.173
13.9779 78.2007
14.1577 74.7524
14.3376 73.917
14.5175 71.0432
14.6974 72.8156
14.8774 114.658
15.0574 160.306
15.2374 73.5092
15.4175 68.6019
15.5976 68.0163
15.7778 99.0624
15.958 170.303
16.1382 64.7317
16.3185 60.5139
16.4988 57.2846
16.6792 56.3823
16.8596 57.0207
17.04 57.8295
17.2205 68.469
17.401 75.0241
17.5815 61.1772
17.7622 63.1581
17.9428 77.7678
18.1237 139.823
18.3044 90.765
18.4852 81.4715
18.666 62.3924
18.8469 59.8795
19.0278 58.7395
19.2088 61.7571
19.3898 77.8161
19.5709 56.0835
19.752 54.9091
19.9332 58.2605
20.1144 71.4142
20.2957 64.2552
20.477 55.9436
20.6586 51.4541
20.84 50.4691
21.0215 50.1812
21.203 52.2107
21.3846 50.7487
21.5662 50.5183
21.7479 54.4826
21.9297 66.3684
22.1115 57.3713
22.2933 51.6462
22.4753 50.5414
22.6572 50.638
22.8393 53.3763
23.0214 59.5388
23.2037 50.616
23.3859 51.3148
23.5682 57.6925
23.7505 50.2348
23.9329 46.7508
24.1154 45.6412
24.2979 44.8961
24.4805 44.3597
24.6631 44.3058
24.8458 43.7643
25.0286 44.2461
25.2114 45.9014
25.3943 46.0892
25.5773 42.3689
25.7605 41.8432
25.9436 42.0632
26.1268 42.9616
26.31 41.4318
26.4933 42.0334
26.6767 43.4182
26.8601 41.7482
27.0437 40.1637
27.2272 39.7646
27.4109 39.636
27.5946 39.727
27.7784 39.1018
27.9623 39.4784
28.1462 40.146
28.3304 38.4314
28.5145 37.1329
28.6987 36.7951
28.8829 36.5054
29.0673 35.7749
29.2517 35.3785
29.4361 35.2773
29.6207 34.2554
29.8053 33.905
29.99 33.55
30.1748 33.4864
30.3597 33.3289
30.5447 33.1861
30.7297 33.2739
30.915 32.6583
31.1002 32.0135
31.2855 31.8821
31.4708 31.7597
31.6563 31.3793
31.8418 31.1233
32.0275 30.8814
32.2132 30.296
32.399 29.9252
32.5848 29.3379
32.7708 29.0452
32.9569 28.8942
33.143 28.5018
33.3293 28.2752
33.5158 27.9071
33.7022 27.4564
33.8887 27.1832
34.0753 26.881
34.262 26.3658
34.4488 26.1061
34.6357 25.7672
34.8227 25.4529
35.0098 25.2991
35.1969 25.0052
35.3842 24.7132
35.5716 24.5113
35.759 24.2194
35.9468 23.8485
36.1345 23.6576
36.3222 23.4244
36.5101 23.0939
36.6981 22.7411
36.8861 22.4432
37.0743 22.198
37.2626 21.8886
37.451 21.677
37.6395 21.4828
37.8281 21.1271
38.0168 20.838
38.2056 20.6483
38.3945 20.2611
38.5837 20.0093
38.7728 19.7875
38.9621 19.5453
39.1514 19.2781
39.3409 19.0196
39.5304 18.8844
39.7201 18.6161
39.9099 18.3903
40.0999 18.2153
40.2899 17.9161
40.48 17.6997
40.6703 17.4886
40.8607 17.2441
41.0512 17.0722
41.242 16.753
41.4327 16.5343
41.6236 16.2743
41.8146 16.1154
42.0057 15.9079
42.1969 15.7066
42.3882 15.4574
42.5797 15.2474
42.7713 15.054
42.963 14.8201
43.1549 14.6457
43.3468 14.4501
43.5389 14.2458
43.7312 14.088
43.9237 13.8994
44.1162 13.6767
44.3088 13.5272
44.5016 13.2913
44.6945 13.1018
44.8875 12.9498
45.0806 12.7219
45.2739 12.5514
45.4673 12.4491
45.6609 12.2516
45.8546 12.1027
46.0484 11.9078
46.2424 11.6989
46.4365 11.5679
46.631 11.3576
46.8254 11.2109
47.0199 11.035
47.2146 10.913
47.4095 10.6859
47.6044 10.5416
47.7996 10.3862
47.9948 10.2408
48.1902 10.1115
48.3858 9.94766
48.5815 9.78344
48.7774 9.70193
48.9734 9.53827
49.1696 9.41129
49.3661 9.20297
49.5626 9.0932
49.7592 8.96281
49.956 8.80963
50.153 8.69374
50.3501 8.55107
50.5474 8.40785
50.7448 8.34725
50.9424 8.14652
51.1402 8.05345
51.3381 7.89533
51.5362 7.80916
51.7344 7.66305
51.9328 7.50768
52.1316 7.35371
52.3304 7.2698
52.5293 7.18742
52.7284 7.02705
52.9276 6.91572
53.1271 6.80992
53.3267 6.6784
53.5265 6.54809
53.7264 6.42554
53.9266 6.35716
54.1269 6.21714
54.3274 6.10484
54.528 6.00926
54.7289 5.79414
54.9301 5.65862
55.1314 5.50738
55.3328 5.28373
55.5344 5.06075
55.7361 4.97412

File: Ni3Fe_FD0320.xy
TT I
1.27165 7.67996
1.45013 6.11943
1.62863 5.41134
1.80712 5.3188
1.98562 4.94436
2.16411 4.58566
2.34263 5.06277
2.52115 5.58295
2.69965 7.26994
2.87818 8.71528
3.05672 11.0491
3.23527 14.8064
3.4138 19.4013
3.59237 24.4421
3.77094 26.3783
3.9495 30.0554
4.12809 35.4759
4.30669 215.009
4.4853 66.6091
4.6639 56.5144
4.84253 69.2726
5.02118 91.4553
5.19981 519.995
5.37848 232.499
5.55716 106.202
5.73586 95.7036
5.91455 101.208
6.09328 3967.61
6.27201 86.902
6.45075 69.3076
6.62952 64.58
6.8083 60.5299
6.98711 57.4233
7.16591 56.9728
7.34475 92.9821
7.5236 56.043
7.70247 58.0247
7.88135 59.6409
8.06026 64.1144
8.23919 71.5452
8.41812 88.7377
8.59709 1115.83
8.77609 105.071
8.9551 94.2037
9.13412 84.2181
9.31318 85.4979
9.49226 87.1223
9.67134 101.355
9.85047 103.352
10.0296 401.603
10.2088 498.249
10.388 109.163
10.5672 474.998
10.7465 89.5361
10.9257 80.5747
11.105 73.9168
11.2844 72.4131
11.4637 66.5515
11.6431 65.7451
11.8225 64.3471
12.002 65.7065
12.1814 148.3
12.3609 73.1587
12.5405 66.4255
12.72 71.9817
12.8996 73.1894
13.0792 81.5196
13.2589 235.185
13.4386 135.659
13.6183 235.581
13.7981 104.548
13.9779 78.1062
14.1577 74.7379
14.3376 73.9106
14.5175 71.0228
14.6974 72.6728
14.8774 115.229
15.0574 160.811
15.2374 73.1644
15.4175 68.3905
15.5976 68.0204
15.7778 99.5047
15.958 169.959
16.1382 64.7931
16.3185 60.4121
16.4988 57.1674
16.6792 56.2355
16.8596 56.9402
17.04 57.6647
17.2205 68.6355
17.401 74.7213
17.5815 61.1045
17.7622 63.2023
17.9428 77.863
18.1237 139.394
18.3044 90.9321
18.4852 81.5409
18.666 62.2388
18.8469 59.8602
19.0278 58.5701
19.2088 61.9272
19.3898 78.0148
19.5709 56.0198
19.752 54.9549
19.9332 58.1075
20.1144 71.1263
20.2957 64.5136
20.477 55.9229
20.6586 51.297
20.84 50.3769
21.0215 50.2189
21.203 52.1033
21.3846 50.7032
21.5662 50.2924
21.7479 54.3918
21.9297 66.4377
22.1115 57.4345
22.2933 51.6556
22.4753 50.4791
22.6572 50.4382
22.8393 53.5009
23.0214 59.275
23.2037 50.3315
23.3859 51.3589
23.5682 57.8256
23.7505 50.2434
23.9329 46.7116
24.1154 45.5132
24.2979 44.9114
24.4805 44.311
24.6631 44.2891
24.8458 43.517
25.0286 44.3133
25.2114 46.0511
25.3943 46.2146
25.5773 42.1648
25.7605 41.7576
25.9436 42.1496
26.1268 42.988
26.31 41.4836
26.4933 42.0674
26.6767 43.3858
26.8601 41.6073
27.0437 40.0798
27.2272 39.7645
27.4109 39.5437
27.5946 39.6158
27.7784 39.0804
27.9623 39.54
28.1462 40.0488
28.3304 38.4066
28.5145 37.1693
28.6987 36.706
28.8829 36.4892
29.0673 35.8428
29.2517 35.3285
29.4361 35.2608
29.6207 34.2448
29.8053 33.8927
29.99 33.5634
30.1748 33.4397
30.3597 33.2813
30.5447 33.0953
30.7297 33.277
30.915 32.6001
31.1002 32.1635
31.2855 31.8606
31.4708 31.8298
31.6563 31.2692
31.8418 30.9939
32.0275 30.8364
32.2132 30.2995
32.399 29.7962
32.5848 29.4209
32.7708 29.0575
32.9569 28.8118
33.143 28.7195
33.3293 28.2932
33.5158 27.8923
33.7022 27.4703
33.8887 27.0968
34.0753 26.7363
34.262 26.413
34.4488 26.0479
34.6357 25.6612
34.8227 25.4968
35.0098 25.2286
35.1969 24.9831
35.3842 24.7197
35.5716 24.5825
35.759 24.1744
35.9468 23.7769
36.1345 23.606
36.3222 23.3806
36.5101 23.1104
36.6981 22.8518
36.8861 22.4183
37.0743 22.2382
37.2626 21.8698
37.451 21.6728
37.6395 21.4602
37.8281 21.1324
38.0168 20.8349
38.2056 20.5716
38.3945 20.3103
38.5837 20.0351
38.7728 19.8122
38.9621 19.5353
39.1514 19.3089
39.3409 18.9754
39.5304 18.8127
39.7201 18.6191
39.9099 18.3594
40.0999 18.1794
40.2899 17.8691
40.48 17.6891
40.6703 17.4312
40.8607 17.21
41.0512 17.0183
41.242 16.763
41.4327 16.5559
41.6236 16.2886
41.8146 16.115
42.0057 15.8882
42.1969 15.707
42.3882 15.4916
42.5797 15.3233
42.7713 15.0493
42.963 14.8191
43.1549 14.7071
43.3468 14.4307
43.5389 14.2837
43.7312 14.0467
43.9237 13.8911
44.1162 13.633
44.3088 13.5306
44.5016 13.269
44.6945 13.1338
44.8875 12.9819
45.0806 12.712
45.2739 12.566
45.4673 12.3811
45.6609 12.2341
45.8546 12.0481
46.0484 11.8462
46.2424 11.7133
46.4365 11.5789
46.631 11.373
46.8254 11.212
47.0199 11.0401
47.2146 10.8746
47.4095 10.7096
47.6044 10.5952
47.7996 10.3695
47.9948 10.2413
48.1902 10.0835
48.3858 9.96159
48.5815 9.82553
48.7774 9.64254
48.9734 9.51452
49.1696 9.38384
49.3661 9.23097
49.5626 9.10124
49.7592 8.95692
49.956 8.815
50.153 8.67337
50.3501 8.55656
50.5474 8.3997
50.7448 8.25829
50.9424 8.17326
51.1402 8.05202
51.3381 7.91393
51.5362 7.73341
51.7344 7.64507
51.9328 7.51596
52.1316 7.3911
52.3304 7.26668
52.5293 7.14893
52.7284 7.00499
52.9276 6.91488
53.1271 6.81529
53.3267 6.70411
53.5265 6.59754
53.7264 6.46265
53.9266 6.36578
54.1269 6.18546
54.3274 6.11711
54.528 5.96645
54.7289 5.77425
54.9301 5.6653
55.1314 5.5184
55.3328 5.32608
55.5344 5.08936
55.7361 4.91065

File: Ni3Fe_FD0321.xy
TT I
1.27165 7.74222
1.45013 6.55697
1.62863 5.08279
1.80712 4.93974
1.98562 4.27903
2.16411 5.04501
2.34263 4.66349
2.52115 5.68299
2.69965 6.92313
2.87818 8.35536
3.05672 11.3957
3.23527 14.9954
3.4138 18.9219
3.59237 24.4331
3.77094 26.7888
3.9495 30.4851
4.12809 35.3887
4.30669 209.748
4.4853 65.6574
4.6639 56.9554
4.84253 69.2782
5.02118 91.0304
5.19981 522.795
5.37848 233.22
5.55716 106.158
5.73586 95.9378
5.91455 100.533
6.09328 3970.39
6.27201 86.3678
6.45075 69.5904
6.62952 64.2814
6.8083 60.2532
6.98711 57.451
7.16591 56.8743
7.34475 91.9516
7.5236 56.2255
7.70247 57.584
7.88135 59.5538
8.06026 63.9188
8.23919 71.675
8.41812 88.8253
8.59709 1126.28
8.77609 105.563
8.9551 94.3735
9.13412 84.2245
9.31318 85.3893
9.49226 87.1
9.67134 101.189
9.85047 103.384
10.0296 404.036
10.2088 499.812
10.388 109.048
10.5672 475.471
10.7465 89.5258
10.9257 80.6878
11.105 73.8568
11.2844 72.6019
11.4637 66.5582
11.6431 65.3688
11.8225 64.1801
12.002 66.1253
12.1814 148.474
12.3609 72.8854
12.5405 66.2777
12.72 72.1828
12.8996 73.0804
13.0792 81.8968
13.2589 235.383
13.4386 135.172
13.6183 235.917
13.7981 104.706
13.9779 78.2308
14.1577 74.6283
14.3376 73.607
14.5175 70.9084
14.6974 72.724
14.8774 115.111
15.0574 160.605
15.2374 73.1865
15.4175 68.4757
15.5976 67.946
15.7778 99.6864
15.958 170.273
16.1382 64.6184
16.3185 60.4053
16.4988 57.3526
16.6792 56.1907
16.8596 56.9133
17.04 57.6057
17.2205 68.5988
17.401 74.925
17.5815 60.984
17.7622 63.2074
17.9428 77.6785
18.1237 139.056
18.3044 90.8746
18.4852 81.5898
18.666 62.4218
18.8469 59.8399
19.0278 58.6302
19.2088 61.987
19.3898 77.9073
19.5709 55.8689
19.752 55.0607
19.9332 58.2284
20.1144 71.5032
20.2957 64.5461
20.477 55.9308
20.6586 51.3118
20.84 50.4152
21.0215 50.3106
21.203 52.3111
21.3846 50.5947
21.5662 50.6703
21.7479 54.3317
21.9297 66.3655
22.1115 57.2733
22.2933 51.6774
22.4753 50.4434
22.6572 50.6138
22.8393 53.4018
23.0214 59.4187
23.2037 50.4069
23.3859 51.4913
23.5682 57.6524
23.7505 50.0611
23.9329 46.6568
24.1154 45.5641
24.2979 44.8036
24.4805 44.3583
24.6631 44.3532
24.8458 43.771
25.0286 44.2494
25.2114 46.1068
25.3943 46.1521
25.5773 42.3064
25.7605 41.879
25.9436 42.1468
26.1268 43.1098
26.31 41.3911
26.4933 41.878
26.6767 43.4441
26.8601 41.7559
27.0437 40.0575
27.2272 39.7329
27.4109 39.6875
27.5946 39.4919
27.7784 39.1136
27.9623 39.4829
28.1462 39.9571
28.3304 38.3815
28.5145 37.1008
28.6987 36.7572
28.8829 36.5603
29.0673 35.7256
29.2517 35.3849
29.4361 35.2046
29.6207 34.2304
29.8053 33.9567
29.99 33.5869
30.1748 33.4326
30.3597 33.3249
30.5447 33.2138
30.7297 33.2401
30.915 32.6089
31.1002 32.0956
31.2855 31.7079
31.4708 31.7201
31.6563 31.3245
31.8418 31.0622
32.0275 30.8535
32.2132 30.4249
32.399 29.8301
32.5848 29.4492
32.7708 29.0427
32.9569 28.8645
33.143 28.6161
33.3293 28.3079
33.5158 27.8937
33.7022 27.3716
33.8887 27.0888
34.0753 26.8019
34.262 26.4777
34.4488 26.0657
34.6357 25.7632
34.8227 25.4295
35.0098 25.2793
35.1969 24.9897
35.3842 24.7912
35.5716 24.4958
35.759 24.2025
35.9468 23.8253
36.1345 23.6928
36.3222 23.3827
36.5101 23.1014
36.6981 22.8118
36.8861 22.4592
37.0743 22.1823
37.2626 21.9517
37.451 21.6768
37.6395 21.4834
37.8281 21.0898
38.0168 20.8313
38.2056 20.6012
38.3945 20.3057
38.5837 20.1045
38.7728 19.838
38.9621 19.5984
39.1514 19.2677
39.3409 19.0631
39.5304 18.8328
39.7201 18.6267
39.9099 18.3542
40.0999 18.2208
40.2899 17.8977
40.48 17.6322
40.6703 17.5348
40.8607 17.287
41.0512 17.0652
41.242 16.7733
41.4327 16.5462
41.6236 16.3097
41.8146 16.1576
42.0057 15.8958
42.1969 15.6942
42.3882 15.5264
42.5797 15.3122
42.7713 15.0587
42.963 14.9001
43.1549 14.7007
43.3468 14.4314
43.5389 14.2753
43.7312 14.0696
43.9237 13.8838
44.1162 13.7016
44.3088 13.4985
44.5016 13.2741
44.6945 13.1163
44.8875 12.9047
45.0806 12.735
45.2739 12.5694
45.4673 12.4249
45.6609 12.2265
45.8546 12.0458
46.0484 11.919
46.2424 11.6905
46.4365 11.5541
46.631 11.3705
46.8254 11.1749
47.0199 11.0227
47.2146 10.8867
47.4095 10.7194
47.6044 10.559
47.7996 10.3656
47.9948 10.2608
48.1902 10.1054
48.3858 9.95998
48.5815 9.81446
48.7774 9.68823
48.9734 9.52438
49.1696 9.37408
49.3661 9.20811
49.5626 9.07831
49.7592 8.95397
49.956 8.87974
50.153 8.6676
50.3501 8.56555
50.5474 8.43031
50.7448 8.33077
50.9424 8.19932
51.1402 8.03857
51.3381 7.89344
51.5362 7.78767
51.7344 7.65732
51.9328 7.50454
52.1316 7.38121
52.3304 7.26998
52.5293 7.19575
52.7284 7.04082
52.9276 6.89126
53.1271 6.83324
53.3267 6.71722
53.5265 6.56602
53.7264 6.48777
53.9266 6.35603
54.1269 6.24585
54.3274 6.13323
54.528 5.93391
54.7289 5.82555
54.9301 5.65665
55.1314 5.53886
55.3328 5.3117
55.5344 5.13517
55.7361 4.89018

File: Ni3Fe_FD0322.xy
TT I
1.27165 7.76701
1.45013 6.60104
1.62863 5.18727
1.80712 5.03128
1.98562 4.70626
2.16411 4.53747
2.34263 4.72361
2.52115 6.16286
2.69965 7.05835
2.87818 8.52604
3.05672 11.3096
3.23527 15.3146
3.4138 18.959
3.59237 24.2312
3.77094 26.6885
3.9495 30.3991
4.12809 35.2553
4.30669 202.948
4.4853 65.2551
4.6639 56.9443
4.84253 68.9615
5.02118 91.789
5.19981 532.269
5.37848 231.277
5.55716 106.548
5.73586 95.9873
5.91455 101.498
6.09328 3923.15
6.27201 87.3739
6.45075 69.6958
6.62952 64.881
6.8083 60.1819
6.98711 57.906
7.16591 57.0861
7.34475 89.6916
7.5236 56.4524
7.70247 57.8518
7.88135 59.6777
8.06026 64.409
8.23919 71.8366
8.41812 89.0762
8.59709 1135.93
8.77609 105.497
8.9551 93.7598
9.13412 84.7585
9.31318 85.8826
9.49226 87.4678
9.67134 101.424
9.85047 103.567
10.0296 408.03
10.2088 495.212
10.388 109.489
10.5672 479.345
10.7465 89.8106
10.9257 80.5904
11.105 74.0393
11.2844 72.6634
11.4637 66.9485
11.6431 65.5166
11.8225 64.6886
12.002 66.2466
12.1814 149.651
12.3609 72.8371
12.5405 66.5942
12.72 71.8698
12.8996 73.3482
13.0792 82.0628
13.2589 237.661
13.4386 134.551
13.6183 236.718
13.7981 104.067
13.9779 78.1982
14.1577 74.8182
14.3376 73.7569
14.5175 71.0943
14.6974 72.7384
14.8774 115.886
15.0574 159.251
15.2374 72.8107
15.4175 68.3015
15.5976 68.0912
15.7778 100.053
15.958 167.794
16.1382 64.7904
16.3185 60.7311
16.4988 57.3522
16.6792 56.2632
16.8596 57.1265
17.04 57.9062
17.2205 68.8149
17.401 74.5377
17.5815 61.2141
17.7622 63.2853
17.9428 77.8402
18.1237 139.629
18.3044 91.0584
18.4852 81.0072
18.666 62.313
18.8469 59.8493
19.0278 58.7612
19.2088 61.8369
19.3898 77.6179
19.5709 56.1566
19.752 55.0213
19.9332 58.4321
20.1144 71.2709
20.2957 64.49
20.477 55.6531
20.6586 51.077
20.84 50.3419
21.0215 50.3403
21.203 52.0935
21.3846 50.7796
21.5662 50.5119
21.7479 54.5018
21.9297 66.4534
22.1115 57.4378
22.2933 51.733
22.4753 50.5816
22.6572 50.6225
22.8393 53.3931
23.0214 59.2477
23.2037 50.4615
23.3859 51.51
23.5682 57.705
23.7505 50.1122
23.9329 46.734
24.1154 45.5276
24.2979 44.9145
24.4805 44.2291
24.6631 44.2216
24.8458 43.543
25.0286 44.3599
25.2114 45.973
25.3943 46.1581
25.5773 42.3342
25.7605 41.6243
25.9436 42.3153
26.1268 42.9329
26.31 41.5615
26.4933 41.9869
26.6767 43.4648
26.8601 41.7212
27.0437 40.1919
27.2272 39.8027
27.4109 39.619
27.5946 39.5553
27.7784 39.0728
27.9623 39.5249
28.1462 40.0445
28.3304 38.3835
28.5145 37.2605
28.6987 36.6635
28.8829 36.5033
29.0673 35.7609
29.2517 35.3778
29.4361 35.2135
29.6207 34.2263
29.8053 33.8728
29.99 33.6471
30.1748 33.4441
30.3597 33.3222
30.5447 33.1619
30.7297 33.2387
30.915 32.5679
31.1002 32.0573
31.2855 31.8705
31.4708 31.7004
31.6563 31.3212
31.8418 31.0997
32.0275 30.8726
32.2132 30.3825
32.399 29.9208
32.5848 29.3844
32.7708 29.0236
32.9569 28.9149
33.143 28.6419
33.3293 28.2654
33.5158 27.8691
33.7022 27.4644
33.8887 27.2389
34.0753 26.7352
34.262 26.5678
34.4488 26.092
34.6357 25.6559
34.8227 25.4701
35.0098 25.2647
35.1969 25.0011
35.3842 24.7301
35.5716 24.5962
35.759 24.1536
35.9468 23.8348
36.1345 23.5975
36.3222 23.3192
36.5101 23.1281
36.6981 22.827
36.8861 22.509
37.0743 22.2269
37.2626 21.9304
37.451 21.6702
37.6395 21.4228
37.8281 21.0851
38.0168 20.8292
38.2056 20.6396
38.3945 20.2778
38.5837 20.0839
38.7728 19.8734
38.9621 19.5238
39.1514 19.2803
39.3409 19.0453
39.5304 18.75
39.7201 18.5734
39.9099 18.4368
40.0999 18.1132
40.2899 17.9342
40.48 17.6034
40.6703 17.4906
40.8607 17.296
41.0512 17.0667
41.242 16.7892
41.4327 16.5663
41.6236 16.301
41.8146 16.1214
42.0057 15.8569
42.1969 15.7162
42.3882 15.5206
42.5797 15.2098
42.7713 15.1141
42.963 14.8993
43.1549 14.6182
43.3468 14.4134
43.5389 14.2634
43.7312 14.0215
43.9237 13.8923
44.1162 13.6841
44.3088 13.5153
44.5016 13.3049
44.6945 13.09
44.8875 12.9527
45.0806 12.7261
45.2739 12.5878
45.4673 12.4349
45.6609 12.2161
45.8546 12.0737
46.0484 11.8859
46.2424 11.7314
46.4365 11.5583
46.631 11.384
46.8254 11.2092
47.0199 11.0379
47.2146 10.9483
47.4095 10.7263
47.6044 10.5557
47.7996 10.4299
47.9948 10.2524
48.1902 10.0931
48.3858 9.95437
48.5815 9.82601
48.7774 9.67206
48.9734 9.52848
49.1696 9.40091
49.3661 9.20946
49.5626 9.09883
49.7592 8.93201
49.956 8.8465
50.153 8.73261
50.3501 8.51357
50.5474 8.36547
50.7448 8.29192
50.9424 8.18556
51.1402 8.06611
51.3381 7.9084
51.5362 7.80176
51.7344 7.62763
51.9328 7.52939
52.1316 7.40242
52.3304 7.28573
52.5293 7.18654
52.7284 7.02985
52.9276 6.93494
53.1271 6.82597
53.3267 6.67338
53.5265 6.57566
53.7264 6.48601
53.9266 6.34181
54.1269 6.20925
54.3274 6.14714
54.528 6.00359
54.7289 5.81995
54.9301 5.66804
55.1314 5.52489
55.3328 5.28548
55.5344 5.14368
55.7361 4.95592