Folder: NiFe_MOF_catalyst_paper/XRD (part 128)

File: Ni3Fe_FD0690.xy
TT I
1.27165 7.54492
1.45013 5.93994
1.62863 5.30228
1.80712 4.30239
1.98562 4.80914
2.16411 4.68366
2.34263 5.32928
2.52115 7.46186
2.69965 7.88933
2.87818 9.14911
3.05672 11.0873
3.23527 14.8005
3.4138 18.8983
3.59237 22.834
3.77094 26.0366
3.9495 29.1922
4.12809 34.4325
4.30669 126.09
4.4853 56.4528
4.6639 55.6426
4.84253 67.9225
5.02118 87.8125
5.19981 423.847
5.37848 191.684
5.55716 102.191
5.73586 92.7199
5.91455 95.901
6.09328 4564.03
6.27201 81.1666
6.45075 68.4642
6.62952 62.9326
6.8083 58.9236
6.98711 55.361
7.16591 55.78
7.34475 72.3377
7.5236 54.1011
7.70247 56.1067
7.88135 57.564
8.06026 62.4687
8.23919 69.6477
8.41812 84.4937
8.59709 1228.76
8.77609 98.2941
8.9551 89.5804
9.13412 82.532
9.31318 83.9327
9.49226 84.9193
9.67134 95.6404
9.85047 101.095
10.0296 367.374
10.2088 358.835
10.388 105.453
10.5672 514.465
10.7465 86.3832
10.9257 78.0632
11.105 71.537
11.2844 68.5994
11.4637 64.8146
11.6431 63.2849
11.8225 62.5529
12.002 64.5342
12.1814 155.491
12.3609 67.6216
12.5405 64.7335
12.72 68.4412
12.8996 71.2592
13.0792 80.201
13.2589 250.679
13.4386 120.232
13.6183 256.214
13.7981 93.6951
13.9779 76.06
14.1577 72.1062
14.3376 70.4317
14.5175 68.8622
14.6974 70.4423
14.8774 113.864
15.0574 140.368
15.2374 69.9349
15.4175 66.612
15.5976 66.1745
15.7778 97.1376
15.958 150.484
16.1382 61.6629
16.3185 57.9602
16.4988 55.3076
16.6792 54.4335
16.8596 55.0737
17.04 55.948
17.2205 67.2769
17.401 69.9021
17.5815 59.2827
17.7622 61.2996
17.9428 74.4968
18.1237 142.643
18.3044 91.7498
18.4852 75.2544
18.666 60.2281
18.8469 58.0514
19.0278 56.7843
19.2088 59.6571
19.3898 76.3219
19.5709 54.0555
19.752 53.2345
19.9332 56.2658
20.1144 69.8248
20.2957 64.2463
20.477 53.1123
20.6586 49.701
20.84 48.8221
21.0215 48.6781
21.203 50.9111
21.3846 48.945
21.5662 48.9557
21.7479 52.9858
21.9297 64.8066
22.1115 56.0643
22.2933 49.5945
22.4753 48.7409
22.6572 48.9398
22.8393 52.3093
23.0214 57.0191
23.2037 48.7508
23.3859 49.9527
23.5682 57.1487
23.7505 47.8494
23.9329 45.0794
24.1154 44.1038
24.2979 43.3195
24.4805 42.8117
24.6631 42.6189
24.8458 42.1491
25.0286 42.9067
25.2114 44.7212
25.3943 44.4513
25.5773 40.7803
25.7605 40.5127
25.9436 40.7459
26.1268 41.54
26.31 39.8899
26.4933 40.673
26.6767 42.2707
26.8601 40.302
27.0437 38.7986
27.2272 38.4981
27.4109 38.4098
27.5946 38.3142
27.7784 37.9275
27.9623 38.4845
28.1462 38.7761
28.3304 36.9748
28.5145 35.8959
28.6987 35.4796
28.8829 35.3966
29.0673 34.5671
29.2517 34.3467
29.4361 34.0412
29.6207 33.0518
29.8053 32.7515
29.99 32.5766
30.1748 32.4114
30.3597 32.3276
30.5447 32.1974
30.7297 32.2616
30.915 31.5467
31.1002 31.0917
31.2855 30.8797
31.4708 30.8229
31.6563 30.2964
31.8418 30.1919
32.0275 29.8235
32.2132 29.3843
32.399 28.8971
32.5848 28.3658
32.7708 28.1245
32.9569 27.9667
33.143 27.7765
33.3293 27.3847
33.5158 27.0273
33.7022 26.5548
33.8887 26.2122
34.0753 26.0233
34.262 25.5525
34.4488 25.2969
34.6357 24.8658
34.8227 24.6733
35.0098 24.4015
35.1969 24.1368
35.3842 24.0463
35.5716 23.8391
35.759 23.3523
35.9468 23.1033
36.1345 22.8232
36.3222 22.6797
36.5101 22.3702
36.6981 22.1061
36.8861 21.7795
37.0743 21.4335
37.2626 21.1779
37.451 20.9938
37.6395 20.7699
37.8281 20.4057
38.0168 20.1562
38.2056 19.9071
38.3945 19.6469
38.5837 19.3879
38.7728 19.1449
38.9621 18.9339
39.1514 18.6916
39.3409 18.4467
39.5304 18.2392
39.7201 18.0721
39.9099 17.8042
40.0999 17.554
40.2899 17.4094
40.48 17.0885
40.6703 16.9045
40.8607 16.7356
41.0512 16.4647
41.242 16.2465
41.4327 16.0291
41.6236 15.8777
41.8146 15.6542
42.0057 15.4585
42.1969 15.1328
42.3882 14.9904
42.5797 14.8433
42.7713 14.5902
42.963 14.41
43.1549 14.1967
43.3468 13.9586
43.5389 13.7991
43.7312 13.5951
43.9237 13.4617
44.1162 13.2504
44.3088 13.0561
44.5016 12.8788
44.6945 12.6754
44.8875 12.5009
45.0806 12.3371
45.2739 12.1482
45.4673 12.0446
45.6609 11.7992
45.8546 11.6646
46.0484 11.4937
46.2424 11.3391
46.4365 11.1924
46.631 11.0115
46.8254 10.8597
47.0199 10.6906
47.2146 10.5397
47.4095 10.3498
47.6044 10.2336
47.7996 10.0664
47.9948 9.90566
48.1902 9.78772
48.3858 9.61279
48.5815 9.51809
48.7774 9.39144
48.9734 9.22168
49.1696 9.0713
49.3661 8.94135
49.5626 8.78147
49.7592 8.68025
49.956 8.52815
50.153 8.40351
50.3501 8.29432
50.5474 8.16572
50.7448 8.04991
50.9424 7.91125
51.1402 7.80262
51.3381 7.65373
51.5362 7.55016
51.7344 7.42695
51.9328 7.28786
52.1316 7.12871
52.3304 7.06698
52.5293 6.94167
52.7284 6.82929
52.9276 6.73215
53.1271 6.58082
53.3267 6.47533
53.5265 6.38242
53.7264 6.27487
53.9266 6.15972
54.1269 6.03087
54.3274 5.94964
54.528 5.81115
54.7289 5.63837
54.9301 5.48373
55.1314 5.33919
55.3328 5.14394
55.5344 4.9454
55.7361 4.83005

File: Ni3Fe_FD0691.xy
TT I
1.27165 6.87908
1.45013 6.23965
1.62863 5.20724
1.80712 4.74333
1.98562 4.98623
2.16411 4.5746
2.34263 4.98403
2.52115 7.02035
2.69965 8.3492
2.87818 8.9197
3.05672 11.0483
3.23527 15.1733
3.4138 18.8361
3.59237 23.0364
3.77094 25.809
3.9495 29.7397
4.12809 34.2714
4.30669 125.049
4.4853 55.6506
4.6639 55.7618
4.84253 68.5014
5.02118 87.5876
5.19981 425.513
5.37848 192.177
5.55716 102.072
5.73586 92.7673
5.91455 95.474
6.09328 4596.0
6.27201 80.4191
6.45075 68.6898
6.62952 62.3871
6.8083 58.897
6.98711 55.707
7.16591 55.9311
7.34475 72.1106
7.5236 54.3921
7.70247 56.4026
7.88135 57.5897
8.06026 62.7197
8.23919 69.5423
8.41812 84.312
8.59709 1238.13
8.77609 98.1671
8.9551 89.6102
9.13412 82.4125
9.31318 83.8664
9.49226 84.8291
9.67134 95.5027
9.85047 101.008
10.0296 366.556
10.2088 359.749
10.388 105.2
10.5672 514.653
10.7465 86.4576
10.9257 77.9572
11.105 71.4532
11.2844 68.9411
11.4637 64.6613
11.6431 63.339
11.8225 62.634
12.002 64.5164
12.1814 154.127
12.3609 67.6466
12.5405 64.4282
12.72 68.3004
12.8996 71.2338
13.0792 80.3314
13.2589 250.063
13.4386 120.2
13.6183 255.88
13.7981 93.6083
13.9779 76.0566
14.1577 72.0235
14.3376 70.3429
14.5175 68.7671
14.6974 70.5308
14.8774 113.786
15.0574 140.548
15.2374 69.9219
15.4175 66.3684
15.5976 66.2442
15.7778 97.0061
15.958 150.15
16.1382 61.6547
16.3185 58.0414
16.4988 55.372
16.6792 54.4445
16.8596 54.9235
17.04 56.1514
17.2205 67.5748
17.401 69.8897
17.5815 59.2111
17.7622 61.2451
17.9428 74.4779
18.1237 142.505
18.3044 91.3874
18.4852 75.3509
18.666 60.1415
18.8469 57.987
19.0278 56.6858
19.2088 59.3939
19.3898 76.0722
19.5709 54.0909
19.752 53.2382
19.9332 56.4283
20.1144 69.9405
20.2957 64.1956
20.477 52.9856
20.6586 49.5861
20.84 48.7115
21.0215 48.5725
21.203 50.8323
21.3846 48.7422
21.5662 49.1234
21.7479 52.8847
21.9297 64.883
22.1115 56.05
22.2933 49.6033
22.4753 48.6555
22.6572 48.9847
22.8393 52.0544
23.0214 57.135
23.2037 48.8004
23.3859 49.6594
23.5682 57.4494
23.7505 47.8652
23.9329 45.1596
24.1154 43.9964
24.2979 43.4173
24.4805 42.7822
24.6631 42.7339
24.8458 42.1902
25.0286 43.0308
25.2114 44.6224
25.3943 44.5488
25.5773 40.8333
25.7605 40.3548
25.9436 40.7926
26.1268 41.5962
26.31 40.0563
26.4933 40.6985
26.6767 42.1765
26.8601 40.2917
27.0437 38.9447
27.2272 38.5831
27.4109 38.2965
27.5946 38.2841
27.7784 37.906
27.9623 38.548
28.1462 38.8392
28.3304 37.0329
28.5145 35.9676
28.6987 35.6516
28.8829 35.3729
29.0673 34.5863
29.2517 34.3972
29.4361 34.08
29.6207 33.1057
29.8053 32.7906
29.99 32.6057
30.1748 32.4691
30.3597 32.1618
30.5447 32.2403
30.7297 32.1347
30.915 31.5763
31.1002 31.0865
31.2855 30.8444
31.4708 30.8668
31.6563 30.3436
31.8418 30.1387
32.0275 29.8337
32.2132 29.3748
32.399 28.819
32.5848 28.401
32.7708 28.1067
32.9569 27.9642
33.143 27.7469
33.3293 27.4409
33.5158 27.0405
33.7022 26.5097
33.8887 26.2912
34.0753 25.9372
34.262 25.5959
34.4488 25.2162
34.6357 24.9774
34.8227 24.6139
35.0098 24.5182
35.1969 24.1151
35.3842 23.9693
35.5716 23.7014
35.759 23.3687
35.9468 23.0889
36.1345 22.9891
36.3222 22.5757
36.5101 22.358
36.6981 22.1133
36.8861 21.7913
37.0743 21.5397
37.2626 21.2615
37.451 20.9466
37.6395 20.8159
37.8281 20.4454
38.0168 20.1583
38.2056 19.9384
38.3945 19.6282
38.5837 19.4539
38.7728 19.1578
38.9621 18.9228
39.1514 18.7302
39.3409 18.4504
39.5304 18.2391
39.7201 18.0912
39.9099 17.8193
40.0999 17.5563
40.2899 17.3154
40.48 17.0484
40.6703 16.8877
40.8607 16.7266
41.0512 16.5195
41.242 16.2624
41.4327 16.0639
41.6236 15.8137
41.8146 15.6657
42.0057 15.3794
42.1969 15.1965
42.3882 14.9912
42.5797 14.7883
42.7713 14.6107
42.963 14.4079
43.1549 14.1903
43.3468 14.0494
43.5389 13.8311
43.7312 13.6144
43.9237 13.4385
44.1162 13.2643
44.3088 13.0301
44.5016 12.8225
44.6945 12.6892
44.8875 12.5716
45.0806 12.3814
45.2739 12.1947
45.4673 12.0601
45.6609 11.8633
45.8546 11.6674
46.0484 11.4874
46.2424 11.3624
46.4365 11.1637
46.631 11.0096
46.8254 10.8484
47.0199 10.7219
47.2146 10.5185
47.4095 10.3528
47.6044 10.2007
47.7996 10.0692
47.9948 9.90728
48.1902 9.78369
48.3858 9.66896
48.5815 9.52838
48.7774 9.36429
48.9734 9.25582
49.1696 9.09596
49.3661 8.95479
49.5626 8.8039
49.7592 8.73544
49.956 8.52644
50.153 8.42087
50.3501 8.24645
50.5474 8.18362
50.7448 8.04785
50.9424 7.92041
51.1402 7.78124
51.3381 7.65114
51.5362 7.53423
51.7344 7.44724
51.9328 7.29073
52.1316 7.17013
52.3304 7.0345
52.5293 6.9518
52.7284 6.83414
52.9276 6.67401
53.1271 6.62036
53.3267 6.45799
53.5265 6.37545
53.7264 6.29237
53.9266 6.15175
54.1269 6.01812
54.3274 5.92388
54.528 5.80685
54.7289 5.54229
54.9301 5.44395
55.1314 5.36072
55.3328 5.15992
55.5344 4.95748
55.7361 4.8003

File: Ni3Fe_FD0692.xy
TT I
1.27165 7.44926
1.45013 6.11374
1.62863 5.38988
1.80712 4.33608
1.98562 5.22623
2.16411 4.63745
2.34263 5.53746
2.52115 6.71857
2.69965 8.11402
2.87818 8.86196
3.05672 11.0096
3.23527 14.8146
3.4138 19.1137
3.59237 23.3285
3.77094 25.7194
3.9495 29.8542
4.12809 33.9103
4.30669 122.629
4.4853 55.9505
4.6639 55.8058
4.84253 67.8979
5.02118 87.3163
5.19981 425.072
5.37848 192.842
5.55716 102.16
5.73586 92.6789
5.91455 95.7186
6.09328 4576.16
6.27201 80.886
6.45075 68.2738
6.62952 62.5789
6.8083 58.5629
6.98711 55.5247
7.16591 55.335
7.34475 71.6938
7.5236 54.2596
7.70247 56.478
7.88135 57.7763
8.06026 62.3507
8.23919 69.6595
8.41812 84.396
8.59709 1237.1
8.77609 98.5954
8.9551 89.5335
9.13412 82.619
9.31318 83.7274
9.49226 84.5971
9.67134 95.4295
9.85047 100.946
10.0296 365.274
10.2088 360.639
10.388 105.41
10.5672 514.741
10.7465 85.9899
10.9257 77.4694
11.105 71.4812
11.2844 68.8103
11.4637 64.5163
11.6431 63.0351
11.8225 62.7348
12.002 64.2231
12.1814 155.47
12.3609 67.3196
12.5405 64.7433
12.72 68.3008
12.8996 71.2469
13.0792 80.0485
13.2589 247.705
13.4386 120.024
13.6183 257.145
13.7981 93.7841
13.9779 75.8125
14.1577 71.7702
14.3376 70.4859
14.5175 68.8456
14.6974 70.6005
14.8774 113.69
15.0574 140.306
15.2374 69.5708
15.4175 66.356
15.5976 65.9867
15.7778 96.9487
15.958 150.134
16.1382 61.4005
16.3185 57.9665
16.4988 55.2951
16.6792 54.3743
16.8596 54.8688
17.04 56.1834
17.2205 67.475
17.401 70.0763
17.5815 59.1441
17.7622 61.3101
17.9428 74.3613
18.1237 142.154
18.3044 91.1474
18.4852 75.4432
18.666 60.1876
18.8469 58.0768
19.0278 56.7582
19.2088 59.3114
19.3898 76.1756
19.5709 53.9607
19.752 53.0999
19.9332 56.2985
20.1144 69.7086
20.2957 63.9763
20.477 52.9302
20.6586 49.3798
20.84 48.6384
21.0215 48.6477
21.203 50.8873
21.3846 48.8094
21.5662 48.8776
21.7479 52.8375
21.9297 64.6933
22.1115 55.842
22.2933 49.527
22.4753 48.7373
22.6572 49.0336
22.8393 52.1842
23.0214 57.1739
23.2037 48.6986
23.3859 49.9026
23.5682 57.3732
23.7505 47.8269
23.9329 45.1473
24.1154 43.9343
24.2979 43.3449
24.4805 42.8404
24.6631 42.6094
24.8458 42.2269
25.0286 42.9896
25.2114 44.7221
25.3943 44.4744
25.5773 40.7804
25.7605 40.2559
25.9436 40.6983
26.1268 41.6104
26.31 40.0282
26.4933 40.8595
26.6767 42.1861
26.8601 40.2935
27.0437 38.6859
27.2272 38.5742
27.4109 38.3778
27.5946 38.4296
27.7784 37.7764
27.9623 38.4152
28.1462 38.7571
28.3304 37.0084
28.5145 35.7406
28.6987 35.615
28.8829 35.3288
29.0673 34.613
29.2517 34.2766
29.4361 34.1176
29.6207 32.9961
29.8053 32.7226
29.99 32.5152
30.1748 32.5011
30.3597 32.2199
30.5447 32.115
30.7297 32.1339
30.915 31.508
31.1002 31.1012
31.2855 30.8604
31.4708 30.7655
31.6563 30.1774
31.8418 30.0263
32.0275 29.9731
32.2132 29.2729
32.399 28.8305
32.5848 28.3457
32.7708 28.1305
32.9569 27.8807
33.143 27.7378
33.3293 27.3583
33.5158 26.9317
33.7022 26.4849
33.8887 26.1975
34.0753 25.9097
34.262 25.6787
34.4488 25.2154
34.6357 24.8924
34.8227 24.6553
35.0098 24.5509
35.1969 24.1512
35.3842 23.9111
35.5716 23.7017
35.759 23.456
35.9468 23.0931
36.1345 22.8821
36.3222 22.6558
36.5101 22.4323
36.6981 22.0935
36.8861 21.8261
37.0743 21.5052
37.2626 21.2513
37.451 20.9943
37.6395 20.806
37.8281 20.4031
38.0168 20.1852
38.2056 19.9534
38.3945 19.6153
38.5837 19.393
38.7728 19.1199
38.9621 18.9274
39.1514 18.667
39.3409 18.4344
39.5304 18.1992
39.7201 17.9963
39.9099 17.8203
40.0999 17.529
40.2899 17.2929
40.48 17.0349
40.6703 16.9216
40.8607 16.673
41.0512 16.4935
41.242 16.2427
41.4327 16.0297
41.6236 15.7748
41.8146 15.62
42.0057 15.4058
42.1969 15.1275
42.3882 14.9728
42.5797 14.7413
42.7713 14.6712
42.963 14.371
43.1549 14.1584
43.3468 14.0375
43.5389 13.7951
43.7312 13.5972
43.9237 13.4492
44.1162 13.2235
44.3088 13.0425
44.5016 12.8778
44.6945 12.6896
44.8875 12.4999
45.0806 12.3249
45.2739 12.1671
45.4673 11.9836
45.6609 11.7974
45.8546 11.6766
46.0484 11.5239
46.2424 11.3435
46.4365 11.1762
46.631 10.9807
46.8254 10.8343
47.0199 10.6858
47.2146 10.5356
47.4095 10.3694
47.6044 10.216
47.7996 10.0951
47.9948 9.93135
48.1902 9.76769
48.3858 9.65242
48.5815 9.52106
48.7774 9.41164
48.9734 9.22647
49.1696 9.07333
49.3661 8.93883
49.5626 8.77185
49.7592 8.64494
49.956 8.56586
50.153 8.41211
50.3501 8.295
50.5474 8.17226
50.7448 8.05739
50.9424 7.91649
51.1402 7.78694
51.3381 7.65448
51.5362 7.53377
51.7344 7.42523
51.9328 7.28172
52.1316 7.18336
52.3304 7.06246
52.5293 6.93394
52.7284 6.83857
52.9276 6.70427
53.1271 6.62545
53.3267 6.49976
53.5265 6.343
53.7264 6.28279
53.9266 6.16604
54.1269 6.06348
54.3274 5.95339
54.528 5.78033
54.7289 5.62495
54.9301 5.46749
55.1314 5.34897
55.3328 5.12017
55.5344 4.93449
55.7361 4.8014

File: Ni3Fe_FD0693.xy
TT I
1.27165 7.1019
1.45013 5.48228
1.62863 4.9383
1.80712 4.73771
1.98562 4.7521
2.16411 4.63753
2.34263 5.13117
2.52115 6.47001
2.69965 7.92674
2.87818 8.69966
3.05672 10.8073
3.23527 15.3865
3.4138 18.4446
3.59237 22.8724
3.77094 25.9942
3.9495 29.5124
4.12809 34.4403
4.30669 121.066
4.4853 55.9202
4.6639 55.271
4.84253 68.0158
5.02118 87.4784
5.19981 426.961
5.37848 191.683
5.55716 102.379
5.73586 93.0461
5.91455 95.6853
6.09328 4587.71
6.27201 80.9228
6.45075 68.6979
6.62952 62.1152
6.8083 58.7622
6.98711 55.4088
7.16591 55.7018
7.34475 71.1835
7.5236 54.4623
7.70247 56.1962
7.88135 57.5461
8.06026 62.5822
8.23919 69.4304
8.41812 84.7309
8.59709 1240.59
8.77609 98.4597
8.9551 89.0382
9.13412 82.6926
9.31318 84.0843
9.49226 84.769
9.67134 95.7622
9.85047 100.586
10.0296 366.581
10.2088 358.988
10.388 105.355
10.5672 514.87
10.7465 86.1004
10.9257 77.6997
11.105 71.4497
11.2844 68.6407
11.4637 64.809
11.6431 63.4263
11.8225 62.4962
12.002 64.2439
12.1814 155.924
12.3609 67.3952
12.5405 64.6297
12.72 68.1048
12.8996 71.5376
13.0792 80.3769
13.2589 248.278
13.4386 120.189
13.6183 257.354
13.7981 93.6209
13.9779 75.8122
14.1577 71.7822
14.3376 70.7974
14.5175 68.8714
14.6974 70.6933
14.8774 114.013
15.0574 140.238
15.2374 69.6071
15.4175 66.4586
15.5976 66.0449
15.7778 96.8793
15.958 150.048
16.1382 61.465
16.3185 58.0071
16.4988 55.4351
16.6792 54.3326
16.8596 55.0862
17.04 56.0117
17.2205 67.4475
17.401 69.7332
17.5815 59.1131
17.7622 61.3645
17.9428 74.3473
18.1237 142.264
18.3044 91.4218
18.4852 75.3064
18.666 60.1646
18.8469 58.0056
19.0278 56.589
19.2088 59.3624
19.3898 76.0938
19.5709 54.0954
19.752 53.2304
19.9332 56.3186
20.1144 69.8522
20.2957 64.1416
20.477 52.8448
20.6586 49.5337
20.84 48.7594
21.0215 48.5425
21.203 50.8029
21.3846 48.7924
21.5662 48.9767
21.7479 52.851
21.9297 64.7031
22.1115 56.0741
22.2933 49.624
22.4753 48.7597
22.6572 48.8193
22.8393 52.2527
23.0214 57.1386
23.2037 48.7308
23.3859 49.7777
23.5682 57.2971
23.7505 47.8587
23.9329 45.1572
24.1154 43.9402
24.2979 43.2015
24.4805 42.7795
24.6631 42.6342
24.8458 42.2358
25.0286 42.8868
25.2114 44.67
25.3943 44.3664
25.5773 40.7513
25.7605 40.4076
25.9436 40.911
26.1268 41.6441
26.31 40.0732
26.4933 40.6793
26.6767 42.1594
26.8601 40.2885
27.0437 38.7655
27.2272 38.4465
27.4109 38.3823
27.5946 38.3687
27.7784 37.7671
27.9623 38.3797
28.1462 38.6607
28.3304 37.1256
28.5145 35.9455
28.6987 35.5534
28.8829 35.3537
29.0673 34.5537
29.2517 34.3293
29.4361 33.9886
29.6207 33.0331
29.8053 32.8845
29.99 32.6033
30.1748 32.5023
30.3597 32.1838
30.5447 32.1677
30.7297 32.1964
30.915 31.5301
31.1002 31.092
31.2855 30.8222
31.4708 30.7953
31.6563 30.2506
31.8418 30.0682
32.0275 29.8473
32.2132 29.3008
32.399 28.8372
32.5848 28.4036
32.7708 28.1286
32.9569 27.9395
33.143 27.7348
33.3293 27.3347
33.5158 26.9949
33.7022 26.5505
33.8887 26.2445
34.0753 25.8881
34.262 25.6285
34.4488 25.2249
34.6357 24.9362
34.8227 24.7528
35.0098 24.4577
35.1969 24.1671
35.3842 23.9453
35.5716 23.7087
35.759 23.3182
35.9468 23.0676
36.1345 22.8706
36.3222 22.6047
36.5101 22.3986
36.6981 22.1025
36.8861 21.7777
37.0743 21.4392
37.2626 21.2241
37.451 20.919
37.6395 20.8015
37.8281 20.4388
38.0168 20.1579
38.2056 20.0259
38.3945 19.6324
38.5837 19.3679
38.7728 19.1919
38.9621 18.8873
39.1514 18.6733
39.3409 18.4386
39.5304 18.305
39.7201 18.0187
39.9099 17.8496
40.0999 17.5001
40.2899 17.2974
40.48 17.1192
40.6703 16.8427
40.8607 16.7105
41.0512 16.4691
41.242 16.2167
41.4327 16.0485
41.6236 15.7823
41.8146 15.5965
42.0057 15.4114
42.1969 15.2093
42.3882 15.0288
42.5797 14.8061
42.7713 14.6342
42.963 14.3774
43.1549 14.2358
43.3468 14.0016
43.5389 13.813
43.7312 13.5791
43.9237 13.4099
44.1162 13.2515
44.3088 13.0312
44.5016 12.848
44.6945 12.696
44.8875 12.5061
45.0806 12.3015
45.2739 12.1664
45.4673 11.9759
45.6609 11.8217
45.8546 11.6396
46.0484 11.5106
46.2424 11.3373
46.4365 11.1664
46.631 11.0129
46.8254 10.8249
47.0199 10.6856
47.2146 10.5072
47.4095 10.3775
47.6044 10.2264
47.7996 10.0438
47.9948 9.86686
48.1902 9.77875
48.3858 9.65726
48.5815 9.50479
48.7774 9.35106
48.9734 9.1903
49.1696 9.1122
49.3661 8.90618
49.5626 8.78541
49.7592 8.68511
49.956 8.51974
50.153 8.42742
50.3501 8.25841
50.5474 8.18878
50.7448 8.05402
50.9424 7.89851
51.1402 7.78633
51.3381 7.65285
51.5362 7.51956
51.7344 7.41296
51.9328 7.30038
52.1316 7.16698
52.3304 7.02545
52.5293 6.93988
52.7284 6.83986
52.9276 6.74034
53.1271 6.62271
53.3267 6.49613
53.5265 6.37735
53.7264 6.28905
53.9266 6.17013
54.1269 6.05081
54.3274 5.96579
54.528 5.7364
54.7289 5.62754
54.9301 5.44097
55.1314 5.38014
55.3328 5.09483
55.5344 4.98015
55.7361 4.80807

File: Ni3Fe_FD0694.xy
TT I
1.27165 7.27754
1.45013 5.7602
1.62863 5.23649
1.80712 4.48355
1.98562 5.02765
2.16411 4.6935
2.34263 4.77135
2.52115 6.67423
2.69965 7.92105
2.87818 8.72983
3.05672 10.9206
3.23527 14.8255
3.4138 19.1748
3.59237 22.8245
3.77094 25.5367
3.9495 29.5554
4.12809 33.936
4.30669 118.676
4.4853 55.4526
4.6639 55.7813
4.84253 68.0889
5.02118 87.9615
5.19981 431.321
5.37848 191.859
5.55716 102.3
5.73586 92.6496
5.91455 96.4921
6.09328 4615.77
6.27201 81.1556
6.45075 68.7232
6.62952 62.7742
6.8083 58.8681
6.98711 55.6933
7.16591 55.779
7.34475 70.6876
7.5236 54.1891
7.70247 56.4742
7.88135 57.5485
8.06026 62.8134
8.23919 69.8329
8.41812 84.5336
8.59709 1242.76
8.77609 98.4034
8.9551 89.4715
9.13412 82.6232
9.31318 84.4056
9.49226 85.224
9.67134 95.5853
9.85047 101.609
10.0296 367.511
10.2088 354.56
10.388 105.855
10.5672 513.697
10.7465 86.3351
10.9257 77.9892
11.105 71.5481
11.2844 68.7632
11.4637 64.8737
11.6431 63.3699
11.8225 62.4423
12.002 64.5635
12.1814 154.588
12.3609 67.3849
12.5405 64.6642
12.72 68.3233
12.8996 71.2833
13.0792 80.367
13.2589 251.2
13.4386 119.831
13.6183 256.555
13.7981 93.6186
13.9779 75.674
14.1577 71.9637
14.3376 70.7083
14.5175 69.0234
14.6974 70.924
14.8774 114.273
15.0574 139.593
15.2374 69.6772
15.4175 66.2713
15.5976 65.881
15.7778 97.1767
15.958 148.71
16.1382 61.491
16.3185 57.7237
16.4988 55.4047
16.6792 54.3096
16.8596 54.887
17.04 56.2529
17.2205 67.5622
17.401 69.7342
17.5815 59.0652
17.7622 61.4926
17.9428 74.6422
18.1237 141.562
18.3044 91.3208
18.4852 74.9572
18.666 60.0508
18.8469 57.8633
19.0278 56.8808
19.2088 59.178
19.3898 75.9815
19.5709 54.0534
19.752 53.2933
19.9332 56.2768
20.1144 69.8256
20.2957 64.1003
20.477 52.9658
20.6586 49.5736
20.84 48.6272
21.0215 48.5504
21.203 50.9067
21.3846 48.8358
21.5662 49.0075
21.7479 53.0309
21.9297 64.6259
22.1115 56.0223
22.2933 49.5514
22.4753 48.8409
22.6572 48.9836
22.8393 52.2377
23.0214 56.9989
23.2037 48.6573
23.3859 50.1126
23.5682 57.219
23.7505 47.825
23.9329 45.1664
24.1154 44.023
24.2979 43.3783
24.4805 42.8158
24.6631 42.7893
24.8458 42.1231
25.0286 42.7521
25.2114 44.544
25.3943 44.4387
25.5773 40.6787
25.7605 40.4365
25.9436 40.7631
26.1268 41.5722
26.31 40.0503
26.4933 40.6257
26.6767 42.1393
26.8601 40.405
27.0437 38.8188
27.2272 38.4938
27.4109 38.3652
27.5946 38.2221
27.7784 37.8543
27.9623 38.5183
28.1462 38.8192
28.3304 37.1214
28.5145 35.8381
28.6987 35.5754
28.8829 35.3146
29.0673 34.5296
29.2517 34.2768
29.4361 34.12
29.6207 33.0621
29.8053 32.8673
29.99 32.4666
30.1748 32.3807
30.3597 32.1898
30.5447 32.1802
30.7297 32.1867
30.915 31.5365
31.1002 31.049
31.2855 30.8173
31.4708 30.714
31.6563 30.2879
31.8418 30.1765
32.0275 29.9
32.2132 29.3397
32.399 28.8726
32.5848 28.4872
32.7708 28.1506
32.9569 27.9615
33.143 27.8231
33.3293 27.3618
33.5158 26.9297
33.7022 26.6147
33.8887 26.2125
34.0753 26.0292
34.262 25.5568
34.4488 25.1989
34.6357 24.9243
34.8227 24.6157
35.0098 24.4768
35.1969 24.1016
35.3842 23.9533
35.5716 23.6818
35.759 23.4032
35.9468 23.0389
36.1345 22.8871
36.3222 22.5646
36.5101 22.4029
36.6981 22.0656
36.8861 21.7142
37.0743 21.5139
37.2626 21.2937
37.451 20.9384
37.6395 20.8228
37.8281 20.4019
38.0168 20.1676
38.2056 19.9554
38.3945 19.6727
38.5837 19.459
38.7728 19.1766
38.9621 18.8973
39.1514 18.7005
39.3409 18.4339
39.5304 18.2452
39.7201 17.9555
39.9099 17.7878
40.0999 17.555
40.2899 17.3239
40.48 17.0348
40.6703 16.8726
40.8607 16.7501
41.0512 16.5094
41.242 16.2022
41.4327 16.0375
41.6236 15.8562
41.8146 15.6241
42.0057 15.3831
42.1969 15.2281
42.3882 14.9702
42.5797 14.8283
42.7713 14.5828
42.963 14.4474
43.1549 14.2032
43.3468 13.9647
43.5389 13.8237
43.7312 13.6207
43.9237 13.48
44.1162 13.2607
44.3088 13.0604
44.5016 12.8846
44.6945 12.7029
44.8875 12.4852
45.0806 12.3647
45.2739 12.1613
45.4673 11.9841
45.6609 11.8151
45.8546 11.6835
46.0484 11.5732
46.2424 11.3495
46.4365 11.1877
46.631 11.0176
46.8254 10.8145
47.0199 10.6776
47.2146 10.5366
47.4095 10.3935
47.6044 10.198
47.7996 10.1045
47.9948 9.95836
48.1902 9.76934
48.3858 9.65457
48.5815 9.5242
48.7774 9.37186
48.9734 9.22441
49.1696 9.09411
49.3661 8.91771
49.5626 8.75955
49.7592 8.70239
49.956 8.57155
50.153 8.42362
50.3501 8.29222
50.5474 8.16237
50.7448 8.05953
50.9424 7.87978
51.1402 7.76001
51.3381 7.63995
51.5362 7.56025
51.7344 7.37086
51.9328 7.25294
52.1316 7.1585
52.3304 7.05186
52.5293 6.92816
52.7284 6.81351
52.9276 6.68588
53.1271 6.63052
53.3267 6.49283
53.5265 6.36933
53.7264 6.26503
53.9266 6.18426
54.1269 6.02979
54.3274 5.92108
54.528 5.76755
54.7289 5.62582
54.9301 5.51345
55.1314 5.31582
55.3328 5.12678
55.5344 4.98015
55.7361 4.81759