Folder: NiFe_MOF_catalyst_paper/XRD (part 110)

File: Ni3Fe_FD0597.xy
TT I
1.27165 7.62037
1.45013 6.21899
1.62863 4.79122
1.80712 4.45506
1.98562 4.67709
2.16411 4.82148
2.34263 5.55548
2.52115 6.82369
2.69965 8.05101
2.87818 8.60847
3.05672 10.929
3.23527 15.1092
3.4138 18.7222
3.59237 23.0295
3.77094 25.5269
3.9495 29.7337
4.12809 34.4836
4.30669 103.365
4.4853 54.3776
4.6639 55.7206
4.84253 69.0785
5.02118 88.6395
5.19981 481.198
5.37848 203.272
5.55716 104.015
5.73586 93.9168
5.91455 97.5777
6.09328 4364.83
6.27201 81.8652
6.45075 69.6986
6.62952 62.9826
6.8083 59.4085
6.98711 56.0278
7.16591 56.2945
7.34475 68.3204
7.5236 54.679
7.70247 57.0312
7.88135 58.1593
8.06026 63.0183
8.23919 69.909
8.41812 85.1815
8.59709 1262.4
8.77609 99.6221
8.9551 90.0252
9.13412 83.5121
9.31318 85.3918
9.49226 85.2269
9.67134 95.8027
9.85047 101.836
10.0296 382.498
10.2088 360.911
10.388 107.306
10.5672 512.95
10.7465 87.1065
10.9257 78.2334
11.105 72.0665
11.2844 68.8693
11.4637 65.1571
11.6431 63.804
11.8225 63.0865
12.002 65.037
12.1814 157.039
12.3609 67.2943
12.5405 65.1269
12.72 68.5093
12.8996 72.0396
13.0792 81.5912
13.2589 253.752
13.4386 121.5
13.6183 255.755
13.7981 96.7736
13.9779 76.5157
14.1577 72.4499
14.3376 70.7699
14.5175 69.4281
14.6974 71.5241
14.8774 116.587
15.0574 143.077
15.2374 70.0657
15.4175 66.9373
15.5976 66.6481
15.7778 99.6653
15.958 149.383
16.1382 61.7807
16.3185 58.3599
16.4988 55.8881
16.6792 54.8887
16.8596 55.2816
17.04 56.5898
17.2205 67.9848
17.401 71.2974
17.5815 59.7159
17.7622 61.8649
17.9428 75.6142
18.1237 141.372
18.3044 92.3441
18.4852 76.4247
18.666 60.7469
18.8469 58.5448
19.0278 57.044
19.2088 60.2494
19.3898 75.9402
19.5709 54.5419
19.752 53.796
19.9332 56.942
20.1144 70.2173
20.2957 64.3232
20.477 53.4378
20.6586 49.9423
20.84 49.1573
21.0215 48.8998
21.203 51.2043
21.3846 49.1195
21.5662 49.4028
21.7479 53.4301
21.9297 65.0481
22.1115 56.3575
22.2933 49.9429
22.4753 49.0202
22.6572 49.3753
22.8393 52.6282
23.0214 57.3666
23.2037 49.1388
23.3859 50.2794
23.5682 57.4208
23.7505 48.2114
23.9329 45.5329
24.1154 44.3836
24.2979 43.5238
24.4805 43.2791
24.6631 43.022
24.8458 42.4008
25.0286 43.2314
25.2114 45.0317
25.3943 44.7541
25.5773 41.0614
25.7605 40.6518
25.9436 41.2321
26.1268 41.9072
26.31 40.3154
26.4933 41.1807
26.6767 42.4494
26.8601 40.554
27.0437 39.1551
27.2272 38.8574
27.4109 38.6132
27.5946 38.6764
27.7784 38.1742
27.9623 38.5932
28.1462 39.0441
28.3304 37.2519
28.5145 36.2188
28.6987 35.9515
28.8829 35.7176
29.0673 34.9574
29.2517 34.5201
29.4361 34.3646
29.6207 33.3505
29.8053 33.1021
29.99 32.8362
30.1748 32.6324
30.3597 32.4644
30.5447 32.3406
30.7297 32.4997
30.915 31.7338
31.1002 31.2895
31.2855 31.1265
31.4708 31.0169
31.6563 30.5143
31.8418 30.3856
32.0275 30.0647
32.2132 29.6149
32.399 29.0733
32.5848 28.6828
32.7708 28.3027
32.9569 28.2042
33.143 27.9418
33.3293 27.6429
33.5158 27.1927
33.7022 26.7549
33.8887 26.4557
34.0753 26.0872
34.262 25.7653
34.4488 25.4875
34.6357 25.0786
34.8227 24.8143
35.0098 24.57
35.1969 24.4021
35.3842 24.0802
35.5716 23.8986
35.759 23.574
35.9468 23.2537
36.1345 23.0398
36.3222 22.7689
36.5101 22.5578
36.6981 22.191
36.8861 21.9267
37.0743 21.6139
37.2626 21.421
37.451 21.0945
37.6395 20.9241
37.8281 20.5982
38.0168 20.3376
38.2056 20.1028
38.3945 19.7656
38.5837 19.623
38.7728 19.2762
38.9621 19.0833
39.1514 18.8621
39.3409 18.543
39.5304 18.3523
39.7201 18.1868
39.9099 17.9166
40.0999 17.6245
40.2899 17.449
40.48 17.2274
40.6703 17.0031
40.8607 16.8278
41.0512 16.5817
41.242 16.393
41.4327 16.1514
41.6236 15.9158
41.8146 15.7643
42.0057 15.4792
42.1969 15.2368
42.3882 15.1189
42.5797 14.9171
42.7713 14.6799
42.963 14.5055
43.1549 14.3005
43.3468 14.1001
43.5389 13.8594
43.7312 13.7184
43.9237 13.5283
44.1162 13.3279
44.3088 13.1467
44.5016 12.964
44.6945 12.7767
44.8875 12.5915
45.0806 12.4472
45.2739 12.3006
45.4673 12.0691
45.6609 11.944
45.8546 11.8057
46.0484 11.5771
46.2424 11.4447
46.4365 11.3019
46.631 11.0855
46.8254 10.9443
47.0199 10.7754
47.2146 10.6222
47.4095 10.4395
47.6044 10.3297
47.7996 10.1746
47.9948 10.0206
48.1902 9.78459
48.3858 9.77678
48.5815 9.56611
48.7774 9.40923
48.9734 9.30945
49.1696 9.16965
49.3661 9.02176
49.5626 8.84443
49.7592 8.74606
49.956 8.60284
50.153 8.51094
50.3501 8.32425
50.5474 8.2361
50.7448 8.08781
50.9424 7.98447
51.1402 7.83608
51.3381 7.70093
51.5362 7.57666
51.7344 7.45592
51.9328 7.34696
52.1316 7.18274
52.3304 7.08182
52.5293 6.93095
52.7284 6.88984
52.9276 6.76215
53.1271 6.64603
53.3267 6.5528
53.5265 6.36756
53.7264 6.32445
53.9266 6.20167
54.1269 6.097
54.3274 5.99593
54.528 5.81451
54.7289 5.68152
54.9301 5.50969
55.1314 5.3806
55.3328 5.18436
55.5344 4.94979
55.7361 4.84138

File: Ni3Fe_FD0598.xy
TT I
1.27165 7.20125
1.45013 5.69459
1.62863 5.25897
1.80712 4.8826
1.98562 5.02032
2.16411 4.02569
2.34263 5.61583
2.52115 7.10634
2.69965 8.07172
2.87818 8.68286
3.05672 10.7677
3.23527 15.296
3.4138 18.8223
3.59237 23.0452
3.77094 26.2658
3.9495 29.3454
4.12809 34.4664
4.30669 103.013
4.4853 54.3376
4.6639 55.9881
4.84253 68.7589
5.02118 88.9747
5.19981 479.919
5.37848 203.793
5.55716 103.386
5.73586 93.9406
5.91455 97.5083
6.09328 4390.56
6.27201 82.0041
6.45075 69.5835
6.62952 63.1847
6.8083 59.4721
6.98711 56.004
7.16591 56.0519
7.34475 67.9039
7.5236 54.5271
7.70247 56.9789
7.88135 57.8615
8.06026 62.8451
8.23919 69.8059
8.41812 85.1019
8.59709 1258.8
8.77609 99.8657
8.9551 90.0117
9.13412 83.6102
9.31318 85.1438
9.49226 85.5961
9.67134 96.0558
9.85047 102.085
10.0296 382.23
10.2088 361.768
10.388 106.95
10.5672 514.402
10.7465 87.0264
10.9257 78.4012
11.105 72.0159
11.2844 68.9298
11.4637 65.0723
11.6431 63.8742
11.8225 63.1218
12.002 65.3195
12.1814 156.832
12.3609 67.355
12.5405 65.6444
12.72 68.6536
12.8996 72.0652
13.0792 81.4191
13.2589 253.676
13.4386 122.124
13.6183 255.971
13.7981 96.6015
13.9779 76.3815
14.1577 72.3626
14.3376 70.8451
14.5175 69.4543
14.6974 71.2982
14.8774 116.84
15.0574 143.512
15.2374 70.3641
15.4175 66.9479
15.5976 66.8407
15.7778 99.7651
15.958 149.607
16.1382 61.6944
16.3185 58.3108
16.4988 55.8597
16.6792 54.8757
16.8596 55.2913
17.04 56.6597
17.2205 68.0847
17.401 71.2016
17.5815 59.8649
17.7622 61.9349
17.9428 75.6682
18.1237 141.594
18.3044 92.2857
18.4852 76.5812
18.666 60.8064
18.8469 58.5378
19.0278 57.1852
19.2088 60.0099
19.3898 75.9064
19.5709 54.4081
19.752 53.8217
19.9332 56.9572
20.1144 70.1124
20.2957 64.0557
20.477 53.5576
20.6586 50.0689
20.84 49.1646
21.0215 49.0028
21.203 51.2784
21.3846 49.1687
21.5662 49.4261
21.7479 53.3024
21.9297 65.1072
22.1115 56.2987
22.2933 50.0388
22.4753 48.9957
22.6572 49.3852
22.8393 52.6882
23.0214 57.4231
23.2037 49.128
23.3859 50.5615
23.5682 57.2084
23.7505 48.293
23.9329 45.5798
24.1154 44.3802
24.2979 43.6615
24.4805 43.2509
24.6631 43.0737
24.8458 42.6261
25.0286 43.2633
25.2114 44.9527
25.3943 44.7261
25.5773 41.1456
25.7605 40.6468
25.9436 41.1733
26.1268 42.0404
26.31 40.4364
26.4933 41.1202
26.6767 42.4418
26.8601 40.7098
27.0437 39.1052
27.2272 38.7622
27.4109 38.5782
27.5946 38.7691
27.7784 38.0748
27.9623 38.6605
28.1462 39.0786
28.3304 37.3816
28.5145 36.2395
28.6987 35.8402
28.8829 35.6471
29.0673 34.8559
29.2517 34.5329
29.4361 34.3484
29.6207 33.3543
29.8053 33.1557
29.99 32.7715
30.1748 32.7252
30.3597 32.4508
30.5447 32.3788
30.7297 32.4371
30.915 31.8166
31.1002 31.3714
31.2855 31.0678
31.4708 31.0762
31.6563 30.4622
31.8418 30.3783
32.0275 30.0421
32.2132 29.5654
32.399 29.0065
32.5848 28.6398
32.7708 28.316
32.9569 28.1991
33.143 27.9617
33.3293 27.5579
33.5158 27.1883
33.7022 26.7404
33.8887 26.5117
34.0753 26.1564
34.262 25.8522
34.4488 25.4197
34.6357 25.2157
34.8227 24.9025
35.0098 24.6771
35.1969 24.3183
35.3842 24.064
35.5716 23.8847
35.759 23.597
35.9468 23.2434
36.1345 23.0364
36.3222 22.7704
36.5101 22.5168
36.6981 22.255
36.8861 21.8576
37.0743 21.6491
37.2626 21.3435
37.451 21.054
37.6395 20.9
37.8281 20.5906
38.0168 20.361
38.2056 20.0833
38.3945 19.8122
38.5837 19.5263
38.7728 19.3181
38.9621 19.0057
39.1514 18.8534
39.3409 18.5757
39.5304 18.3436
39.7201 18.1556
39.9099 17.9677
40.0999 17.7203
40.2899 17.4338
40.48 17.2086
40.6703 16.9751
40.8607 16.8504
41.0512 16.5354
41.242 16.3134
41.4327 16.1005
41.6236 15.9679
41.8146 15.7208
42.0057 15.4965
42.1969 15.2939
42.3882 15.1118
42.5797 14.924
42.7713 14.7327
42.963 14.5145
43.1549 14.3285
43.3468 14.0901
43.5389 13.9402
43.7312 13.6801
43.9237 13.5385
44.1162 13.3753
44.3088 13.1086
44.5016 12.9819
44.6945 12.8188
44.8875 12.624
45.0806 12.4182
45.2739 12.2181
45.4673 12.1239
45.6609 11.8956
45.8546 11.7025
46.0484 11.5519
46.2424 11.4507
46.4365 11.2693
46.631 11.0643
46.8254 10.9114
47.0199 10.7844
47.2146 10.5778
47.4095 10.4729
47.6044 10.3636
47.7996 10.1213
47.9948 9.9621
48.1902 9.82996
48.3858 9.69448
48.5815 9.58237
48.7774 9.45635
48.9734 9.28786
49.1696 9.1487
49.3661 9.00851
49.5626 8.83935
49.7592 8.73532
49.956 8.59272
50.153 8.48162
50.3501 8.35623
50.5474 8.18501
50.7448 8.09715
50.9424 7.9453
51.1402 7.80365
51.3381 7.70127
51.5362 7.59697
51.7344 7.47003
51.9328 7.31572
52.1316 7.18836
52.3304 7.08981
52.5293 6.9642
52.7284 6.86248
52.9276 6.76448
53.1271 6.65806
53.3267 6.50396
53.5265 6.43648
53.7264 6.31416
53.9266 6.1873
54.1269 6.05656
54.3274 5.96629
54.528 5.79043
54.7289 5.64333
54.9301 5.52919
55.1314 5.39885
55.3328 5.18428
55.5344 5.01629
55.7361 4.89787

File: Ni3Fe_FD0599.xy
TT I
1.27165 7.74257
1.45013 6.54929
1.62863 5.17439
1.80712 4.76173
1.98562 4.99485
2.16411 4.28898
2.34263 5.61504
2.52115 6.67606
2.69965 7.65567
2.87818 8.72035
3.05672 10.7261
3.23527 15.3777
3.4138 18.9836
3.59237 22.8046
3.77094 26.0282
3.9495 29.4834
4.12809 34.2247
4.30669 102.712
4.4853 54.1855
4.6639 56.0927
4.84253 68.8409
5.02118 88.4913
5.19981 482.771
5.37848 203.779
5.55716 103.938
5.73586 94.4571
5.91455 97.7118
6.09328 4402.52
6.27201 81.7494
6.45075 69.6688
6.62952 63.1306
6.8083 59.5446
6.98711 55.9753
7.16591 56.1097
7.34475 67.5389
7.5236 54.948
7.70247 57.0734
7.88135 58.0946
8.06026 63.0399
8.23919 70.0747
8.41812 85.1045
8.59709 1259.98
8.77609 99.6469
8.9551 90.0156
9.13412 83.956
9.31318 85.3838
9.49226 85.5715
9.67134 95.5834
9.85047 102.387
10.0296 384.085
10.2088 359.265
10.388 107.47
10.5672 518.495
10.7465 87.1382
10.9257 78.4237
11.105 71.8143
11.2844 68.8135
11.4637 65.2964
11.6431 63.9172
11.8225 63.3561
12.002 65.2387
12.1814 157.804
12.3609 67.3504
12.5405 65.523
12.72 68.5025
12.8996 72.0472
13.0792 81.7056
13.2589 254.543
13.4386 121.763
13.6183 256.783
13.7981 96.6318
13.9779 76.3543
14.1577 72.5057
14.3376 70.8631
14.5175 69.6519
14.6974 71.3366
14.8774 117.037
15.0574 143.041
15.2374 70.2097
15.4175 66.7889
15.5976 66.8193
15.7778 99.9824
15.958 148.399
16.1382 61.7304
16.3185 58.4205
16.4988 55.7149
16.6792 54.9179
16.8596 55.3869
17.04 56.6156
17.2205 68.3619
17.401 70.862
17.5815 59.7295
17.7622 62.0325
17.9428 75.8969
18.1237 141.365
18.3044 92.3346
18.4852 76.3709
18.666 60.7616
18.8469 58.5858
19.0278 57.2402
19.2088 60.031
19.3898 75.9134
19.5709 54.4339
19.752 53.6754
19.9332 56.7024
20.1144 70.056
20.2957 64.2005
20.477 53.5634
20.6586 50.0534
20.84 49.0488
21.0215 49.0211
21.203 51.2281
21.3846 49.1469
21.5662 49.3738
21.7479 53.4528
21.9297 64.9416
22.1115 56.3027
22.2933 50.0075
22.4753 49.1815
22.6572 49.3221
22.8393 52.656
23.0214 57.177
23.2037 49.1043
23.3859 50.3755
23.5682 57.3962
23.7505 48.2961
23.9329 45.391
24.1154 44.3818
24.2979 43.674
24.4805 43.1307
24.6631 43.003
24.8458 42.465
25.0286 43.3023
25.2114 45.1154
25.3943 44.6498
25.5773 41.1077
25.7605 40.675
25.9436 41.0915
26.1268 42.0095
26.31 40.2387
26.4933 41.0595
26.6767 42.4431
26.8601 40.5402
27.0437 39.1811
27.2272 38.9385
27.4109 38.7874
27.5946 38.6478
27.7784 38.203
27.9623 38.7132
28.1462 39.1229
28.3304 37.2928
28.5145 36.239
28.6987 35.7898
28.8829 35.5865
29.0673 34.8348
29.2517 34.5941
29.4361 34.2861
29.6207 33.2569
29.8053 33.0889
29.99 32.7211
30.1748 32.6654
30.3597 32.4912
30.5447 32.3809
30.7297 32.3022
30.915 31.7976
31.1002 31.2728
31.2855 30.9712
31.4708 30.9288
31.6563 30.4759
31.8418 30.2893
32.0275 30.1799
32.2132 29.4898
32.399 29.0974
32.5848 28.5694
32.7708 28.3164
32.9569 28.186
33.143 27.994
33.3293 27.5217
33.5158 27.166
33.7022 26.7283
33.8887 26.4189
34.0753 26.1511
34.262 25.8657
34.4488 25.4662
34.6357 25.1776
34.8227 24.7812
35.0098 24.6786
35.1969 24.4688
35.3842 24.1329
35.5716 23.9349
35.759 23.6089
35.9468 23.2282
36.1345 23.0224
36.3222 22.7665
36.5101 22.5684
36.6981 22.2703
36.8861 21.8841
37.0743 21.5929
37.2626 21.3947
37.451 21.0676
37.6395 20.9546
37.8281 20.591
38.0168 20.3126
38.2056 20.0351
38.3945 19.7453
38.5837 19.5849
38.7728 19.26
38.9621 19.0329
39.1514 18.7882
39.3409 18.5496
39.5304 18.2963
39.7201 18.1326
39.9099 17.9198
40.0999 17.7215
40.2899 17.4412
40.48 17.1897
40.6703 16.9897
40.8607 16.7957
41.0512 16.5978
41.242 16.3691
41.4327 16.1625
41.6236 15.919
41.8146 15.7126
42.0057 15.498
42.1969 15.286
42.3882 15.1442
42.5797 14.9175
42.7713 14.7311
42.963 14.4674
43.1549 14.3256
43.3468 14.0517
43.5389 13.8851
43.7312 13.7133
43.9237 13.5032
44.1162 13.3699
44.3088 13.1731
44.5016 12.9557
44.6945 12.7685
44.8875 12.6463
45.0806 12.4702
45.2739 12.2622
45.4673 12.0553
45.6609 11.8964
45.8546 11.7115
46.0484 11.5871
46.2424 11.4328
46.4365 11.203
46.631 11.0736
46.8254 10.9113
47.0199 10.7575
47.2146 10.6598
47.4095 10.4385
47.6044 10.2742
47.7996 10.1042
47.9948 9.96804
48.1902 9.81913
48.3858 9.70936
48.5815 9.55951
48.7774 9.42508
48.9734 9.26468
49.1696 9.15476
49.3661 9.02957
49.5626 8.86493
49.7592 8.7432
49.956 8.58801
50.153 8.49113
50.3501 8.36057
50.5474 8.23032
50.7448 8.07613
50.9424 7.98076
51.1402 7.8119
51.3381 7.7075
51.5362 7.58279
51.7344 7.43889
51.9328 7.31697
52.1316 7.18181
52.3304 7.08037
52.5293 7.03505
52.7284 6.85137
52.9276 6.74584
53.1271 6.66689
53.3267 6.53658
53.5265 6.42562
53.7264 6.33443
53.9266 6.20567
54.1269 6.05038
54.3274 5.99119
54.528 5.82966
54.7289 5.66915
54.9301 5.49465
55.1314 5.38825
55.3328 5.17924
55.5344 4.98594
55.7361 4.81857

File: Ni3Fe_FD0600.xy
TT I
1.27165 7.41068
1.45013 6.27334
1.62863 5.55524
1.80712 4.33091
1.98562 4.29425
2.16411 4.55768
2.34263 4.84742
2.52115 6.34958
2.69965 7.60595
2.87818 8.29894
3.05672 11.1658
3.23527 14.4422
3.4138 18.3245
3.59237 23.0104
3.77094 25.6899
3.9495 29.1509
4.12809 34.458
4.30669 101.74
4.4853 53.9131
4.6639 56.0509
4.84253 69.0124
5.02118 89.1093
5.19981 457.125
5.37848 206.437
5.55716 103.59
5.73586 94.4371
5.91455 97.5502
6.09328 4319.87
6.27201 81.9224
6.45075 69.7541
6.62952 63.1813
6.8083 59.4694
6.98711 55.9647
7.16591 56.0859
7.34475 67.5436
7.5236 54.763
7.70247 56.9977
7.88135 57.8941
8.06026 63.2823
8.23919 70.2301
8.41812 85.3299
8.59709 1267.01
8.77609 100.363
8.9551 90.3186
9.13412 83.6966
9.31318 85.5027
9.49226 85.6376
9.67134 95.8872
9.85047 102.458
10.0296 382.743
10.2088 378.275
10.388 107.177
10.5672 511.629
10.7465 87.3257
10.9257 78.8419
11.105 72.2272
11.2844 69.2089
11.4637 65.3561
11.6431 64.2346
11.8225 63.061
12.002 64.8974
12.1814 157.348
12.3609 67.4464
12.5405 65.3896
12.72 68.6666
12.8996 72.2709
13.0792 81.4547
13.2589 254.041
13.4386 122.902
13.6183 255.351
13.7981 98.0037
13.9779 76.6535
14.1577 72.8792
14.3376 71.1364
14.5175 69.5524
14.6974 71.5488
14.8774 117.015
15.0574 146.011
15.2374 70.3821
15.4175 67.0328
15.5976 66.3257
15.7778 99.7481
15.958 150.871
16.1382 61.9397
16.3185 58.4418
16.4988 56.0721
16.6792 54.8862
16.8596 55.4736
17.04 56.6763
17.2205 68.2442
17.401 71.5309
17.5815 59.7398
17.7622 61.8341
17.9428 75.9522
18.1237 140.181
18.3044 92.3191
18.4852 76.798
18.666 60.7869
18.8469 58.4315
19.0278 57.1932
19.2088 60.2553
19.3898 75.8328
19.5709 54.3889
19.752 53.8179
19.9332 57.0659
20.1144 70.1279
20.2957 64.17
20.477 53.4959
20.6586 50.1944
20.84 49.2265
21.0215 49.0034
21.203 51.1779
21.3846 49.2375
21.5662 49.3977
21.7479 53.5967
21.9297 64.8943
22.1115 56.2128
22.2933 50.0938
22.4753 49.1029
22.6572 49.3694
22.8393 52.8378
23.0214 57.3967
23.2037 49.1506
23.3859 50.384
23.5682 57.018
23.7505 48.3579
23.9329 45.6358
24.1154 44.3915
24.2979 43.6675
24.4805 43.1499
24.6631 43.0609
24.8458 42.5311
25.0286 43.1879
25.2114 45.011
25.3943 44.8522
25.5773 41.2125
25.7605 40.5809
25.9436 41.2716
26.1268 42.0394
26.31 40.3275
26.4933 41.0408
26.6767 42.448
26.8601 40.6835
27.0437 39.1192
27.2272 38.8144
27.4109 38.6797
27.5946 38.6919
27.7784 38.1321
27.9623 38.8234
28.1462 39.0683
28.3304 37.2545
28.5145 36.1803
28.6987 35.9005
28.8829 35.558
29.0673 34.8327
29.2517 34.6027
29.4361 34.3106
29.6207 33.3638
29.8053 33.0249
29.99 32.7731
30.1748 32.6188
30.3597 32.3779
30.5447 32.4262
30.7297 32.5098
30.915 31.7733
31.1002 31.2684
31.2855 31.0927
31.4708 31.0032
31.6563 30.5099
31.8418 30.4946
32.0275 30.0406
32.2132 29.5371
32.399 29.1281
32.5848 28.613
32.7708 28.3568
32.9569 28.1354
33.143 27.9795
33.3293 27.5728
33.5158 27.2573
33.7022 26.7115
33.8887 26.5404
34.0753 26.1835
34.262 25.8531
34.4488 25.5214
34.6357 25.193
34.8227 24.8116
35.0098 24.714
35.1969 24.3495
35.3842 24.1104
35.5716 23.8685
35.759 23.6188
35.9468 23.2932
36.1345 22.9626
36.3222 22.8137
36.5101 22.5711
36.6981 22.2395
36.8861 21.9431
37.0743 21.6738
37.2626 21.3822
37.451 21.137
37.6395 20.9095
37.8281 20.6166
38.0168 20.3656
38.2056 20.0604
38.3945 19.763
38.5837 19.5577
38.7728 19.2529
38.9621 19.0918
39.1514 18.7802
39.3409 18.5627
39.5304 18.295
39.7201 18.159
39.9099 17.9745
40.0999 17.6658
40.2899 17.4347
40.48 17.2235
40.6703 16.9905
40.8607 16.8219
41.0512 16.5869
41.242 16.3454
41.4327 16.127
41.6236 15.9097
41.8146 15.7689
42.0057 15.5134
42.1969 15.317
42.3882 15.1119
42.5797 14.9007
42.7713 14.6637
42.963 14.5176
43.1549 14.2789
43.3468 14.0551
43.5389 13.8848
43.7312 13.6965
43.9237 13.5243
44.1162 13.3519
44.3088 13.1132
44.5016 12.963
44.6945 12.7984
44.8875 12.6389
45.0806 12.412
45.2739 12.2703
45.4673 12.1205
45.6609 11.9163
45.8546 11.7781
46.0484 11.6089
46.2424 11.4028
46.4365 11.2569
46.631 11.0756
46.8254 10.9531
47.0199 10.7743
47.2146 10.6252
47.4095 10.4262
47.6044 10.2775
47.7996 10.0973
47.9948 9.97873
48.1902 9.86599
48.3858 9.70845
48.5815 9.58709
48.7774 9.44029
48.9734 9.29225
49.1696 9.16256
49.3661 8.99787
49.5626 8.84088
49.7592 8.7459
49.956 8.59573
50.153 8.46723
50.3501 8.35494
50.5474 8.22758
50.7448 8.12387
50.9424 7.96158
51.1402 7.86438
51.3381 7.7042
51.5362 7.57397
51.7344 7.45034
51.9328 7.35326
52.1316 7.21482
52.3304 7.12324
52.5293 6.98245
52.7284 6.86831
52.9276 6.75271
53.1271 6.61963
53.3267 6.49012
53.5265 6.41469
53.7264 6.32593
53.9266 6.1952
54.1269 6.08864
54.3274 5.98336
54.528 5.84574
54.7289 5.6858
54.9301 5.49549
55.1314 5.34636
55.3328 5.19681
55.5344 5.00057
55.7361 4.82383

File: Ni3Fe_FD0601.xy
TT I
1.27165 7.66737
1.45013 6.31526
1.62863 5.80767
1.80712 4.61721
1.98562 4.41594
2.16411 4.85073
2.34263 5.13747
2.52115 6.88129
2.69965 7.80254
2.87818 8.4574
3.05672 10.7883
3.23527 14.8497
3.4138 18.3613
3.59237 23.1916
3.77094 25.8186
3.9495 29.8152
4.12809 35.1911
4.30669 112.705
4.4853 54.9916
4.6639 55.9504
4.84253 68.4676
5.02118 89.1781
5.19981 432.528
5.37848 205.433
5.55716 104.114
5.73586 94.1744
5.91455 96.9774
6.09328 4270.68
6.27201 82.6466
6.45075 68.6467
6.62952 62.8969
6.8083 59.5056
6.98711 56.171
7.16591 56.3885
7.34475 69.9762
7.5236 54.5223
7.70247 56.6777
7.88135 57.8337
8.06026 63.1674
8.23919 70.0528
8.41812 85.4657
8.59709 1237.5
8.77609 100.73
8.9551 89.7798
9.13412 83.8362
9.31318 84.9875
9.49226 86.0873
9.67134 95.442
9.85047 101.975
10.0296 381.507
10.2088 410.893
10.388 106.305
10.5672 503.225
10.7465 87.3896
10.9257 78.4598
11.105 72.1535
11.2844 69.4198
11.4637 65.1537
11.6431 63.9035
11.8225 63.1967
12.002 64.8564
12.1814 154.808
12.3609 68.2193
12.5405 64.9939
12.72 68.7068
12.8996 72.015
13.0792 80.8984
13.2589 253.108
13.4386 128.051
13.6183 254.413
13.7981 100.874
13.9779 76.5472
14.1577 72.7201
14.3376 71.0966
14.5175 69.5567
14.6974 71.4277
14.8774 116.823
15.0574 150.395
15.2374 70.2135
15.4175 67.1023
15.5976 66.5742
15.7778 99.7189
15.958 153.547
16.1382 62.2302
16.3185 58.4297
16.4988 55.866
16.6792 55.0699
16.8596 55.5158
17.04 56.5412
17.2205 67.9222
17.401 72.4154
17.5815 59.8612
17.7622 61.8905
17.9428 75.6689
18.1237 138.096
18.3044 92.1311
18.4852 78.5492
18.666 60.7374
18.8469 58.5825
19.0278 57.384
19.2088 60.2822
19.3898 75.2046
19.5709 54.8362
19.752 53.8173
19.9332 56.9002
20.1144 69.426
20.2957 63.7748
20.477 53.9263
20.6586 50.106
20.84 49.2318
21.0215 49.1012
21.203 51.2147
21.3846 49.4117
21.5662 49.2563
21.7479 53.6042
21.9297 64.4906
22.1115 56.1722
22.2933 50.3071
22.4753 49.1484
22.6572 49.2662
22.8393 52.7001
23.0214 57.4476
23.2037 49.1724
23.3859 50.4598
23.5682 56.8098
23.7505 48.8495
23.9329 45.6312
24.1154 44.4908
24.2979 43.6875
24.4805 43.2749
24.6631 43.0231
24.8458 42.6276
25.0286 43.2615
25.2114 45.0978
25.3943 44.8083
25.5773 41.1615
25.7605 40.7943
25.9436 41.2986
26.1268 41.9992
26.31 40.4243
26.4933 41.1873
26.6767 42.3875
26.8601 40.6648
27.0437 39.1573
27.2272 38.8461
27.4109 38.5927
27.5946 38.6614
27.7784 38.2612
27.9623 38.6397
28.1462 39.0272
28.3304 37.4444
28.5145 36.3078
28.6987 35.9241
28.8829 35.5853
29.0673 34.9916
29.2517 34.6397
29.4361 34.309
29.6207 33.3664
29.8053 33.1086
29.99 32.8207
30.1748 32.8176
30.3597 32.5184
30.5447 32.3189
30.7297 32.4213
30.915 31.7741
31.1002 31.328
31.2855 31.0449
31.4708 31.0664
31.6563 30.5872
31.8418 30.3784
32.0275 30.0551
32.2132 29.5998
32.399 29.1206
32.5848 28.651
32.7708 28.3907
32.9569 28.3215
33.143 27.9642
33.3293 27.4755
33.5158 27.2716
33.7022 26.8678
33.8887 26.4431
34.0753 26.1507
34.262 25.8397
34.4488 25.4211
34.6357 25.1168
34.8227 24.8522
35.0098 24.6431
35.1969 24.4313
35.3842 24.1672
35.5716 23.9047
35.759 23.605
35.9468 23.2802
36.1345 23.0555
36.3222 22.8048
36.5101 22.6638
36.6981 22.2807
36.8861 21.9771
37.0743 21.7059
37.2626 21.3532
37.451 21.1061
37.6395 20.9602
37.8281 20.5727
38.0168 20.3873
38.2056 20.046
38.3945 19.8277
38.5837 19.5493
38.7728 19.3315
38.9621 19.0798
39.1514 18.8017
39.3409 18.5185
39.5304 18.3395
39.7201 18.1994
39.9099 18.0023
40.0999 17.7419
40.2899 17.4848
40.48 17.1891
40.6703 16.9648
40.8607 16.8572
41.0512 16.6163
41.242 16.3718
41.4327 16.1644
41.6236 15.9586
41.8146 15.7148
42.0057 15.5012
42.1969 15.3009
42.3882 15.0955
42.5797 14.9257
42.7713 14.7316
42.963 14.4823
43.1549 14.2947
43.3468 14.1127
43.5389 13.9293
43.7312 13.7104
43.9237 13.5662
44.1162 13.3581
44.3088 13.131
44.5016 12.9698
44.6945 12.7986
44.8875 12.6287
45.0806 12.4359
45.2739 12.3054
45.4673 12.0891
45.6609 11.9706
45.8546 11.792
46.0484 11.5513
46.2424 11.4089
46.4365 11.2817
46.631 11.0859
46.8254 10.9005
47.0199 10.7365
47.2146 10.6209
47.4095 10.443
47.6044 10.2877
47.7996 10.1449
47.9948 9.97556
48.1902 9.82824
48.3858 9.72603
48.5815 9.54269
48.7774 9.43077
48.9734 9.30537
49.1696 9.1564
49.3661 9.00002
49.5626 8.85132
49.7592 8.73002
49.956 8.61227
50.153 8.46701
50.3501 8.33408
50.5474 8.2293
50.7448 8.10949
50.9424 7.98337
51.1402 7.85653
51.3381 7.69966
51.5362 7.59349
51.7344 7.48702
51.9328 7.30781
52.1316 7.22783
52.3304 7.1279
52.5293 6.98305
52.7284 6.83313
52.9276 6.75769
53.1271 6.63258
53.3267 6.53559
53.5265 6.42904
53.7264 6.32168
53.9266 6.20642
54.1269 6.05472
54.3274 5.99256
54.528 5.84178
54.7289 5.68493
54.9301 5.48375
55.1314 5.3722
55.3328 5.16273
55.5344 4.99392
55.7361 4.87672